File: EDX Back Ups and Old Files/Spectra copy 3.3.23/Samples/Low pH SF 25C 9d/10.0.txt
0.0
-80.33
-28.33
-31.67
-110.0
10.67
-77.33
-33.0
-20.0
30.33
-9.67
0.33
21.67
-7.33
10.0
2.0
6.67
-4.67
-3.0
3.0
-0.33
-0.67
1.0
1.67
-0.33
1.0
3.0
0.67
-1.0
0.0
-0.33
0.0
-0.33
0.67
0.0
0.67
0.0
0.0
0.0
1.67
-1.0
0.67
1.0
0.33
-0.33
-0.33
-0.67
-0.33
0.33
-0.33
-0.67
0.67
0.67
-1.67
1.0
-1.0
0.67
4.67
-0.33
4.67
2.0
5.0
1.33
1.0
1.0
-0.33
7.67
-0.33
1.33
2.33
1.67
-5.33
5.0
-2.0
7.33
3.0
-3.0
3.67
1.0
0.67
-0.67
-4.0
4.67
0.0
5.33
5.67
4.33
3.0
2.67
1.0
0.67
2.0
6.33
11.67
-1.33
6.0
2.0
6.33
4.67
-7.33
-1.0
-3.0
3.67
-1.0
10.33
1.33
-2.0
-1.33
3.33
0.67
8.67
3.0
2.67
8.0
1.33
-4.0
5.0
-1.33
6.0
12.0
3.67
-5.33
-1.67
5.0
8.33
-1.67
1.33
1.0
0.33
3.67
0.0
1.0
1.33
10.0
7.67
-2.67
2.67
-1.0
0.67
5.0
4.0
-0.67
10.0
5.0
2.33
1.0
4.0
1.0
2.0
-2.33
7.67
-1.67
1.67
-2.67
3.67
1.0
9.0
4.0
-2.0
5.67
0.67
3.0
-1.67
-1.67
-0.67
0.0
0.67
4.33
-2.67
1.33
-0.33
-3.33
4.33
4.67
3.0
4.0
2.67
6.33
2.0
3.67
3.33
1.0
0.33
-2.67
-2.67
0.0
1.33
2.0
-1.0
2.67
-4.0
-1.67
-1.33
0.67
0.67
2.0
-0.67
4.33
1.67
2.33
2.33
-2.0
4.33
-2.0
-3.67
4.67
0.0
-2.67
5.0
-1.33
2.33
2.67
3.33
-1.67
6.0
-2.0
2.33
1.0
-4.0
3.33
3.0
-0.67
1.33
-0.33
4.67
2.0
-0.67
3.33
5.33
2.0
4.0
4.0
2.0
4.33
2.33
2.67
1.67
-2.33
-1.33
-2.33
-4.33
-5.33
3.0
0.0
0.33
3.33
3.33
-4.67
-1.0
5.0
5.67
0.67
3.33
-2.33
12.67
-1.67
0.0
1.67
0.33
1.0
3.67
-2.33
2.33
0.0
0.67
-2.0
2.33
3.33
1.0
2.0
5.0
1.33
2.0
-1.0
-5.0
1.0
1.0
3.0
2.33
-2.33
-1.67
3.0
-0.33
-0.33
1.33
2.0
2.33
1.0
1.67
2.33
0.33
1.67
3.0
-2.67
1.67
2.67
3.0
2.33
2.67
1.33
-0.67
-1.33
7.0
-0.33
2.33
2.33
1.0
0.33
1.0
5.67
-2.33
-1.33
3.33
0.67
-0.67
0.67
-1.33
-0.33
2.67
-3.33
1.67
-0.67
0.33
5.33
1.33
7.0
7.33
-1.67
1.33
-2.67
-3.33
0.67
5.0
2.67
0.67
-0.67
-3.67
-5.67
-1.0
3.33
-2.67
-3.0
3.0
0.33
-1.33
0.0
1.0
1.67
7.67
-2.67
0.0
-0.67
-1.33
-1.33
0.0
3.67
4.33
4.0
-2.67
-5.0
-2.0
-3.33
7.0
-2.33
-0.67
1.67
-3.33
-0.33
-0.33
-1.33
-5.0
4.33
-1.67
-1.33
4.0
7.0
3.0
-1.67
-0.33
3.33
-1.67
-2.33
-0.33
7.0
-1.67
-2.33
2.33
-6.33
0.33
-3.33
5.0
0.0
-5.0
-0.67
-2.67
0.0
5.67
4.67
-1.0
1.0
-1.0
5.33
-1.67
0.67
1.33
1.67
-3.67
-4.67
5.67
7.0
1.0
6.0
-1.0
2.67
0.33
2.0
-3.67
-0.33
-1.33
-3.67
5.33
-4.33
0.0
-3.0
4.0
11.67
2.0
2.0
8.0
7.33
3.33
-1.33
6.0
-3.0
8.33
-1.33
5.67
0.67
6.0
-1.33
0.33
2.0
4.0
1.33
7.67
6.67
-3.33
1.0
-2.0
9.33
4.33
4.33
5.33
2.33
6.67
2.0
2.0
7.67
9.33
2.33
14.0
21.33
29.0
31.33
33.67
53.67
75.33
66.67
86.33
82.67
68.0
74.33
54.33
53.67
42.0
24.33
19.33
5.33
0.67
7.33
4.67
13.33
12.67
11.0
-0.33
1.33
18.33
18.33
18.0
7.67
30.33
40.67
39.33
55.67
84.67
97.33
115.67
101.33
103.0
68.33
43.33
37.33
14.33
6.33
6.33
19.0
5.33
15.67
16.67
9.33
18.33
10.0
15.0
15.67
14.0
19.67
18.67
24.33
44.67
12.33
26.33
43.0
10.0
26.67
41.67
30.67
41.0
46.33
33.0
43.33
55.0
59.67
56.0
56.67
60.33
59.33
77.33
69.33
64.33
63.67
36.67
37.67
32.33
39.33
28.0
27.0
18.0
25.33
17.0
27.67
6.0
20.33
16.0
10.0
15.33
12.67
11.67
-3.33
14.0
7.33
3.33
14.67
9.67
6.67
12.0
11.67
7.67
9.67
16.0
17.0
9.0
17.33
18.0
22.0
18.33
19.0
13.0
19.0
19.67
22.33
23.67
6.33
9.67
19.0
23.33
3.33
1.67
29.67
5.33
19.67
47.33
55.67
62.33
114.33
145.67
161.67
180.0
177.33
202.0
155.33
156.67
119.33
103.67
86.0
68.0
52.0
45.0
37.0
43.0
30.67
24.0
33.33
49.33
50.0
39.0
44.33
24.33
54.67
54.0
37.67
58.0
52.67
45.67
60.33
43.67
41.0
45.33
41.67
36.67
29.33
26.0
36.33
23.0
25.67
15.67
18.33
12.33
6.33
12.0
11.67
19.33
10.0
6.67
16.0
8.67
4.33
19.0
12.33
3.0
3.33
22.67
17.33
30.33
17.67
6.67
18.0
18.0
20.33
31.67
18.33
26.33
33.67
22.0
18.0
16.0
9.67
26.33
-0.33
23.67
17.33
24.33
31.67
7.0
20.0
23.33
17.33
12.33
19.67
16.33
19.0
15.33
7.67
21.33
12.0
33.33
6.33
4.67
22.0
7.67
10.33
15.33
22.67
14.67
-0.33
8.33
5.0
15.67
-2.67
15.33
9.67
13.0
16.67
19.67
11.0
12.0
18.0
6.33
1.33
4.0
-1.0
6.0
4.0
13.0
10.67
0.67
6.33
13.67
17.67
5.0
9.67
12.0
10.33
25.67
12.67
15.67
4.0
10.0
6.33
12.67
8.0
5.33
13.0
7.67
11.67
5.0
4.0
-2.0
8.33
7.0
5.67
6.0
6.0
-5.0
6.67
-0.67
9.0
2.0
4.0
-2.67
3.67
-2.0
1.0
11.33
-10.0
-0.33
4.33
15.0
13.0
3.0
5.67
18.67
6.33
3.0
12.33
9.0
8.33
17.0
7.0
3.0
14.33
11.0
21.0
-7.0
8.33
9.0
15.33
9.33
6.33
10.33
17.0
9.33
17.0
5.0
19.0
2.0
12.67
8.33
5.0
8.67
23.33
5.67
17.67
4.67
17.0
8.33
16.33
17.67
3.67
7.67
13.0
6.67
14.67
7.67
4.67
4.0
-1.33
0.67
11.0
6.0
9.33
18.0
5.0
14.33
1.0
0.33
11.0
5.33
11.0
-0.33
14.0
8.0
13.0
6.0
3.67
5.33
3.33
5.0
3.67
-2.0
5.33
-3.33
0.67
2.67
6.67
-1.33
-0.67
15.33
4.67
5.0
-4.33
-1.67
4.0
7.67
2.67
10.67
7.0
10.33
3.33
9.0
1.67
1.67
-2.67
16.0
8.67
-6.33
0.33
-1.0
4.0
6.33
-1.67
1.0
8.0
8.67
0.33
20.0
9.0
1.67
1.33
20.0
13.33
1.0
4.0
-3.67
9.33
-5.67
7.0
2.0
17.67
12.67
3.0
4.0
7.0
7.67
-0.33
0.0
7.67
6.0
7.0
6.67
-0.33
1.67
8.33
1.33
2.0
0.67
7.67
-5.33
-2.67
-6.33
4.33
-2.0
1.33
1.33
1.33
7.67
0.0
1.33
2.0
-5.0
0.0
4.33
4.33
1.67
3.33
6.33
0.0
-5.67
-4.0
3.0
-2.33
-5.67
-3.0
-6.33
5.0
6.0
8.0
3.67
1.33
3.33
2.33
5.67
0.33
1.67
-2.67
1.67
5.67
4.67
1.0
4.33
10.33
1.67
2.33
2.0
-4.0
5.33
5.0
0.33
1.33
-0.33
8.33
2.33
5.33
3.0
1.33
-3.33
-2.33
2.0
1.33
1.33
3.33
8.33
5.33
1.0
-2.33
6.33
6.67
-7.0
0.0
-5.67
0.67
8.33
2.0
2.67
3.67
-2.67
1.67
-3.33
2.67
3.33
0.0
8.33
5.67
3.0
3.0
6.0
1.33
1.67
3.67
4.33
8.0
0.67
4.67
5.67
3.33
3.0
-0.67
1.67
-0.33
-2.33
2.67
6.33
-3.67
2.0
-0.67
-4.67
4.67
6.0
9.0
-0.67
1.0
2.33
0.33
4.33
-0.67
2.33
7.33
1.67
-2.33
2.67
-5.33
1.33
-0.67
-2.67
0.67
0.67