File: EDX Back Ups and Old Files/Spectra copy 3.3.23/Samples/Low pH SF 25C 9d/10.5.txt
0.0
-38.33
-61.33
57.33
-17.0
8.67
-78.33
-3.0
-22.0
-45.67
-22.67
11.33
16.67
-24.33
7.0
-13.0
6.67
-3.67
0.0
1.0
0.67
0.33
0.0
-0.33
0.67
0.0
2.0
-0.33
-1.0
1.0
-0.33
0.0
-0.33
0.67
0.0
-0.33
0.0
0.0
0.0
0.67
-1.0
-0.33
0.0
-0.67
0.67
-0.33
1.33
-0.33
-0.67
0.67
-1.67
-0.33
-0.33
-1.67
0.0
3.0
0.67
1.67
-2.33
-2.33
3.0
1.0
-1.67
-1.0
0.0
-0.33
0.67
-4.33
4.33
-1.67
6.67
-3.33
1.0
0.0
3.33
6.0
3.0
-1.33
1.0
1.67
-0.67
2.0
-0.33
-1.0
3.33
7.67
3.33
3.0
-5.33
-1.0
6.67
0.0
0.33
6.67
2.67
6.0
-3.0
3.33
-5.33
6.67
-5.0
2.0
6.67
6.0
9.33
5.33
-4.0
7.67
5.33
-0.33
3.67
3.0
-6.33
11.0
1.33
0.0
8.0
0.67
4.0
3.0
1.67
-3.33
-3.67
1.0
-3.67
3.33
-0.67
3.0
-5.67
-1.33
2.0
3.0
4.33
-1.0
4.67
-0.67
-0.33
-1.0
1.67
10.0
3.0
1.33
1.0
3.0
3.33
1.0
1.0
2.0
0.0
0.67
7.67
-0.67
-1.33
6.33
0.67
0.0
-2.0
1.0
-2.0
0.67
4.67
3.0
-1.67
0.33
-2.67
-1.0
2.67
7.33
0.33
6.33
-0.33
-0.33
2.33
-2.33
3.0
5.0
3.67
-1.67
1.0
-1.33
-1.67
10.0
-0.67
-2.67
-3.67
0.0
-1.67
5.0
0.0
8.67
0.0
2.33
2.67
0.67
-3.33
3.0
-3.67
1.33
2.67
0.33
-5.67
-3.0
10.33
-3.0
-1.67
5.67
2.0
2.33
0.0
-0.33
2.33
1.67
3.33
5.33
3.0
-1.0
3.33
2.0
6.0
1.33
-3.0
-3.67
3.33
-2.33
5.67
2.0
1.33
-0.67
4.33
0.0
1.0
-2.0
-3.0
0.33
-2.67
-3.33
-3.33
6.67
-3.33
1.67
-5.33
-4.33
2.0
1.0
1.33
2.33
1.33
-2.67
4.0
2.0
3.67
6.67
-1.67
-2.33
3.67
3.33
3.0
6.67
-0.67
1.0
5.67
-1.33
1.33
3.0
-2.33
2.0
-4.67
8.33
1.0
3.0
6.0
-0.67
-1.0
-2.0
1.0
-1.0
1.0
3.0
-0.67
-3.33
2.33
4.0
-0.33
-2.33
1.33
0.0
1.33
-1.0
-0.33
2.33
2.33
-2.33
6.0
-2.67
-0.33
0.67
7.0
-1.67
3.67
-2.67
1.33
0.67
0.0
-0.33
-3.67
5.33
-1.0
3.33
-1.0
3.67
-1.33
-3.33
4.33
0.67
4.33
-4.33
3.67
-1.33
0.67
-2.33
-4.33
-0.67
1.33
2.33
1.33
3.0
1.33
2.33
3.33
0.33
-2.33
-0.33
3.0
4.67
1.67
-3.67
-7.67
-3.67
4.0
1.33
-2.67
-1.0
-2.0
0.33
-0.33
0.0
1.0
-0.33
-1.33
1.33
-3.0
-1.67
0.67
-1.33
-2.0
-1.33
-0.67
6.0
0.33
-7.0
-2.0
-3.33
-6.0
-0.33
-1.67
3.67
-2.33
-3.33
1.67
-3.33
-1.0
0.33
-0.67
-4.33
0.0
4.0
3.0
-0.67
-7.33
10.33
1.33
-1.33
0.67
0.0
2.33
5.67
1.33
-2.33
4.33
-2.33
-3.0
-4.0
-4.0
2.33
1.33
-4.0
7.67
3.67
-2.0
-4.0
3.0
-2.67
-0.67
5.67
-2.67
3.67
-9.67
-7.67
-0.33
8.0
1.0
-1.0
-1.0
-2.33
-1.67
4.0
-0.67
7.67
1.67
-1.67
0.33
2.67
-1.0
6.0
5.0
0.67
-1.0
4.0
3.0
5.33
8.33
3.67
16.0
0.0
-1.67
0.67
-0.33
3.67
-4.0
3.67
7.33
0.0
2.0
2.33
1.67
3.67
-0.33
3.0
1.0
8.33
1.33
8.33
-1.67
-6.67
12.67
3.0
-4.0
8.67
1.33
7.33
7.0
8.33
14.0
33.33
45.67
50.67
68.33
91.67
102.33
87.67
102.0
89.33
75.33
77.67
76.0
74.33
44.33
41.33
33.67
24.33
16.67
12.33
2.67
6.0
-0.33
4.33
9.33
7.33
18.0
22.67
25.33
31.67
30.33
51.67
48.67
33.33
61.67
50.33
38.0
25.33
15.33
17.33
7.33
11.33
11.33
21.0
6.33
13.67
23.67
18.33
7.33
4.0
12.0
17.67
19.0
17.67
27.67
20.33
26.67
26.33
32.33
11.0
27.0
41.67
43.67
45.67
51.0
64.33
94.0
90.33
83.0
76.67
83.0
65.67
71.33
55.33
57.33
46.33
46.33
44.67
35.67
50.67
50.33
40.33
58.0
43.0
38.0
38.33
30.0
16.67
12.0
20.33
19.0
18.0
6.33
16.67
8.67
6.67
21.0
4.33
10.33
3.67
3.67
9.67
4.0
8.67
0.67
9.67
11.0
7.0
6.0
18.33
12.0
19.0
16.33
25.0
8.0
22.0
24.67
17.33
22.67
19.33
20.67
17.0
23.33
19.33
4.67
21.67
12.33
3.67
23.33
31.67
28.33
46.33
65.67
70.67
59.0
87.33
62.0
68.33
62.67
40.33
42.67
30.0
34.0
18.0
30.0
18.0
21.0
15.67
21.0
29.33
31.33
37.0
35.0
30.33
45.33
35.67
32.0
36.67
42.0
46.67
39.67
31.33
35.67
25.0
43.33
32.67
24.67
30.33
15.0
25.33
25.0
22.67
9.67
20.33
17.33
20.33
9.0
17.67
11.33
11.0
0.67
11.0
11.67
-0.67
11.0
16.33
15.0
9.33
13.67
19.33
18.33
13.67
13.67
17.0
21.0
35.33
20.67
22.33
21.33
34.67
24.0
35.0
30.0
35.67
35.33
31.67
47.67
27.33
27.33
19.67
17.0
40.0
21.33
13.33
18.33
30.67
29.33
22.0
18.33
18.67
23.33
26.0
10.33
17.33
6.67
27.0
12.67
2.33
8.33
25.67
24.67
-1.33
13.33
4.0
-4.33
1.33
5.33
13.67
16.0
-4.33
2.67
20.0
12.0
11.0
10.33
13.33
14.0
1.0
13.0
11.0
9.0
-0.33
16.67
4.33
7.67
9.67
11.0
3.67
14.0
-0.67
14.67
14.67
20.67
2.0
-2.0
10.33
11.67
11.0
-2.67
13.0
5.67
2.67
10.0
9.0
5.0
14.33
1.0
11.67
19.0
-1.0
1.0
5.67
5.33
0.0
17.0
14.0
6.33
16.67
15.0
-1.0
3.33
7.0
8.67
7.33
13.0
4.0
8.0
7.67
6.67
-7.67
5.0
13.33
9.0
8.33
1.0
4.0
5.0
11.33
15.0
-3.0
7.0
4.33
1.0
-1.67
21.33
7.33
0.33
8.0
15.33
12.0
12.0
28.0
7.0
6.67
8.33
13.0
14.67
16.33
12.67
16.67
-4.33
2.0
3.33
9.33
14.67
-6.33
0.67
6.0
-1.33
6.67
-1.33
3.67
2.0
1.67
6.67
10.0
-1.0
2.33
19.0
10.0
14.33
6.0
4.33
5.0
2.33
17.0
0.67
3.0
-2.0
0.0
-4.0
2.67
9.33
-3.67
23.0
11.67
0.0
-1.67
1.67
0.67
2.67
3.67
7.67
-1.67
-5.67
-4.33
-1.0
-10.33
-1.67
7.0
8.67
4.67
-1.33
5.0
2.33
14.33
9.0
-0.33
-1.33
6.33
14.0
2.67
-3.33
2.33
8.0
5.0
10.33
1.33
-1.0
-1.0
10.67
-0.67
3.0
3.0
1.67
3.33
7.0
11.33
4.0
9.0
7.33
5.33
-5.67
-1.0
1.0
0.67
7.67
4.0
8.0
-2.0
15.67
13.67
1.0
10.67
1.0
-6.0
7.67
1.67
6.67
5.33
5.33
11.0
14.67
1.67
-4.33
7.33
-1.33
2.33
7.0
0.33
4.33
5.33
12.67
13.0
5.33
-1.0
-2.0
5.0
-0.67
-3.67
2.67
-4.67
-1.67
-1.0
-5.67
-8.0
-2.0
3.67
3.33
7.0
0.67
5.0
5.0
5.0
5.67
4.33
7.33
7.33
5.67
2.33
-4.33
3.33
5.67
4.67
0.67
6.0
5.33
5.33
1.67
5.33
4.0
7.0
5.33
-1.0
4.33
0.33
-3.33
9.33
0.33
-3.67
3.0
2.33
-2.33
-0.33
1.0
-2.67
6.33
6.33
4.33
3.33
1.0
-3.33
-0.67
0.67
-4.0
-4.0
4.33
-1.33
0.33
1.0
-1.33
7.67
-3.67
-1.33
-1.33
5.67
7.33
10.0
4.33
4.67
2.0
1.0
2.0
3.33
2.67
-2.33
4.33
8.0
7.67
7.67
6.67
0.33
-1.0
-0.67
0.67
-5.33
3.67
-0.33
-0.67
-0.67
-1.0
-0.67
1.33
2.67
7.0
-2.0
6.33
0.0
-1.67
-0.67
-4.67
-0.67
1.33
3.33
3.67
2.67
-1.33
-1.33
1.33
-2.67
0.33
3.67
-2.33