File: EDX Back Ups and Old Files/Spectra copy 3.3.23/Samples/Low pH SF 25C 9d/11.0.txt
0.0
-16.33
-10.33
54.33
22.0
18.67
-46.33
-51.0
45.0
2.33
25.33
-20.67
20.67
-6.33
1.0
-5.0
-0.33
0.33
-2.0
-1.0
1.67
0.33
0.0
-0.33
0.67
0.0
0.0
-0.33
-1.0
0.0
-0.33
1.0
-0.33
-0.33
1.0
-0.33
0.0
0.0
1.0
0.67
0.0
-0.33
2.0
0.33
0.67
-0.33
-0.67
2.67
1.33
-0.33
0.33
1.67
-1.33
-0.67
1.0
0.0
1.67
0.67
-0.33
2.67
3.0
-2.0
0.33
1.0
-2.0
2.67
0.67
-0.33
4.33
6.33
-1.33
-5.33
9.0
-2.0
3.33
2.0
-3.0
-0.33
5.0
-2.33
-2.67
-1.0
9.67
-6.0
2.33
3.67
3.33
1.0
-1.33
2.0
-0.33
5.0
1.33
-1.33
1.67
9.0
0.0
-2.67
3.67
0.67
0.0
-3.0
3.67
3.0
6.33
0.33
2.0
10.67
-0.67
0.67
-1.33
7.0
0.67
7.0
1.33
0.0
1.0
-1.33
4.0
3.0
-1.33
0.67
-3.67
5.0
1.33
2.33
5.33
0.0
2.33
8.67
1.0
-2.0
-3.67
2.0
0.67
0.33
4.67
2.0
0.67
4.0
1.0
2.33
7.0
0.0
7.33
5.0
2.0
2.0
4.0
-0.33
4.67
0.33
-1.33
0.33
3.67
-1.0
1.0
1.0
-2.0
0.67
14.67
8.0
-4.67
2.33
-1.67
-2.0
1.67
-1.67
-3.67
3.33
1.67
-6.33
3.33
1.67
8.0
4.0
3.67
6.33
-4.0
-2.33
0.33
5.0
-3.67
0.33
1.33
2.0
1.33
8.0
5.0
2.67
3.0
1.33
1.67
-0.33
4.67
5.0
-2.67
0.33
0.67
3.33
-0.67
1.0
8.33
-2.0
4.33
3.67
-3.0
0.33
0.0
1.67
1.33
3.67
7.33
-4.67
1.0
2.0
2.33
-3.0
1.0
4.33
0.0
-1.67
4.33
2.67
-1.33
0.0
0.33
-1.67
-1.67
3.0
-2.0
7.0
-4.0
3.33
2.33
1.67
3.67
0.67
0.67
1.67
-4.33
1.67
2.0
2.0
2.33
1.33
4.33
-1.67
8.0
2.0
4.67
3.67
5.33
5.67
3.67
0.33
1.0
1.67
5.33
3.0
1.67
-0.33
-1.67
1.0
-1.33
5.0
2.33
2.33
1.0
-2.0
3.0
3.33
1.0
0.0
2.0
-1.0
2.0
-1.0
-0.67
-0.33
-0.67
2.0
-1.33
1.67
4.33
2.0
5.33
-3.0
4.67
2.33
-1.67
1.67
2.0
-5.67
-0.33
-1.33
4.0
5.33
-1.33
-0.67
-3.67
-0.33
0.0
-2.33
0.33
-0.67
-1.0
1.33
3.0
2.67
0.67
-0.33
-1.67
2.67
0.33
-0.33
-0.33
-4.33
1.67
-5.33
-1.33
-2.67
-2.67
-1.67
2.33
0.0
0.33
-2.67
-0.67
0.33
-4.33
2.67
5.0
-1.33
-0.33
-0.67
-0.67
-6.67
-4.0
0.33
-2.67
-1.0
0.0
-6.67
-2.33
0.0
-1.0
1.67
0.67
5.33
-1.0
2.33
0.67
-1.33
1.0
-0.33
1.33
0.0
-0.67
-5.0
1.0
-2.33
1.0
1.67
-2.67
-5.33
1.67
2.67
-0.33
3.67
-3.0
-1.67
1.33
-4.33
-3.0
-2.0
1.0
-1.67
5.67
0.33
-5.67
-2.33
-7.33
0.0
-2.67
-5.33
2.33
-0.33
-2.67
7.67
1.0
-7.0
-1.0
-3.67
8.33
-2.0
6.67
2.67
-1.0
6.0
1.0
4.33
-0.67
1.67
0.33
-1.33
-7.67
-7.67
5.67
4.0
1.0
-1.0
7.0
-4.33
5.33
4.0
2.33
-2.33
5.67
-1.67
5.33
5.67
-1.0
1.0
-1.0
9.67
1.0
-1.0
5.0
3.33
7.33
-0.33
11.0
-1.0
1.33
-0.33
6.67
-1.33
4.0
5.67
13.33
-1.0
9.0
2.33
5.67
6.67
0.67
5.0
8.0
20.33
8.33
7.33
1.33
7.33
7.67
1.0
9.0
1.67
10.33
10.33
16.0
3.33
11.0
26.33
24.67
30.67
70.33
54.67
67.33
63.67
77.0
55.33
51.33
48.67
33.0
20.33
20.33
14.33
10.67
2.33
2.67
7.33
11.67
20.0
6.67
13.33
12.33
20.33
14.0
30.67
31.33
33.67
33.33
40.67
39.67
40.33
36.67
32.33
21.0
24.33
20.33
11.33
14.33
6.33
6.33
7.0
12.33
10.67
2.67
24.33
7.33
1.0
9.0
20.67
15.0
15.67
14.67
17.33
36.67
19.33
24.33
14.0
15.0
18.67
41.67
34.67
49.0
54.33
63.0
87.33
113.0
106.67
100.0
91.67
84.33
52.33
40.33
36.33
36.33
36.67
13.67
22.67
18.33
18.33
32.0
11.0
23.0
26.33
23.0
16.67
8.0
28.33
10.0
17.0
-0.67
5.67
7.67
10.67
8.0
10.33
8.33
8.67
14.67
6.67
2.0
11.67
8.67
3.67
15.0
17.0
14.0
30.33
10.0
20.0
24.33
17.0
26.0
23.0
14.67
33.33
27.67
13.33
12.67
11.0
20.33
19.33
6.67
12.67
34.33
46.67
73.33
80.67
129.33
172.33
229.67
317.67
330.0
372.33
378.0
300.33
258.67
186.33
131.67
109.0
71.0
30.0
37.0
19.0
16.0
15.67
11.0
13.33
27.33
23.0
23.0
32.33
38.33
46.67
43.0
41.67
51.0
47.67
56.67
53.33
46.67
45.0
57.33
31.67
30.67
47.33
28.0
27.33
24.0
27.67
24.67
20.33
17.33
32.33
15.0
11.67
5.33
13.0
20.67
10.0
11.67
10.33
19.0
13.33
10.0
14.33
25.67
17.33
27.33
18.67
21.67
39.0
31.0
39.33
50.67
50.33
32.33
59.67
51.0
44.0
35.0
43.67
38.33
37.67
32.67
42.33
15.33
32.67
35.0
40.0
29.33
18.33
34.33
29.67
16.33
26.0
30.33
28.67
43.33
31.0
26.33
11.33
16.67
23.0
10.67
20.33
10.33
14.67
11.67
9.67
12.33
3.0
6.67
-2.67
7.33
18.67
13.0
5.67
10.67
11.0
11.0
7.0
6.33
20.33
0.0
5.0
7.0
2.0
5.0
1.67
14.67
6.33
0.67
18.67
11.0
8.67
11.0
13.33
11.67
11.67
4.67
6.0
6.0
4.33
9.67
17.0
2.33
8.0
8.67
7.67
2.0
2.0
10.0
16.33
4.0
5.67
5.0
-4.0
0.0
14.67
-2.67
9.0
5.0
-5.0
-7.67
11.67
10.0
5.0
10.33
1.0
10.67
1.33
8.0
17.0
10.0
6.67
-1.33
-2.67
11.0
3.33
-2.0
5.33
9.0
6.0
2.0
2.33
9.0
16.0
9.0
2.33
-1.0
7.33
20.33
14.33
7.33
2.0
19.33
15.0
5.0
11.0
7.0
11.67
16.33
19.0
5.67
9.33
23.67
3.67
6.67
14.0
5.33
11.33
13.67
15.67
3.67
7.0
7.67
7.67
4.67
1.67
2.0
3.67
20.67
-5.0
-1.0
4.33
17.0
1.0
14.33
11.0
4.33
13.0
3.33
12.0
8.67
0.0
9.0
-5.0
-3.0
3.67
8.33
1.33
4.0
3.67
2.0
4.33
-1.33
11.67
13.67
3.67
2.67
3.33
-0.67
0.67
3.0
0.67
5.33
3.0
8.67
5.67
5.67
-6.0
5.33
11.33
5.0
1.67
-5.33
5.33
2.0
4.67
-0.33
11.33
-4.0
2.0
-2.67
-3.67
8.0
1.0
6.67
8.33
11.0
3.0
5.67
6.33
14.0
13.33
18.0
3.0
5.33
7.33
3.33
10.0
-9.0
-2.33
4.67
12.0
-3.0
-2.0
10.67
0.67
14.0
7.67
8.0
2.0
7.67
6.67
8.67
1.33
0.33
1.0
7.67
7.67
0.67
13.33
7.67
3.33
8.0
5.33
-1.67
-1.67
5.67
11.0
-1.67
6.0
3.0
11.0
-5.67
6.33
-3.33
-3.67
5.33
4.0
-0.67
4.0
3.0
7.67
-4.67
-3.0
-6.33
-3.0
4.0
2.0
-2.33
-4.67
7.33
4.33
4.67
7.33
-1.33
3.33
-1.33
-1.33
-2.33
0.0
3.33
1.33
-0.33
-7.67
2.0
-2.0
11.33
13.0
5.33
-1.67
2.67
4.33
-0.67
7.33
-3.0
5.33
7.67
-6.33
6.0
5.33
5.33
4.33
-2.67
2.33
1.0
5.67
-7.67
0.67
0.0
-1.0
-1.67
-5.33
2.33
0.0
2.67
2.67
5.33
-1.33
-5.33
1.67
2.33
4.0
3.33
5.67
1.0
0.0
0.0
-0.67
-2.33
4.67
-2.67
8.0
-1.33
2.67
9.67
2.33
0.0
3.33
4.67
-2.33
-0.33
7.67
-1.67
5.33
0.0
1.33
6.33
-1.33
7.0
6.0
1.33
4.0
2.33
0.33
0.33
4.33
6.33
4.33
1.67
-3.33
-1.33
-1.33
-4.67
-4.67
-0.67
1.67
1.67