File: EDX Back Ups and Old Files/Spectra copy 3.3.23/Samples/Low pH SF 25C 9d/11.25.txt
0.0
-40.33
-16.33
35.33
-60.0
-49.33
-46.33
-58.0
-18.0
-10.67
-16.67
18.33
-4.33
-9.33
1.0
-8.0
8.67
1.33
2.0
1.0
-1.33
0.33
1.0
0.67
-0.33
0.0
0.0
0.67
-1.0
0.0
-0.33
0.0
-0.33
-0.33
1.0
-0.33
1.0
0.0
0.0
0.67
-1.0
0.67
0.0
1.33
-0.33
0.67
1.33
1.67
-0.67
1.67
-0.67
-0.33
-0.33
2.33
1.0
-2.0
0.67
0.67
1.67
0.67
0.0
3.0
-2.67
0.0
-2.0
-2.33
1.67
5.67
0.33
0.33
-5.33
-2.33
4.0
-2.0
1.33
2.0
-1.0
1.67
0.0
7.67
6.33
0.0
0.67
-2.0
3.33
5.67
-0.67
1.0
-1.33
1.0
11.67
-2.0
-0.67
8.67
2.67
-2.0
0.0
1.33
5.67
3.67
-4.0
1.0
-2.33
0.0
8.33
-0.67
-3.0
5.67
8.33
-0.33
1.67
6.0
-0.33
2.0
-0.67
2.0
2.0
5.67
4.0
6.0
0.67
1.67
2.33
2.0
1.33
4.33
5.33
-1.0
-3.67
-4.33
-2.0
-6.0
5.33
-2.0
1.67
-1.67
9.67
-5.0
-0.33
4.0
7.0
4.33
5.0
6.0
4.33
5.0
-1.0
5.0
5.0
-3.33
4.67
-3.67
3.67
0.33
-1.33
5.0
5.0
-3.0
-3.0
4.67
4.67
-2.0
2.33
-1.67
-2.67
4.0
-0.33
4.33
-2.67
4.33
-2.33
-1.33
6.33
4.67
3.0
3.0
2.67
1.33
3.0
1.67
2.33
0.0
3.33
-3.67
-5.67
-1.0
0.33
3.0
6.0
5.67
-5.0
0.33
-4.33
1.67
-2.33
2.0
0.33
4.33
6.67
1.33
-0.67
0.0
-0.67
-2.0
1.33
2.67
-3.0
-0.67
6.0
2.67
-4.67
-3.33
0.33
0.33
6.0
-2.0
-2.67
3.0
0.0
0.33
2.0
0.33
-2.67
-1.33
1.67
-3.0
-2.67
4.33
1.33
0.0
5.0
5.0
2.0
-2.67
-1.67
-1.33
2.67
-3.33
-1.33
-0.33
-3.33
1.67
-2.0
-4.0
1.33
4.33
-3.67
-1.67
-1.0
-2.0
1.67
5.67
-0.67
1.67
10.67
-4.67
4.0
4.67
0.33
1.0
2.67
-4.33
0.33
6.0
1.67
0.0
-3.67
1.33
-1.0
0.0
2.0
2.33
0.0
-1.0
-4.0
2.0
0.0
3.0
1.33
-0.33
0.33
3.0
-2.33
0.67
-0.67
1.0
4.33
1.0
4.67
-2.67
-0.67
-0.33
1.0
-1.67
4.67
-1.33
1.0
1.33
3.67
-2.67
-1.67
2.67
0.0
1.67
0.33
4.33
2.0
-3.67
1.0
3.67
-2.33
-2.33
4.33
5.67
3.33
-0.33
0.67
-3.33
1.67
-0.33
-0.33
-1.67
1.33
-0.67
2.33
5.0
-0.67
-0.67
1.33
-1.67
-0.33
2.67
0.0
0.67
3.67
4.33
-4.67
-6.67
1.0
2.33
3.33
0.0
2.0
0.33
-2.33
-2.0
1.0
-0.33
2.67
-4.67
-1.0
6.33
1.67
-0.33
11.0
-2.33
2.33
1.0
1.33
-6.0
0.0
-1.33
-1.0
-0.33
-3.67
0.67
-0.33
-0.33
-0.33
1.67
4.0
-0.67
-4.67
4.67
0.0
-1.0
-2.0
-2.67
-0.33
-2.67
-6.67
-2.33
-2.33
1.0
0.33
0.67
2.33
-3.33
-0.67
0.67
0.0
1.0
-3.0
-2.67
1.33
-1.0
13.67
5.67
7.0
8.0
3.0
-1.67
-1.67
2.67
-2.67
0.67
-3.67
-0.67
4.67
1.0
5.0
7.0
-4.0
0.67
4.33
5.0
3.33
0.67
4.67
-6.67
2.33
-2.33
8.0
3.0
-5.0
2.67
1.0
8.0
6.0
5.33
5.33
7.67
7.0
-2.0
7.33
-2.33
11.67
7.67
7.0
-4.33
4.33
7.0
10.0
5.33
6.67
5.67
1.67
-1.0
9.0
6.33
3.33
5.33
16.33
-1.67
2.67
4.0
-3.0
14.67
10.33
-0.67
6.0
-1.67
7.0
20.33
19.67
44.67
54.33
59.67
59.33
65.67
56.0
43.33
27.33
32.67
18.0
4.33
11.33
9.33
4.67
7.33
3.67
9.33
14.67
11.0
7.67
14.33
8.33
9.33
9.0
15.67
23.33
27.67
17.33
21.67
20.67
16.33
18.67
35.33
12.0
12.33
7.33
13.33
14.33
9.33
7.33
24.0
13.33
14.67
15.67
9.33
3.33
11.0
16.0
11.67
12.0
9.67
14.67
4.33
22.67
24.33
30.33
29.0
7.0
18.67
25.67
33.67
39.0
47.33
66.0
79.33
73.0
70.67
63.0
47.67
63.33
61.33
42.33
26.33
35.33
27.67
15.67
12.67
23.33
26.33
22.0
19.0
14.0
21.33
17.0
19.67
18.0
17.33
10.0
11.0
10.33
5.67
6.67
12.67
13.0
7.33
10.33
5.67
11.67
8.67
15.0
7.67
7.67
19.67
13.0
18.0
23.0
17.33
23.0
13.0
12.33
10.0
9.0
20.0
18.67
23.33
22.67
15.33
16.67
10.0
17.33
4.33
14.67
25.67
33.33
23.67
73.33
119.67
120.33
209.33
256.67
271.67
344.0
303.33
239.0
208.33
199.67
126.33
98.67
76.0
76.0
49.0
30.0
21.0
29.0
24.67
21.0
7.33
23.33
35.0
26.0
39.33
40.33
53.67
61.0
61.67
55.0
46.67
53.67
66.33
56.67
53.0
61.33
51.67
47.67
36.33
36.0
40.33
42.0
41.67
13.67
19.33
19.33
10.33
17.0
18.67
19.33
5.0
1.67
7.0
9.67
5.33
6.0
21.33
10.0
26.33
11.67
25.33
14.33
14.67
23.67
24.0
27.0
25.33
23.67
37.33
25.33
38.67
47.0
33.0
26.0
17.67
34.33
15.67
35.67
20.33
27.33
22.67
19.0
29.0
12.33
16.33
16.33
19.67
19.33
13.0
33.33
27.67
48.33
35.0
36.33
22.33
20.67
10.0
26.67
22.33
7.33
2.67
11.67
6.67
3.33
5.0
19.67
8.33
9.33
10.67
9.0
12.67
7.67
18.0
-1.0
8.0
8.33
4.33
2.0
10.0
14.0
0.0
-1.0
8.67
5.67
12.33
11.67
15.67
21.0
8.67
8.0
0.33
12.67
6.67
20.67
9.0
10.0
8.33
21.67
17.0
16.33
16.0
12.67
10.67
23.0
4.0
8.0
12.33
3.0
10.67
13.0
11.0
-9.0
13.67
15.33
3.0
21.0
0.0
9.33
-0.33
6.0
8.0
1.33
4.0
7.67
7.33
7.0
4.0
-1.0
17.67
5.67
-0.67
10.0
7.33
13.0
6.33
1.0
12.0
10.0
14.33
3.0
8.0
10.0
4.33
5.0
10.33
10.33
6.33
6.33
18.0
17.33
2.0
19.0
25.0
6.0
13.67
15.33
18.0
12.67
17.33
21.67
5.67
5.67
11.0
-1.67
12.33
5.67
4.67
8.67
14.0
9.67
18.67
4.67
-2.33
-3.0
3.67
5.67
0.0
3.0
5.33
9.0
-9.0
8.33
2.0
-3.67
3.0
9.33
9.0
8.67
1.0
-3.0
7.0
-6.0
2.67
3.33
-3.67
13.0
4.67
-3.0
2.33
4.67
4.67
5.67
5.67
-1.33
3.33
9.33
-3.33
5.0
1.67
4.33
7.0
5.67
-2.33
3.67
14.0
5.33
13.33
17.0
-6.33
-6.33
-0.67
5.0
3.67
4.67
-4.67
4.0
6.0
-0.67
-2.67
1.0
1.0
2.67
8.33
5.0
-2.0
-2.33
3.33
11.0
2.33
-1.0
3.0
7.33
1.33
-5.67
1.0
-1.0
1.67
-4.33
14.0
3.0
2.0
4.67
3.67
8.0
3.67
3.0
-3.0
-6.33
6.67
-4.33
9.33
5.33
-2.0
4.67
9.67
-5.33
2.33
-3.33
3.33
1.0
1.33
4.33
0.33
10.67
5.0
1.33
-3.0
2.0
11.0
9.33
7.33
2.67
-0.67
7.33
4.0
-7.67
-4.0
9.0
0.67
4.33
-2.0
5.67
11.0
4.0
7.0
11.67
5.33
7.33
3.33
-0.33
4.33
4.67
6.33
2.67
4.67
-1.33
-1.0
5.33
1.33
5.67
4.33
2.0
-1.0
-0.67
2.0
-2.67
4.33
5.67
7.33
6.33
5.33
0.0
0.33
3.67
2.67
-4.0
-7.67
1.33
3.33
0.33
2.33
-4.0
1.67
-0.67
1.67
1.0
3.0
2.33
-5.33
0.33
0.0
-3.33
1.67
5.33
-6.33
-3.33
-0.33
3.33
6.0
7.33
8.67
-1.0
4.0
5.0
0.33
2.67
2.67
6.33
2.0
-0.33
-1.33
4.67
1.33
-4.0
0.33
4.67
-4.33
-0.33
1.67
0.33
3.33
1.0
4.33
3.33
3.67
2.0
1.0
-0.67
-3.0
1.33
0.33
1.33
1.33
0.33
5.33
-0.33
-1.33
-2.33
-3.33
-3.67
-4.67
-1.67
8.67
-3.33