File: EDX Back Ups and Old Files/Spectra copy 3.3.23/Samples/Low pH SF 25C 9d/11.5.txt
0.0
-35.33
-74.33
57.33
-56.0
-71.33
-81.33
-21.0
-58.0
5.33
-2.67
24.33
-5.33
-4.33
-2.0
-3.0
-0.33
-6.67
1.0
0.0
-0.33
0.33
0.0
-0.33
0.67
1.0
0.0
-0.33
-1.0
0.0
-0.33
1.0
-0.33
-0.33
0.0
-0.33
0.0
1.0
0.0
-0.33
-1.0
-0.33
0.0
0.33
0.67
-0.33
-0.67
-0.33
2.33
-0.33
-1.67
-1.33
-0.33
0.33
2.0
1.0
-0.33
5.67
2.67
2.67
8.0
1.0
-1.67
0.0
3.0
0.67
-1.33
2.67
1.33
-2.67
-0.33
-7.33
1.0
-5.0
-0.67
3.0
-5.0
-0.33
5.0
-0.33
-3.67
-6.0
-2.33
-5.0
1.33
4.67
7.33
-1.0
-2.33
-3.0
1.67
-1.0
0.33
1.67
2.67
1.0
0.0
1.33
-1.33
-6.33
3.0
7.0
-1.33
1.0
4.33
1.33
-3.0
6.67
0.33
7.67
0.67
7.0
4.67
1.0
4.33
-4.0
9.0
2.67
4.0
3.0
8.67
2.67
-0.67
9.0
10.33
-2.67
4.33
-1.0
-7.67
2.67
-4.0
-3.0
-1.67
1.0
-0.33
1.33
4.67
2.0
-1.33
3.0
3.0
7.33
1.0
1.0
3.33
-3.0
8.0
-4.0
5.0
2.67
6.67
-4.67
3.67
2.33
2.67
2.0
5.0
2.0
1.0
-0.33
3.67
-2.0
0.33
0.33
1.33
1.0
-1.33
-2.67
2.33
-0.67
-1.33
-5.33
4.33
-1.33
2.0
6.0
-1.33
-1.67
-1.0
1.67
-3.67
3.0
-2.67
-3.67
1.33
-6.0
3.33
4.0
6.0
4.67
7.0
7.33
10.67
-3.33
-3.33
4.0
-0.67
4.33
4.67
2.33
0.33
-1.0
1.33
-2.0
0.33
2.67
5.0
2.33
3.0
3.67
-0.67
0.67
5.33
-3.67
2.0
2.0
1.33
1.0
2.0
3.33
0.0
2.33
3.33
1.67
-3.33
3.0
0.33
-0.67
1.33
2.0
1.0
3.0
-2.0
2.33
-1.67
1.67
3.67
-3.33
0.67
1.67
-3.33
-2.33
0.0
1.0
-1.67
0.33
0.33
0.33
-4.0
7.0
7.67
1.67
-2.67
0.67
-0.33
5.33
4.0
2.67
-1.67
-2.0
-0.33
0.67
3.33
2.0
0.67
-2.0
-0.67
3.33
2.0
0.0
2.0
5.33
-2.0
2.0
-3.0
-2.0
1.0
-1.0
1.33
-3.33
2.33
1.0
-0.33
0.67
-0.67
1.0
3.33
1.0
2.67
-0.67
1.33
-1.33
3.0
1.33
3.67
0.67
7.0
0.33
0.67
-3.67
2.33
-2.33
3.0
1.67
2.33
0.33
-2.0
0.33
-3.0
-0.33
1.67
-1.33
8.33
4.67
-0.67
1.67
4.67
0.67
1.67
2.67
-2.33
2.33
-3.67
-0.67
2.33
0.0
0.33
1.33
-0.67
1.33
-2.33
2.67
1.0
-1.33
2.67
-2.67
-3.67
-0.67
-2.0
4.33
-3.67
-1.0
-4.0
-4.67
2.67
-2.0
4.0
-2.33
4.67
-1.67
3.0
-0.67
-3.33
-5.33
5.0
-4.33
-0.67
0.0
-4.67
-4.0
0.0
-6.33
-3.0
2.67
0.33
-6.33
-4.33
-2.33
-0.33
-2.33
-6.0
2.33
1.33
1.67
6.0
5.0
-7.0
-1.67
6.67
-0.67
-6.67
2.67
-5.33
0.0
1.33
3.67
-3.67
-6.33
0.33
-2.33
-4.0
-7.0
2.0
-0.67
5.33
-3.0
5.67
4.67
-2.0
-3.0
4.0
0.33
7.33
1.67
-0.67
2.67
-6.67
-1.67
4.67
4.0
2.0
13.0
-2.0
2.67
1.33
-1.0
1.33
-2.33
1.67
-2.67
1.33
1.67
2.0
0.0
2.0
5.67
-3.0
0.0
3.0
-2.67
-2.67
5.67
-1.0
-5.0
-3.67
-3.33
6.67
3.67
-2.0
-2.33
5.33
-2.0
3.0
7.33
2.67
8.67
8.67
5.0
17.0
2.33
5.33
9.33
2.33
3.33
1.67
-3.0
0.0
9.67
13.33
2.33
4.0
7.33
10.0
12.33
14.67
27.67
23.33
34.67
36.33
38.67
32.0
23.33
48.33
28.67
34.0
39.33
47.33
27.33
18.67
19.33
15.67
11.33
14.67
10.0
9.67
12.33
3.33
12.33
9.0
16.67
16.33
28.67
15.33
33.67
31.67
29.33
33.67
18.33
6.0
20.33
7.33
14.33
6.33
1.33
5.33
11.0
7.33
7.67
18.67
1.33
11.33
8.0
11.0
15.67
12.0
10.67
9.67
5.33
16.67
15.33
22.33
20.0
18.0
26.67
23.67
33.67
36.0
34.33
19.0
26.33
31.0
25.67
21.0
28.67
23.33
12.33
27.33
10.33
33.33
18.67
12.67
20.67
15.33
9.33
14.0
26.0
22.0
30.33
21.0
11.67
12.0
5.33
14.0
10.0
8.33
9.67
4.67
-0.33
9.0
10.33
3.33
1.67
10.67
-3.33
10.0
6.67
6.67
7.67
9.0
9.0
10.0
15.33
6.0
20.0
8.33
19.0
9.0
28.0
16.67
19.33
10.67
-0.67
14.67
9.0
15.33
20.33
10.67
23.67
26.33
31.67
29.33
51.67
67.33
66.33
60.67
88.67
65.0
100.33
85.0
61.33
59.67
64.33
37.67
41.0
36.0
19.0
33.0
14.0
18.0
12.67
12.0
13.33
13.33
36.0
14.0
19.33
33.33
34.67
44.0
49.67
48.0
70.67
82.67
84.33
71.67
68.0
83.33
66.67
51.67
45.33
28.0
40.33
30.0
28.67
47.67
18.33
22.33
18.33
21.0
23.67
13.33
12.0
8.67
0.0
7.67
7.33
14.0
10.33
15.0
4.33
12.67
10.33
24.33
6.67
15.67
19.0
18.0
25.33
14.67
19.33
24.33
29.67
19.0
25.0
48.0
16.67
28.33
14.67
20.67
27.33
24.33
17.67
7.0
27.0
5.33
10.33
19.33
19.67
16.33
29.0
27.33
43.67
46.33
28.0
26.33
26.33
20.67
19.0
25.67
5.33
4.33
11.67
8.67
4.67
18.33
5.0
-3.33
12.33
15.33
11.67
17.0
10.67
19.67
23.0
-2.0
11.0
11.33
5.33
5.0
-2.0
1.0
7.0
-3.0
4.67
19.67
12.33
0.67
7.67
17.0
6.67
4.0
6.33
3.67
11.67
9.67
3.0
1.0
18.33
12.67
18.0
5.33
12.0
3.67
-2.33
16.0
-5.0
8.0
1.33
12.0
-4.33
1.0
1.0
3.0
6.67
6.33
12.0
-1.0
-1.0
12.33
9.67
-1.0
9.0
3.33
4.0
9.67
5.33
-1.0
9.0
10.0
1.67
14.67
8.33
12.0
19.33
2.0
-1.67
3.0
22.0
4.0
4.33
16.0
10.0
4.0
-3.67
19.0
15.33
14.33
-13.67
13.33
7.0
6.33
11.0
5.0
16.0
-6.0
13.67
0.33
5.0
2.67
8.33
6.67
3.67
3.67
11.0
6.33
16.33
10.67
9.67
11.67
19.0
-2.33
7.67
1.67
-2.33
-5.0
14.67
14.67
-3.0
6.0
-2.67
10.0
4.0
-2.67
5.0
-2.67
13.0
2.33
16.0
0.67
-4.0
4.0
3.0
11.0
0.67
10.33
-6.67
3.0
8.67
2.0
1.33
-0.33
-1.33
1.67
7.67
6.67
2.33
5.33
-4.33
19.0
-3.33
-3.67
-4.0
4.67
3.67
6.67
-1.0
4.33
12.33
10.0
-3.33
-0.33
1.33
18.0
-0.33
-7.33
-4.67
2.0
5.0
5.33
-2.67
1.0
2.0
-2.33
5.33
3.0
5.0
-2.33
6.33
12.0
5.33
7.0
9.0
3.33
10.33
-3.67
-4.0
-2.0
1.67
9.67
4.0
7.0
-1.0
4.67
-0.33
-1.0
3.67
6.0
8.0
6.67
4.67
9.67
6.33
2.33
8.0
5.67
9.67
-4.33
4.33
8.67
7.33
6.0
-0.67
-0.67
6.33
-2.33
3.0
-0.67
-7.0
5.0
4.0
4.33
-2.67
-5.33
-3.67
1.33
-3.0
-6.67
1.0
4.0
-5.33
2.33
10.0
-8.33
2.0
1.0
1.0
-1.33
4.33
6.33
3.33
-1.33
4.33
-1.33
-4.67
-2.33
-1.33
1.67
7.0
12.33
4.33
6.67
1.33
9.0
1.0
3.33
16.0
2.33
5.33
3.67
8.33
0.33
0.33
0.0
-1.67
0.67
0.67
-1.0
-0.67
0.33
3.33
-0.67
8.33
-2.0
-1.33
-4.67
1.67
-4.0
-3.0
-2.67
-6.33
4.33
4.0
-2.33
1.67
3.33
-0.33
4.67
-3.33
6.33
13.0
2.33
6.67
2.0
3.0
7.0
-0.67
-3.33
3.67
11.33
1.0
2.67
3.67
6.67
-0.67
0.0
1.33
-3.33
0.67
0.67
0.67
-1.67
1.33
1.0
0.33
6.33
0.67
6.0
-2.0
-0.67
4.0
2.33
0.33
2.33
2.33
2.33
-0.67
0.67
1.67
-1.33
-0.33
7.33
0.33
-0.67
3.67
-0.33