File: EDX Back Ups and Old Files/Spectra copy 3.3.23/Samples/Low pH SF 25C 9d/6.25.txt
0.0
-105.33
-133.33
-18.67
-16.0
57.67
23.67
-60.0
-63.0
21.33
-2.67
7.33
19.67
-10.33
-7.0
-9.0
0.67
-2.67
3.0
0.0
1.67
-0.67
1.0
-0.33
-0.33
1.0
2.0
-0.33
-1.0
0.0
-0.33
1.0
-0.33
-0.33
0.0
-0.33
0.0
3.0
0.0
-0.33
0.0
0.67
2.0
1.33
0.67
0.67
-0.67
0.67
1.33
1.67
-0.67
0.67
1.67
-1.67
0.0
5.0
-0.33
0.67
1.67
0.67
0.0
3.0
2.33
3.0
6.0
0.67
0.67
0.67
1.33
4.33
6.67
-9.33
-2.0
1.0
4.33
5.0
-4.0
6.67
2.0
1.67
0.33
-1.0
8.67
2.0
7.33
5.67
9.33
0.0
1.67
4.0
10.67
-2.0
3.33
2.67
15.67
8.0
5.0
4.33
-1.33
4.67
1.0
3.0
0.67
3.0
10.33
1.33
-1.0
7.67
5.33
8.67
0.67
5.0
2.67
3.0
-3.67
1.0
4.0
-2.33
6.0
3.0
2.67
6.67
-1.67
11.0
7.33
8.33
16.33
4.0
1.33
-1.33
8.0
4.0
-0.67
8.0
2.67
7.33
10.67
4.0
-1.33
1.0
6.0
7.33
0.0
5.0
3.33
1.0
7.0
4.0
1.0
-3.33
10.67
3.33
2.67
5.33
4.67
0.0
-4.0
2.0
3.0
1.67
0.67
5.0
2.33
2.33
3.33
-1.0
2.67
9.33
5.33
5.33
3.67
-2.33
6.33
-1.33
3.0
5.0
0.67
3.33
6.0
0.67
0.33
7.0
-0.67
-3.67
1.33
4.0
1.33
1.0
2.0
4.67
0.0
-1.67
5.67
-1.33
3.67
-1.0
1.33
0.33
-1.33
7.33
5.33
1.0
3.33
-1.0
4.33
-0.33
7.0
-0.67
0.0
-0.33
-0.67
2.67
2.33
5.33
5.0
2.0
4.33
-1.0
-4.0
1.33
1.0
5.33
-2.67
1.67
-1.33
0.0
-0.67
0.33
1.33
3.0
2.0
6.0
-1.0
0.33
-1.67
1.67
4.67
-2.33
2.67
-1.33
-3.33
5.67
10.0
4.0
0.33
5.33
2.33
-3.67
0.0
5.0
2.67
4.67
-0.67
-1.33
1.67
1.33
5.0
0.67
0.33
6.0
6.67
-1.33
4.33
4.0
-1.33
9.0
0.33
2.33
4.0
2.0
3.0
0.33
0.0
6.0
-4.0
-1.0
2.0
0.0
1.33
2.67
-2.67
5.0
3.67
0.67
1.33
1.0
4.33
1.0
-0.33
3.33
-1.67
4.67
1.0
-1.67
5.67
-0.33
5.0
4.33
2.67
3.33
-0.67
5.67
9.0
-1.33
-1.67
4.33
1.0
3.33
-2.0
2.67
1.67
-1.33
1.33
3.67
0.33
0.67
4.67
3.67
-3.33
-0.33
2.67
4.33
0.33
1.33
1.33
6.0
4.33
0.33
1.33
1.33
-0.33
1.67
2.0
-1.33
3.67
1.33
-0.67
-4.67
-6.0
-0.67
-3.67
-2.0
1.0
0.33
-1.33
2.0
3.0
-2.33
0.67
1.33
0.0
-0.67
3.67
-2.33
6.0
-3.33
2.33
-2.0
0.33
-6.0
-3.0
0.67
-2.0
0.67
-3.67
-7.33
1.67
-6.33
0.67
1.67
-1.0
-2.67
-3.67
-7.33
2.0
0.0
1.0
-0.67
-3.33
5.33
1.33
-0.33
-3.33
1.0
-6.67
-0.33
-3.67
3.67
0.33
-4.33
-3.0
-6.0
-1.0
1.33
-1.67
-3.0
0.67
-0.33
5.0
3.0
3.0
1.33
5.33
2.67
0.33
-7.33
3.33
1.33
9.67
0.0
3.0
2.0
7.0
-7.33
8.33
1.0
0.33
1.67
-1.33
-0.67
-1.67
-2.33
-1.0
1.0
0.0
2.67
-2.0
-6.0
7.0
-0.67
-1.67
0.67
1.0
-10.0
-5.67
-9.33
-2.33
2.67
-1.0
8.67
1.33
-4.0
-1.0
0.33
0.67
-3.33
-3.33
5.0
3.0
5.33
-2.67
0.33
3.33
-6.67
5.67
-1.0
-12.0
-1.33
2.33
-0.67
2.0
0.33
6.0
15.33
11.67
3.67
7.33
9.67
12.33
14.67
15.0
6.33
20.33
13.67
7.0
14.33
0.33
0.33
-2.33
6.33
6.67
-0.67
5.67
11.0
6.67
5.33
22.33
33.33
34.0
38.67
66.33
60.67
49.33
48.67
35.67
32.33
21.67
19.33
11.0
12.33
2.33
8.33
3.33
13.33
11.33
17.0
15.33
14.67
20.67
25.33
11.33
8.0
23.0
2.67
8.0
8.67
5.67
-3.67
12.67
8.33
8.33
3.0
0.0
9.67
10.67
22.67
12.0
15.33
5.0
12.33
28.0
11.67
10.0
24.67
20.33
9.33
22.33
6.33
5.33
10.67
7.67
7.67
2.33
7.33
10.0
23.0
21.0
12.33
25.0
20.67
14.0
23.33
22.0
4.0
1.33
4.67
6.67
5.67
13.0
11.33
0.33
1.67
16.67
3.67
11.0
9.67
10.67
18.67
15.0
11.0
12.0
12.33
15.0
28.0
16.33
12.0
18.0
15.0
11.67
9.33
16.67
4.33
14.67
11.0
15.33
18.33
9.67
41.67
24.33
38.67
43.33
61.67
69.33
82.33
97.67
97.67
102.0
102.33
94.0
55.33
64.67
47.33
36.67
26.0
20.0
29.0
27.0
8.0
26.0
17.67
2.0
21.33
10.33
14.0
15.0
16.33
32.33
17.67
20.0
15.67
32.0
26.67
39.67
44.33
31.67
45.0
56.33
45.67
23.67
20.33
23.0
16.33
15.0
22.67
12.67
12.33
8.33
4.33
14.0
17.67
3.33
14.0
14.67
10.0
9.67
0.33
8.0
13.33
15.0
8.33
15.67
14.33
11.33
5.67
13.67
14.0
9.0
21.33
22.67
15.33
18.33
22.67
27.0
17.0
37.0
24.67
23.33
13.67
28.67
26.33
36.33
21.67
20.0
20.0
13.33
14.33
9.33
10.67
5.33
19.0
18.33
6.67
31.33
19.0
17.33
12.33
6.67
6.0
18.67
8.33
9.33
24.67
22.67
3.67
15.33
9.0
9.67
2.33
5.33
8.67
2.0
6.67
7.67
29.0
3.0
13.0
11.33
4.33
2.0
3.0
0.0
17.0
2.0
7.67
20.67
14.33
14.67
7.67
-2.0
14.67
5.0
6.33
11.67
3.67
6.67
2.0
14.0
9.33
16.67
2.0
5.33
18.0
15.67
13.67
6.0
1.0
-3.0
8.33
-6.0
0.67
12.0
14.0
0.0
6.67
-1.67
-4.0
13.0
5.0
-2.67
13.67
1.0
3.0
-0.67
5.0
18.67
0.33
16.0
-1.0
10.0
12.67
2.67
12.33
10.0
6.33
13.0
-2.67
10.0
2.0
4.0
7.33
8.0
8.0
15.0
-0.67
7.0
4.33
15.33
8.33
-7.67
17.0
9.33
6.0
-4.0
19.0
12.0
23.67
9.33
14.0
10.67
16.33
14.67
21.67
7.67
-2.0
11.33
11.33
8.67
10.67
18.67
9.0
1.67
0.67
9.67
1.67
1.0
-0.33
14.67
8.0
1.0
3.33
2.0
7.0
16.33
-2.0
20.33
-10.0
16.33
10.0
12.67
1.0
-1.0
3.0
12.0
6.67
7.33
15.33
4.0
9.67
5.0
-2.67
0.67
5.67
-0.33
6.67
5.67
6.33
3.33
-4.33
2.0
7.67
-4.67
-1.0
10.67
12.67
-0.33
11.0
7.33
6.33
7.0
-1.33
-6.33
18.33
14.0
5.67
-2.33
-6.67
5.0
4.0
-0.67
2.33
9.0
4.0
1.67
-1.67
1.0
3.0
-1.33
6.33
16.0
10.33
13.0
9.0
12.33
-3.67
-1.67
3.0
-4.0
0.67
1.67
14.0
2.0
-3.0
-3.33
0.67
0.0
8.67
1.0
6.0
3.67
-5.33
3.67
5.33
9.33
7.0
1.67
8.67
10.67
6.33
-4.33
7.33
3.0
1.33
-3.67
5.33
8.67
4.0
8.33
-3.0
10.0
4.0
-6.67
1.33
-3.33
0.33
4.33
-3.0
-12.67
-5.0
4.0
-1.33
-2.67
-2.0
2.67
3.0
-1.0
4.0
4.67
2.33
7.33
5.33
0.67
-0.67
-0.33
12.33
-0.33
2.67
0.67
5.0
-0.67
1.33
5.67
-3.67
8.0
8.0
6.33
10.0
7.33
6.33
-1.33
12.33
2.33
3.33
1.0
3.33
5.67
-1.33
-3.0
5.33
7.33
7.33
-3.67
7.33
6.0
6.67
-0.67
0.67
-2.0
7.0
-2.67
-0.33
3.33
7.0
3.67
3.67
4.33
2.67
11.67
2.67
7.33
6.0
4.33
6.67
4.0
4.0
0.0
3.33
5.67
6.67
-0.67
-1.0
3.67
4.67
3.67
4.33
0.0
-0.67
-0.33
-4.33
2.67
2.67
7.33
1.33
0.0
2.33
6.33
10.67
3.0
-1.0
3.33
2.0
10.33
6.33
-1.67
1.33
10.33
11.33
0.67
2.67
2.67
-3.33
-0.67
-3.67
-2.67
7.67
-2.33