File: EDX Back Ups and Old Files/Spectra copy 3.3.23/Samples/Low pH SF 25C 9d/6.5.txt
0.0
-6.33
-2.33
79.33
51.0
70.67
2.67
49.0
57.0
20.33
-35.67
-13.67
19.67
9.67
3.0
-3.0
8.67
-4.67
1.0
0.0
0.67
-0.67
1.0
1.67
0.67
0.0
1.0
-0.33
-1.0
1.0
-0.33
1.0
-0.33
1.67
1.0
-0.33
3.0
0.0
0.0
0.67
0.0
-0.33
0.0
-0.67
0.67
-0.33
0.33
-0.33
-0.67
-0.33
-0.67
-0.33
0.67
1.33
1.0
1.0
0.67
1.67
-0.33
-1.33
4.0
3.0
4.33
4.0
5.0
-4.33
-5.33
4.67
3.33
3.33
3.67
-6.33
2.0
0.0
3.33
2.0
-1.0
5.67
13.0
2.67
-1.67
-1.0
-3.33
3.0
-2.67
6.67
3.33
2.0
3.67
0.0
7.67
3.0
1.33
0.67
5.67
10.0
1.0
0.33
0.67
1.67
3.0
-2.0
0.67
7.0
4.33
-0.67
-2.0
4.67
2.33
2.67
0.67
0.0
2.67
5.0
-1.67
9.0
11.0
4.67
9.0
5.0
3.67
0.67
8.33
8.0
2.33
5.33
4.33
5.0
-4.67
-0.33
2.0
3.0
0.33
1.0
-0.33
0.33
-0.33
2.0
4.67
7.0
-1.0
9.33
-1.0
6.0
5.33
3.0
7.0
3.0
-1.0
1.67
2.67
4.33
3.67
2.33
9.67
3.0
4.0
2.0
2.0
-0.33
0.67
4.0
-2.67
-5.67
2.33
4.0
0.67
5.33
2.33
5.33
3.67
-3.33
0.33
6.67
5.0
5.0
4.67
5.33
7.0
5.67
6.33
4.0
0.33
-0.67
4.33
3.0
-1.67
7.0
9.0
3.67
4.0
0.33
3.67
1.67
-0.33
3.0
-1.67
7.33
9.67
3.33
4.33
1.0
-0.67
-2.0
-1.67
5.67
1.0
0.33
6.0
-0.33
2.33
2.67
-1.67
-0.67
5.0
-2.0
8.33
1.0
2.0
2.33
0.0
-1.67
5.33
2.67
1.67
-2.0
2.33
2.33
0.33
14.0
1.0
2.0
-2.0
-3.67
-1.67
3.67
0.67
5.67
7.67
-0.33
-0.33
-2.33
2.0
0.0
3.33
4.33
4.33
5.33
3.0
3.0
0.67
0.67
5.33
6.67
2.67
-1.67
-2.0
2.67
0.33
2.0
1.67
-0.33
1.33
4.0
-1.33
5.0
7.33
3.33
1.0
2.0
8.0
-0.67
5.0
2.0
-6.0
0.0
0.0
4.0
7.33
-2.33
6.33
3.0
-1.33
1.67
0.33
5.0
3.33
0.0
-1.33
4.33
-1.67
-0.33
-1.0
-1.67
0.67
7.67
4.0
1.33
3.67
1.33
3.33
-0.33
3.0
4.67
0.33
2.33
0.0
0.33
2.0
1.67
3.67
2.67
5.33
1.67
0.33
1.67
-1.33
2.67
0.67
-0.33
0.67
1.33
2.33
-2.67
0.33
1.0
1.33
3.33
3.33
0.33
-0.33
4.67
4.0
-0.33
0.67
0.33
-4.67
1.33
-1.0
0.33
-2.67
0.0
5.0
2.33
-0.33
4.0
1.0
-1.33
0.67
1.33
-3.0
0.33
2.67
-3.33
-2.0
-2.33
-2.67
1.0
-3.67
-1.0
-4.0
-3.33
-2.0
3.67
-2.67
-4.33
-6.33
-3.33
-0.33
-2.33
-1.0
2.33
-0.67
-2.33
-2.0
-2.0
0.0
-2.67
0.67
9.33
-8.67
7.67
-1.33
-1.0
-2.67
2.67
4.33
-0.33
1.33
-5.33
1.0
-6.0
-5.0
0.33
-2.67
-3.0
6.67
-5.33
-2.0
-1.0
1.0
4.33
3.33
-0.33
-1.67
1.67
-4.67
-4.67
3.67
5.0
0.0
-3.0
1.0
-6.33
3.33
-2.0
2.33
1.67
-2.33
-2.67
-4.67
1.67
0.0
-5.0
-7.0
0.67
0.0
-5.0
0.0
8.33
2.33
2.67
8.0
-4.0
-0.67
-2.33
-3.33
-1.33
1.0
-2.33
0.33
-1.0
2.0
7.33
1.67
0.67
4.67
2.0
-3.0
8.33
-1.67
0.33
-1.67
2.33
3.67
5.0
-7.0
6.67
1.33
-2.67
3.0
4.33
2.0
7.33
6.67
11.67
10.33
20.67
15.33
20.67
22.0
24.33
12.33
18.67
7.0
13.33
11.33
10.33
-1.33
5.33
7.67
3.33
5.67
23.0
15.67
6.33
12.33
26.33
37.0
54.67
52.33
60.67
54.33
30.67
34.67
20.33
23.67
5.33
12.0
15.33
10.33
14.33
14.33
13.33
4.33
24.0
8.33
17.67
16.67
17.33
17.33
12.0
8.0
4.67
17.0
19.67
3.67
5.33
16.67
3.33
19.33
2.0
3.0
3.67
12.67
13.67
13.0
15.33
4.0
5.33
15.0
18.67
22.0
25.67
15.33
13.33
14.33
8.33
7.33
16.67
8.67
5.67
10.33
22.33
19.0
11.0
18.0
11.33
20.0
23.67
20.0
21.33
30.0
16.0
-2.67
17.67
17.67
19.67
16.0
3.33
5.33
11.67
11.67
4.67
9.0
1.67
5.67
8.67
23.0
10.0
6.0
12.33
0.0
11.0
7.33
12.0
9.0
13.0
5.67
4.33
17.67
6.33
4.67
11.0
4.33
14.33
10.67
16.67
23.33
33.67
43.33
40.67
59.33
67.33
85.67
102.67
97.0
123.33
101.0
97.33
60.67
60.33
34.67
28.0
15.0
15.0
16.0
13.0
17.0
32.67
21.0
40.33
34.33
51.0
48.0
57.33
71.33
48.67
47.0
64.67
49.0
60.67
70.67
75.33
76.67
62.0
63.33
53.67
34.67
42.33
21.0
29.33
15.0
15.67
0.67
14.33
9.33
13.33
10.0
15.67
13.33
12.0
18.67
10.0
5.67
3.33
10.0
9.33
8.0
13.33
10.67
16.33
20.33
14.67
12.67
23.0
16.0
11.33
8.67
37.33
25.33
42.67
32.0
26.0
14.0
23.67
32.33
19.67
28.67
26.33
40.33
28.67
17.0
15.0
12.33
19.33
27.33
19.67
18.33
9.0
14.33
22.67
12.33
14.0
18.33
2.33
13.67
10.0
19.67
18.33
17.33
1.67
11.67
0.67
10.33
3.0
9.67
3.33
5.33
5.67
15.0
15.67
12.67
23.0
8.0
5.0
7.33
1.33
3.0
9.0
18.0
-5.0
-5.0
7.67
0.67
3.33
4.67
16.67
6.0
-0.33
-1.0
12.33
5.67
-3.33
4.67
21.0
10.0
19.33
3.67
20.0
7.33
18.0
9.67
-4.33
12.0
2.0
10.0
-0.67
14.0
8.67
7.0
18.0
0.0
9.67
1.33
6.0
9.0
4.0
5.33
9.67
0.0
2.0
10.33
-7.0
5.67
0.33
10.0
3.0
2.0
14.67
15.67
22.33
6.0
6.33
4.0
-1.67
9.0
5.0
1.0
27.33
7.0
9.0
5.0
-1.67
13.0
8.33
12.33
8.33
21.33
12.0
14.33
28.0
3.0
12.0
3.0
-0.33
7.33
8.0
9.67
18.33
7.67
18.67
12.67
6.0
7.33
0.33
22.67
0.67
15.67
11.0
4.67
11.67
1.67
4.67
6.0
3.67
7.67
8.0
1.0
4.33
10.0
20.0
13.33
-5.0
5.33
4.0
8.33
2.0
8.67
13.0
9.0
6.0
0.0
5.67
-2.67
-2.67
-3.0
-2.33
3.0
1.33
5.67
6.67
4.67
14.67
9.67
-5.67
8.33
-0.33
3.0
-0.33
11.33
7.0
9.67
7.67
4.67
4.0
4.33
11.33
11.0
6.67
-3.33
1.33
6.0
-2.33
-2.33
1.33
1.0
4.0
5.33
2.33
0.0
3.0
-1.33
6.33
14.0
-1.0
1.67
0.33
5.0
2.33
9.0
2.0
6.33
5.33
-9.67
0.0
1.0
0.67
2.67
0.0
4.0
-1.0
1.67
9.67
4.0
3.67
2.0
2.0
-1.33
7.67
10.67
8.33
7.33
8.0
8.67
2.67
-3.33
6.33
-2.33
7.33
11.0
6.33
2.33
3.33
5.67
9.0
4.33
18.0
-3.0
4.0
-3.67
4.33
2.67
3.33
4.33
-2.0
-0.67
0.0
5.0
0.67
2.33
3.0
-5.33
0.0
2.0
1.0
5.67
2.33
15.33
1.33
2.67
6.33
11.67
8.33
0.67
-3.33
3.67
5.0
2.33
9.33
3.67
0.33
4.0
3.0
8.33
4.0
2.33
6.33
0.67
8.33
-1.67
6.33
8.0
0.33
-3.33
5.67
1.0
5.33
0.33
5.33
-2.67
8.33
11.0
-0.33
7.33
1.67
-3.0
1.0
4.33
6.67
3.33
1.0
-0.33
1.67
3.33
1.67
0.67
2.67
2.33
9.0
5.33
11.67
11.0
-5.0
-3.0
5.33
10.67
1.67
1.33
-1.0
1.67
4.67
6.67
0.33
0.0
-3.67
1.67
-3.33
3.67
4.67
0.33
-0.67
1.0
-0.67
-1.67
2.67
8.0
-2.0
-0.67
4.0
-3.67
-3.67
-0.67
8.33
-4.67
4.33
4.67
3.67
-0.33
1.67
1.33
-0.67
1.33
4.67
-2.33