File: EDX Back Ups and Old Files/Spectra copy 3.3.23/Samples/Low pH SF 25C 9d/7.25.txt
0.0
-43.33
-10.33
2.33
-120.0
62.67
-47.33
20.0
-26.0
-18.67
-20.67
13.33
1.67
-3.33
-4.0
-9.0
0.67
-2.67
0.0
-2.0
0.67
0.33
0.0
-0.33
-0.33
0.0
0.0
-0.33
-1.0
0.0
-0.33
1.0
-0.33
0.67
0.0
-0.33
2.0
1.0
0.0
-0.33
-1.0
0.67
1.0
-0.67
-0.33
1.67
0.33
-0.33
-0.67
0.67
0.33
0.67
-0.33
-0.67
3.0
0.0
-0.33
3.67
3.67
0.67
1.0
2.0
0.33
2.0
0.0
-1.33
-1.33
5.67
-4.67
1.33
-5.33
-4.33
2.0
4.0
1.33
0.0
-1.0
-0.33
-1.0
-0.33
1.33
5.0
2.67
5.0
7.33
2.67
3.33
2.0
4.67
-6.0
4.67
-2.0
4.33
1.67
-1.33
10.0
13.0
0.33
1.67
5.67
-2.0
0.0
6.67
10.0
5.33
-1.67
8.0
10.67
11.33
9.67
-2.33
6.0
-1.33
9.0
-3.67
5.0
8.0
1.67
1.0
3.0
4.67
1.67
3.33
3.0
1.33
6.33
1.33
3.0
1.33
6.67
-4.0
-1.0
-2.67
9.0
2.67
3.33
4.67
4.0
2.67
10.0
5.0
1.33
8.0
7.0
4.33
6.0
3.0
4.0
3.0
4.67
10.67
-1.67
4.67
2.33
7.67
0.0
1.0
3.0
-1.0
0.67
4.67
3.0
0.33
1.33
8.33
1.0
0.67
5.33
4.33
5.33
0.67
-2.33
9.33
5.67
8.0
8.0
4.67
6.33
1.0
-0.33
7.33
6.0
0.33
-0.67
3.33
3.0
-1.67
1.0
1.0
5.67
3.0
9.33
2.67
0.67
-3.33
3.0
3.33
-0.67
0.67
4.33
-4.67
-3.0
3.33
1.0
-3.67
6.67
-2.0
3.33
-2.0
-0.33
-1.67
0.67
4.33
0.33
5.0
-4.0
0.33
3.0
2.0
3.33
1.0
-0.67
2.33
2.67
4.67
-1.0
0.33
4.33
4.33
1.0
2.0
1.0
-2.0
2.33
9.33
0.67
-0.33
-2.33
-4.33
2.67
4.67
-0.33
5.0
1.0
0.33
1.33
0.33
-5.67
0.0
3.0
0.67
-1.33
-1.67
5.67
0.67
-2.67
-2.0
-2.33
2.33
2.0
-0.33
-3.33
-0.67
3.0
-1.33
0.0
5.33
4.33
-2.0
3.0
2.0
3.33
-1.0
0.0
-2.0
-2.0
3.0
-1.0
1.33
-0.33
2.33
5.0
0.67
-1.33
-1.67
3.0
3.33
0.0
1.67
2.33
3.33
1.67
-2.0
-1.67
-1.33
2.67
0.0
2.33
-1.33
-2.67
4.33
-3.33
0.0
3.67
-1.67
3.33
8.0
-4.67
3.0
2.67
-1.33
-1.33
2.33
2.67
1.33
3.67
2.67
-0.33
-2.33
-3.33
0.67
-0.67
-3.67
0.33
1.33
1.0
1.33
4.33
2.33
4.33
-3.33
0.67
1.0
0.67
0.67
-2.67
-6.67
-0.67
-3.0
2.33
-0.67
0.0
3.0
-2.67
-1.33
-1.0
1.0
-2.33
1.67
-0.67
-6.0
-0.67
-5.33
-5.33
4.0
-0.33
5.33
4.0
1.33
-2.0
-2.0
-4.33
-2.0
0.67
0.33
-1.33
-7.33
-3.33
3.67
-0.33
-4.0
-0.67
1.33
0.67
3.0
1.0
-1.0
-5.67
-2.33
2.33
-2.67
-1.33
-5.33
-2.0
-8.67
1.67
-3.67
-3.33
-2.67
2.67
2.0
-3.0
-4.0
-5.67
-3.67
4.0
2.67
0.67
-2.0
8.0
5.0
2.33
3.33
-2.33
-8.67
-5.33
-7.67
-1.67
3.67
-2.0
4.0
-4.0
-2.0
-0.33
2.33
0.0
-4.67
3.67
-1.33
-1.67
1.33
0.67
-1.0
8.0
-3.0
1.67
1.0
3.0
4.0
-6.67
2.33
8.67
2.0
-2.0
-2.67
3.67
-0.33
0.67
2.0
-6.33
0.33
0.0
2.0
0.33
6.67
-3.33
-4.33
5.0
1.0
8.33
4.33
9.33
-1.67
0.33
7.67
5.0
2.0
6.67
10.33
1.33
-1.0
7.33
10.0
8.33
16.67
19.67
25.33
25.67
31.33
42.67
53.0
64.33
63.33
58.67
51.0
38.33
21.33
16.33
22.67
8.33
2.67
1.33
11.67
20.0
-2.33
6.33
8.33
11.33
9.0
35.67
26.33
16.67
17.33
12.67
28.67
40.33
28.67
13.33
14.0
9.33
15.33
5.33
4.33
13.33
9.33
4.0
11.33
11.67
21.67
9.33
3.33
10.0
17.0
8.67
9.0
16.67
11.67
9.33
15.67
3.33
15.33
9.0
8.0
-0.33
8.67
23.67
17.0
25.33
28.0
33.33
44.0
44.67
37.0
22.67
15.33
22.33
13.33
1.33
16.33
1.67
3.67
12.67
8.33
13.33
21.0
26.0
4.0
10.33
0.0
17.67
16.0
18.33
16.0
12.0
3.33
4.67
15.67
11.67
16.0
23.33
3.33
5.67
12.67
0.67
8.0
6.67
-1.33
17.67
14.0
14.0
17.0
27.33
25.0
13.0
10.33
8.0
18.0
28.0
10.67
13.33
12.67
0.33
12.67
18.0
6.33
13.33
2.67
39.67
24.33
29.67
33.33
41.67
50.33
53.33
68.67
74.67
78.0
96.33
84.0
80.33
88.67
68.33
76.67
51.0
50.0
33.0
22.0
11.0
26.0
20.67
33.0
28.33
53.33
73.0
71.0
81.33
94.33
87.67
88.0
65.67
59.0
38.67
37.67
37.33
38.67
55.0
50.33
36.67
32.67
33.33
23.0
36.33
38.0
31.67
25.67
19.33
15.33
12.33
15.0
14.67
7.33
10.0
4.67
8.0
7.67
-0.67
8.0
18.33
18.0
10.33
11.67
9.33
19.33
2.67
7.67
17.0
7.0
22.33
31.67
26.33
28.33
30.67
47.0
29.0
53.0
35.67
21.33
29.67
31.67
23.33
22.33
10.67
15.0
27.0
16.33
8.33
16.33
22.67
10.33
13.0
24.33
27.67
29.33
4.0
13.33
9.33
6.67
13.0
10.67
9.33
18.33
14.67
11.67
6.67
-1.67
13.0
15.67
0.33
13.33
4.67
2.0
5.67
14.67
12.0
10.0
19.0
12.33
-3.67
4.0
14.0
-3.0
-4.0
4.0
14.67
4.67
12.33
7.67
14.67
1.0
3.67
3.0
6.33
8.67
12.67
10.67
7.0
6.0
17.33
21.67
4.0
9.33
16.0
0.67
6.67
9.0
7.0
5.0
14.33
4.0
2.67
-2.0
6.0
11.0
10.67
10.33
3.0
5.0
6.0
17.33
15.67
10.0
16.0
10.33
4.0
20.67
-0.67
13.0
-2.0
8.0
1.67
6.67
19.33
11.0
8.33
0.0
9.33
7.0
13.0
19.0
19.33
14.0
7.0
10.0
13.33
9.0
10.33
22.33
-4.67
14.33
25.0
17.33
16.0
-5.0
16.0
1.0
6.67
3.33
13.0
20.67
5.33
12.67
26.67
4.67
2.0
26.33
1.33
17.67
9.67
9.67
10.0
8.67
5.67
1.67
14.67
7.0
-1.33
21.67
22.0
11.0
9.33
14.0
11.0
17.33
14.0
6.33
-1.0
1.33
6.0
8.67
15.0
3.0
3.0
4.0
-7.33
9.33
-2.67
6.0
4.67
9.0
2.33
3.67
3.67
1.67
6.67
3.67
0.33
11.33
-7.33
10.0
-5.33
-0.67
9.0
1.67
-2.33
-0.33
6.0
0.33
13.33
9.0
-2.33
-7.33
-1.67
12.0
8.67
-1.33
2.33
0.0
3.0
9.33
6.33
2.0
1.0
6.67
-5.67
-1.0
0.0
4.67
7.33
12.0
2.33
14.0
2.0
-2.67
0.33
-8.67
-8.0
-4.0
5.67
0.67
-2.0
1.0
6.0
3.67
2.67
18.0
0.67
-2.0
3.0
-0.33
3.67
2.67
3.33
-0.67
7.0
-0.33
0.67
1.67
-0.67
-2.33
1.33
5.0
7.33
0.33
-0.67
1.67
9.0
5.33
6.0
6.0
4.0
-1.67
-2.67
2.67
0.33
1.33
2.0
-2.67
4.0
1.0
2.67
-1.67
-1.0
0.67
7.0
10.0
6.0
5.67
6.33
8.33
-0.67
4.67
2.33
4.67
8.33
-2.33
1.67
0.67
5.0
3.33
3.33
0.67
0.33
2.0
-2.0
-1.67
5.0
4.33
4.33
4.67
1.33
3.33
9.33
0.0
6.33
2.67
-0.33
4.0
1.33
3.33
8.33
1.33
6.33
-1.0
4.67
1.33
4.67
1.0
1.0
-2.67
-1.33
3.33
2.0
-0.33
12.67
1.33
0.67
3.67
2.67
5.33
6.0
6.33
1.67
5.0
-2.0
3.0
1.33
-2.33
-3.33
5.33
4.0
3.67
10.67
6.67
-3.67
6.0
-3.67
-0.33
3.67
3.67
3.67
5.33
1.33
6.0
1.33
5.33
2.67
3.0
3.0
1.33
2.0
2.33
1.33
0.33
0.33
-0.67
3.33
3.67
2.67
-3.33
-3.33
-0.67
-2.67
2.33
4.67
-2.33