File: EDX Back Ups and Old Files/Spectra copy 3.3.23/Samples/Low pH SF 25C 9d/7.5.txt
0.0
-45.33
-96.33
-17.67
-140.0
-11.33
-99.33
-37.0
-61.0
-34.67
-45.67
3.33
16.67
-12.33
-5.0
-10.0
8.67
5.33
-2.0
0.0
-0.33
-0.67
2.0
0.67
0.67
2.0
0.0
-0.33
-1.0
0.0
0.67
1.0
-0.33
-0.33
1.0
-0.33
0.0
0.0
1.0
-0.33
-1.0
0.67
1.0
1.33
-0.33
-0.33
0.33
-0.33
0.33
0.67
-0.67
0.67
-0.33
-0.67
0.0
-1.0
-0.33
-0.33
2.67
5.67
2.0
6.0
-0.67
2.0
1.0
-0.33
-2.33
1.67
-2.67
2.33
0.67
-1.33
4.0
-1.0
8.33
4.0
0.0
10.67
2.0
-5.33
0.33
1.0
2.67
2.0
7.33
1.67
5.33
-1.0
-0.33
3.0
3.67
1.0
0.33
0.67
6.67
-3.0
6.0
5.33
7.67
1.67
-2.0
0.0
0.67
7.0
3.33
2.33
-2.0
7.67
3.33
4.67
-1.33
7.0
-4.33
-1.0
-2.67
0.0
2.0
4.67
8.0
6.0
6.67
-6.33
5.33
11.0
8.33
7.33
2.33
7.0
-0.67
2.67
7.0
4.0
3.33
7.0
5.67
4.33
7.67
6.0
-4.33
5.0
5.0
5.33
3.0
-1.0
5.33
0.0
1.0
5.0
-1.0
-1.33
8.67
1.33
-2.33
5.33
4.67
5.0
1.0
5.0
-1.0
0.67
8.67
5.0
3.33
1.33
-0.67
3.0
-1.33
3.33
7.33
4.33
1.67
3.67
6.33
-2.33
5.0
0.0
3.67
6.33
7.0
3.67
2.33
7.0
-5.67
2.33
3.33
-1.0
-0.67
3.0
-4.0
0.67
-1.0
8.33
-2.33
5.67
0.67
6.0
-0.67
6.33
4.67
4.33
6.33
7.0
5.33
1.0
-1.67
4.67
3.0
-1.67
5.0
2.67
0.33
-0.33
3.33
-2.67
8.0
5.0
4.33
2.0
-3.0
2.33
-1.0
-2.67
2.33
-1.33
3.67
5.0
1.33
-0.67
1.33
-3.0
-1.0
3.0
-4.0
0.33
0.33
0.67
-0.33
-0.33
-1.33
-2.33
1.67
-1.33
4.0
0.0
3.33
5.33
2.33
-0.67
4.0
0.0
1.67
0.67
4.33
4.67
6.67
1.33
3.0
3.67
-1.67
4.0
-0.33
-0.33
-1.67
-1.0
-1.33
-3.0
1.33
2.33
3.0
-1.0
0.0
-1.67
2.0
3.0
-1.0
0.0
3.0
2.0
1.33
-1.33
0.33
4.0
2.67
-1.33
0.33
2.0
3.33
5.0
1.67
0.33
-0.67
4.67
3.0
-1.67
1.67
-0.33
-1.0
-1.67
-1.33
0.33
2.33
-1.33
1.0
-0.33
-1.67
0.33
0.0
-2.67
1.0
1.67
0.67
3.67
0.33
0.67
1.33
2.67
4.67
1.67
-2.33
-2.33
-3.33
1.33
1.33
1.33
2.33
3.0
3.33
2.33
0.33
4.33
0.67
-1.33
0.0
0.67
1.67
0.33
-6.67
6.33
-4.0
3.33
-4.67
4.0
0.0
-0.67
-0.33
-5.0
-1.0
-3.33
-0.33
-1.67
-4.0
0.33
-1.33
-0.33
4.0
1.67
3.33
1.0
0.33
-1.0
-1.0
0.67
-3.0
-1.33
2.33
-0.33
-2.33
1.67
-3.33
1.67
-6.0
1.33
0.33
1.67
4.0
0.0
-4.0
-5.67
-4.33
2.33
-5.67
-2.33
2.67
2.0
-4.67
4.67
-1.67
-3.33
-0.67
-4.33
0.0
-3.0
-1.0
2.33
1.33
-3.0
4.67
1.67
-5.0
-2.0
0.0
1.33
-5.67
3.67
0.33
0.67
-2.67
-3.67
-1.33
1.0
0.0
-4.0
-3.0
-4.33
0.33
-4.0
1.33
-0.33
-1.33
-1.67
1.33
5.67
-7.0
-5.0
-2.0
4.67
-2.0
0.0
6.0
3.33
7.33
6.67
0.0
-9.0
6.33
-3.33
-1.33
-2.33
-4.0
-0.33
9.33
0.0
7.0
-1.67
-0.33
3.67
-4.33
8.0
2.0
-0.67
-2.67
2.33
12.33
2.33
5.67
0.0
-3.0
6.67
2.33
4.33
2.0
10.33
9.0
21.33
19.67
15.67
23.33
27.67
39.33
44.67
70.0
69.33
66.33
59.67
65.0
48.33
18.33
16.33
15.67
3.33
13.67
7.33
14.67
9.0
-2.33
11.33
2.33
11.33
7.0
3.67
22.33
19.67
25.33
13.67
21.67
22.33
25.67
19.33
12.0
9.33
20.33
9.33
12.33
11.33
3.33
5.0
6.33
5.67
9.67
4.33
17.33
13.0
18.0
8.67
8.0
18.67
7.67
1.33
16.67
-0.67
16.33
5.0
3.0
13.67
10.67
8.67
7.0
22.33
27.0
30.33
18.0
30.67
19.0
16.67
19.33
4.33
10.33
8.33
25.33
19.67
9.67
7.67
6.33
10.33
8.0
19.0
6.0
15.33
12.0
16.67
5.0
11.33
10.0
17.0
4.33
6.67
4.67
7.67
16.0
15.33
1.33
7.67
11.67
7.67
13.0
-1.33
4.67
5.67
13.0
17.0
19.0
0.33
19.0
16.0
6.33
6.0
11.0
19.0
13.67
11.33
17.67
6.33
3.67
0.0
15.33
10.33
2.67
20.67
31.33
38.67
37.33
44.67
58.33
54.33
76.67
66.67
83.0
81.33
89.0
71.33
101.67
74.33
87.67
59.0
44.0
24.0
24.0
26.0
14.0
35.67
27.0
23.33
50.33
50.0
70.0
86.33
75.33
80.67
78.0
96.67
88.0
75.67
79.67
64.33
70.67
59.0
72.33
43.67
30.67
46.33
18.0
34.33
15.0
24.67
14.67
21.33
13.33
20.33
8.0
13.67
6.33
8.0
7.67
6.0
11.67
6.33
10.0
15.33
16.0
7.33
12.67
12.33
9.33
20.67
13.67
25.0
12.0
20.33
22.67
24.33
26.33
27.67
30.0
27.0
32.0
29.67
15.33
28.67
31.67
23.33
18.33
29.67
11.0
16.0
15.33
21.33
7.33
10.67
14.33
17.0
19.33
14.67
20.33
21.0
14.33
12.33
3.67
9.0
4.67
11.33
14.33
7.67
14.67
15.67
19.33
18.0
5.67
1.33
4.33
4.67
18.0
8.67
7.67
10.0
-7.0
8.0
4.33
8.33
4.0
11.0
12.0
2.0
6.0
4.67
8.67
3.33
6.67
6.67
2.0
10.67
-4.0
6.33
4.67
18.67
9.67
-1.0
4.0
0.33
13.67
9.0
13.33
1.0
8.67
6.67
-4.0
0.0
2.0
9.33
4.0
8.67
-9.0
29.0
2.0
12.67
7.33
5.0
16.0
12.0
5.33
17.67
13.0
14.0
5.33
27.0
7.67
10.33
12.0
17.0
2.0
9.67
5.67
6.33
10.0
11.33
15.0
-2.67
16.0
21.0
12.0
5.33
24.0
13.0
7.0
12.33
14.0
10.33
8.33
16.33
15.33
18.0
17.33
11.0
14.0
23.0
-5.0
7.67
25.33
12.0
13.67
17.33
28.67
22.67
-7.33
10.0
13.33
24.33
5.67
12.67
14.67
15.0
9.67
18.67
3.67
2.67
15.0
-2.33
-1.33
-2.0
3.0
-2.67
14.0
-1.0
5.33
3.0
-0.67
8.0
13.33
14.0
-4.33
10.0
9.0
7.0
4.0
7.67
1.33
12.33
12.0
7.67
-3.0
0.33
-0.33
3.67
4.67
19.67
4.67
8.33
6.33
0.67
2.0
4.67
5.33
9.0
6.67
3.67
7.67
5.0
3.33
11.33
5.0
7.67
-7.33
0.33
11.0
7.67
-1.33
-3.67
-4.0
3.0
6.33
8.33
5.0
-7.0
2.67
9.33
13.0
15.0
4.67
7.33
1.0
9.33
10.0
3.0
10.33
0.33
2.33
10.0
1.0
1.67
5.67
1.0
2.0
-3.0
-0.33
-7.33
7.0
2.67
5.0
3.0
3.67
3.67
2.67
7.33
9.33
4.0
4.67
11.67
-5.33
6.33
8.67
1.33
11.0
-2.67
-5.67
-2.67
3.67
6.0
9.33
-5.0
4.0
6.0
-7.67
0.33
1.67
5.33
-3.67
2.0
-4.67
7.0
6.0
7.67
5.33
6.0
-2.33
6.0
5.0
7.0
3.67
1.33
9.33
3.33
1.67
19.33
14.67
4.33
6.67
-2.33
7.67
1.0
7.33
8.33
6.67
-6.67
3.0
6.0
0.33
7.0
3.33
-1.67
-0.33
-1.67
2.33
1.33
2.0
-4.67
4.67
-0.33
-4.0
1.33
8.33
8.33
2.33
1.33
4.0
0.67
4.33
1.67
5.0
-1.0
-4.67
1.67
2.33
-4.0
2.67
2.67
13.33
8.67
-3.33
-0.33
0.33
6.0
7.33
5.67
3.0
4.0
4.0
5.33
5.67
1.67
5.33
3.0
3.67
5.67
2.67
1.33
1.0
-0.67
5.67
6.67
0.67
5.67
7.33
2.33
6.0
6.33
2.33
5.67
1.0
4.0
-3.67
5.0
0.33
0.33
-1.67
-2.67
-0.67
2.33
-0.33
7.67
1.67
-0.33
5.33
-2.67
-4.67
7.67
-2.33