File: EDX Back Ups and Old Files/Spectra copy 3.3.23/Samples/Low pH SF 25C 9d/7.75.txt
0.0
-33.33
8.67
33.33
-34.0
16.67
-27.33
-28.0
25.0
-5.67
-15.67
19.33
1.67
0.67
2.0
-5.0
-0.33
-1.67
0.0
0.0
-0.33
-0.67
0.0
-0.33
-0.33
0.0
0.0
-0.33
-1.0
1.0
0.67
1.0
0.67
-0.33
0.0
0.67
0.0
0.0
1.0
-0.33
0.0
-0.33
1.0
0.33
-0.33
-0.33
-0.67
0.67
0.33
0.67
-0.67
0.67
-0.33
1.33
0.0
0.0
1.67
0.67
4.67
-0.33
3.0
2.0
0.33
1.0
3.0
-0.33
6.67
-1.33
-0.67
7.33
1.67
0.67
6.0
-4.0
7.33
0.0
8.0
-0.33
5.0
1.67
0.33
-2.0
-3.33
-1.0
4.33
2.67
11.33
-1.0
3.67
4.0
6.67
0.0
6.33
1.67
-0.33
1.0
2.0
5.33
-1.33
-0.33
-1.0
4.0
-6.33
9.0
2.33
4.33
6.0
15.67
7.33
4.67
2.67
6.0
-1.33
8.0
0.33
3.0
9.0
-2.33
-2.0
6.0
3.67
2.67
6.33
6.0
4.33
7.33
7.33
0.0
-0.67
5.67
-2.0
5.0
-1.67
4.0
0.67
-2.67
6.67
1.0
1.67
2.0
7.0
2.33
12.0
7.0
4.33
2.0
5.0
3.0
3.0
1.67
6.67
5.33
6.67
4.33
4.67
8.0
0.0
1.0
6.0
3.67
5.67
3.0
1.33
6.33
7.33
0.0
-0.33
3.33
-2.67
5.33
1.67
-0.33
6.33
-5.33
11.0
1.0
1.67
2.33
7.0
-1.33
-0.67
8.0
2.33
-3.67
5.33
-1.0
7.33
8.0
2.0
3.67
0.0
5.33
7.67
7.67
1.67
3.0
2.33
7.33
1.67
4.33
3.33
2.0
-1.67
2.0
3.33
6.67
-2.0
11.33
5.0
-0.33
5.33
-1.33
7.33
0.33
0.0
4.0
4.33
-3.0
-3.0
-1.67
0.0
3.33
8.33
-0.33
-1.33
8.0
3.33
4.33
3.33
3.0
0.0
4.0
6.0
-1.67
-1.67
-1.33
4.67
-4.33
0.67
0.67
-2.33
-4.33
0.0
2.0
5.33
6.33
2.33
-5.67
-1.0
-4.0
-2.33
-0.33
5.33
5.67
-0.33
1.33
0.0
0.67
1.33
5.0
1.67
-0.33
-4.67
1.0
0.67
2.0
3.33
7.33
4.0
10.0
-1.0
5.33
0.0
0.0
2.0
-1.0
1.0
-1.0
-1.67
4.67
-0.67
3.0
1.67
0.67
-3.67
8.0
10.33
-2.0
-1.33
4.33
1.33
4.67
3.0
-0.67
2.67
0.67
6.0
1.33
1.67
-0.67
1.33
-3.33
-1.0
1.67
-2.67
4.33
3.0
-1.67
1.0
4.67
-3.33
1.67
1.33
-0.33
5.33
-0.33
4.67
-1.33
1.67
-5.33
6.67
2.33
-4.67
0.33
1.33
2.0
4.33
0.33
2.33
1.33
-1.33
6.67
2.0
3.67
0.67
0.33
-3.67
-2.67
0.0
7.33
1.33
-4.0
3.0
-2.67
-1.33
2.0
-4.0
-1.33
0.67
2.33
0.0
2.33
0.67
1.67
-1.0
-0.33
-1.67
-3.0
0.33
-5.0
1.0
-6.33
-2.0
1.67
-0.67
-1.33
-1.33
-5.33
-0.33
-0.33
0.0
0.33
-1.67
-5.33
5.0
-4.0
-3.0
-4.67
-7.33
4.33
-4.67
-0.33
1.67
-1.0
-2.67
-0.33
-4.67
-2.33
2.33
-1.33
-2.0
1.0
-4.0
5.33
-0.67
2.0
4.67
-0.33
-2.0
2.0
-1.0
1.33
-3.67
-0.33
1.33
-3.33
-5.67
-1.67
5.67
-1.0
3.0
-1.0
-2.0
-3.33
3.33
-5.0
-3.67
-0.33
-3.33
-0.67
3.33
-1.33
0.0
2.0
5.0
-4.33
1.0
0.0
0.0
5.33
2.33
-2.33
6.0
-5.0
-1.67
-7.33
-7.33
-5.33
6.0
-0.33
-0.67
-2.0
0.0
4.33
3.67
0.67
-9.33
4.0
3.0
6.33
-7.67
2.33
4.33
-5.67
4.67
1.0
0.0
0.67
13.33
-2.67
4.0
3.33
-1.0
11.33
12.67
12.67
17.33
14.67
9.33
27.67
23.0
21.33
20.33
54.67
40.0
28.33
16.33
12.33
5.67
8.33
7.67
1.33
3.67
8.0
4.67
15.33
4.33
7.33
9.0
0.67
26.33
30.67
14.33
17.67
26.67
30.33
38.67
20.33
20.0
17.33
17.33
9.33
7.33
4.33
3.33
17.0
9.33
14.67
6.67
19.33
9.33
8.0
10.0
13.67
18.0
7.67
9.67
11.33
8.67
19.33
23.33
4.0
15.0
12.67
19.67
15.67
17.0
30.33
30.0
37.33
32.0
24.67
39.0
34.67
28.33
23.33
13.33
22.33
20.33
17.67
15.67
25.67
9.33
17.33
11.0
23.0
21.0
2.33
21.0
6.67
16.0
9.33
11.0
10.0
4.33
1.67
5.67
3.67
9.0
13.33
12.33
-0.33
13.67
9.67
6.0
3.67
10.67
13.67
13.0
14.0
13.0
16.33
12.0
26.0
9.33
21.0
6.0
15.0
7.67
1.33
2.67
2.33
19.67
7.0
3.33
11.33
-1.33
20.67
19.33
21.67
18.33
19.67
34.33
22.33
41.67
60.67
80.0
78.33
106.0
119.33
133.67
115.33
104.67
94.0
67.0
58.0
27.0
20.0
26.0
17.67
22.0
23.33
22.33
37.0
45.0
43.33
54.33
55.67
49.0
52.67
54.0
46.67
31.67
41.33
40.67
37.0
44.33
38.67
31.67
36.33
26.0
19.33
13.0
24.67
18.67
17.33
9.33
12.33
7.0
14.67
6.33
8.0
8.67
6.0
6.67
5.33
21.0
19.33
4.0
9.33
13.67
7.33
21.33
4.67
11.67
18.0
5.0
27.33
15.67
12.33
25.33
27.67
18.0
30.0
28.0
12.67
18.33
30.67
23.67
22.33
30.33
37.67
10.0
29.0
18.33
10.33
-2.67
39.67
10.33
17.0
19.33
16.67
18.33
10.0
20.33
9.33
1.67
0.0
21.67
14.33
21.33
15.67
10.67
14.67
8.33
7.0
6.67
5.33
13.33
14.67
12.0
-0.33
5.67
7.0
5.0
16.0
6.33
4.33
3.0
4.0
9.0
7.0
-3.0
-3.33
-2.33
7.33
8.67
5.67
0.0
1.67
1.0
1.33
10.67
12.67
4.67
17.0
11.0
9.33
20.67
1.0
-0.67
11.0
7.67
5.67
19.0
10.0
4.0
-2.67
0.0
11.67
8.0
12.0
24.0
-0.33
-3.67
3.0
0.0
10.0
19.33
20.67
-2.0
6.0
14.33
15.0
2.67
9.33
3.0
7.0
24.0
15.67
8.67
6.33
13.0
20.33
8.0
12.33
2.0
21.0
3.0
14.33
0.0
1.0
7.0
19.33
9.0
6.33
16.33
10.33
6.33
14.0
25.33
12.0
12.0
2.0
4.0
11.67
-4.67
9.0
10.67
12.33
18.67
10.67
5.67
8.0
17.33
7.33
13.67
1.67
3.67
22.0
4.67
0.67
-3.33
-0.33
-1.0
8.67
5.67
-3.0
7.0
13.33
17.0
-1.0
5.33
3.0
10.33
-4.0
4.33
24.0
2.67
6.0
13.0
-2.0
4.0
4.67
-3.67
1.33
7.0
-4.33
9.0
-5.67
-5.33
1.67
0.67
5.67
3.67
11.33
11.33
-1.33
4.0
-7.33
5.33
-1.0
4.67
2.67
11.67
12.0
-6.67
3.33
6.0
-7.33
-2.33
-1.67
1.0
3.67
-2.33
-2.67
-4.0
12.0
10.33
4.33
0.0
0.0
3.67
9.33
-2.0
7.0
-1.33
-6.67
10.0
2.33
3.0
7.0
-4.67
7.33
-5.67
2.0
1.0
4.67
3.67
7.0
2.0
6.0
7.67
-1.33
11.0
2.67
6.0
8.0
8.67
7.67
6.67
13.33
1.33
6.0
7.67
9.67
-3.33
11.33
1.67
3.33
3.0
3.33
-1.67
-1.67
10.67
-2.0
7.33
7.0
9.0
12.0
-7.67
2.33
2.67
7.33
-0.67
-7.0
-3.67
6.0
1.0
2.67
8.33
9.0
3.67
3.0
8.0
3.0
4.67
2.33
6.33
10.33
-2.33
6.33
7.67
8.33
2.67
1.67
8.67
0.0
2.33
6.33
0.67
1.33
-4.0
4.0
1.33
4.0
4.33
6.33
-1.33
12.33
2.33
6.33
-1.0
-2.67
-3.33
-1.33
-3.0
12.33
-0.67
3.33
6.33
1.33
0.0
-1.33
-0.67
-0.33
1.0
5.0
7.33
-0.33
9.33
8.0
4.67
6.67
1.33
-0.33
3.67
6.67
3.33
2.0
1.33
5.67
-1.0
3.0
4.0
3.33
1.67
6.67
4.33
4.0
-1.33
5.67
9.67
2.33
5.0
-2.67
0.67
-2.33
-2.33
1.67
7.33
6.33
-3.0
2.33
1.33
-0.33
7.0
2.0
3.33
1.0
-0.67
4.33
4.33
2.33
2.33
3.33
-0.33
3.67
4.67
-0.33
1.33
-4.67
5.33
1.67
-2.33