File: EDX Back Ups and Old Files/Spectra copy 3.3.23/Samples/Low pH SF 25C 9d/8.25.txt
0.0
-59.33
-79.33
38.33
23.0
20.67
33.67
15.0
-11.0
23.33
4.33
10.33
4.67
-1.33
3.0
5.0
5.67
-2.67
1.0
-1.0
1.67
-0.67
1.0
-0.33
-0.33
0.0
0.0
0.67
-1.0
1.0
-0.33
0.0
0.67
-0.33
0.0
1.67
0.0
1.0
0.0
-0.33
0.0
-0.33
0.0
0.33
-0.33
-0.33
-0.67
-0.33
2.33
0.67
-0.67
-1.33
-1.33
0.33
2.0
0.0
-0.33
2.67
1.67
-2.33
0.0
1.0
-1.67
5.0
1.0
-2.33
5.67
3.67
3.33
2.33
2.67
-6.33
6.0
-2.0
7.33
-3.0
1.0
0.67
5.0
4.67
2.33
-3.0
5.67
1.0
1.33
11.67
9.33
2.0
1.67
0.0
2.67
5.0
-1.67
4.67
6.67
3.0
-3.0
2.33
0.67
1.67
11.0
-1.0
0.67
5.0
3.33
-0.67
1.0
1.67
1.33
5.67
5.67
3.0
1.67
9.0
-1.67
1.0
-2.0
-0.33
6.0
4.0
6.67
-3.33
-0.67
1.0
2.33
3.33
6.33
3.0
-0.67
-0.33
2.0
2.0
8.33
2.0
-1.33
0.33
0.67
5.0
-1.33
7.0
4.0
12.33
6.0
-2.0
13.33
3.0
0.0
4.0
3.0
2.67
9.67
1.33
-0.33
4.33
1.67
0.0
4.0
1.0
1.0
-1.33
0.67
1.0
5.33
11.33
-2.67
-1.0
-7.33
2.33
6.33
2.33
-6.33
-5.33
10.33
-3.33
4.0
6.0
-3.33
-0.67
1.0
2.67
0.33
3.0
-1.67
0.33
0.33
-3.0
-0.67
7.0
-1.0
8.67
-2.0
3.33
0.67
2.67
3.67
-1.0
4.33
2.33
-3.33
8.33
1.33
1.0
9.33
-5.0
-1.67
2.67
3.0
-2.67
6.0
5.67
-2.67
2.67
4.33
1.33
3.0
1.0
7.33
1.0
1.0
1.33
3.0
-3.67
-2.67
0.67
-0.33
3.0
-2.67
-1.67
6.33
3.0
1.0
1.0
-1.0
7.33
1.33
-1.33
-1.33
-1.33
0.67
2.67
-0.33
-2.33
-1.0
4.0
0.33
1.33
3.33
4.33
2.0
-2.0
-1.33
-0.33
2.33
-1.33
-1.33
-0.67
5.0
0.67
1.33
-1.0
-0.33
2.67
-1.67
0.0
0.67
-2.0
2.33
-1.67
6.0
3.0
0.0
3.33
0.0
4.0
-4.0
-1.0
6.0
1.0
2.33
-4.33
3.33
4.0
-1.33
1.67
1.33
4.0
7.33
2.0
-0.33
-1.67
-1.67
4.67
1.0
-6.67
-0.33
0.67
2.0
2.33
5.67
-1.67
1.33
-3.33
1.0
-0.33
-0.67
2.33
0.0
-3.67
-1.0
0.67
0.67
0.67
-1.67
-0.33
-0.67
0.67
-0.33
-1.33
-0.33
-1.33
-1.33
-1.67
-0.67
-2.67
1.33
4.0
7.33
0.33
5.33
2.33
-0.33
2.67
2.0
2.67
0.67
-3.67
-6.67
-1.67
4.0
-2.67
-1.67
1.0
-2.0
-2.67
-5.33
-6.0
1.0
-1.33
7.67
-4.67
-1.0
1.33
-0.33
-4.33
3.0
2.67
1.33
0.0
-5.67
2.0
-5.0
-1.33
-2.0
0.67
1.33
-4.33
-3.33
-7.33
-2.33
3.67
7.0
-2.67
-3.67
-2.33
-1.0
-4.0
-1.0
-0.67
-5.33
2.33
-4.67
-0.33
-1.33
0.0
-2.67
1.67
6.33
-4.33
-2.67
-3.33
-2.0
-7.0
-1.0
-0.67
-2.67
1.0
4.67
-3.33
-3.0
-3.0
0.0
1.33
1.33
0.67
-8.67
-0.33
-1.67
0.33
5.67
3.0
-1.0
1.0
1.0
1.67
0.33
1.0
3.33
2.67
0.67
-0.67
1.33
-2.33
1.0
-3.0
1.0
7.67
1.0
-2.0
1.0
6.33
2.33
0.67
10.0
-5.0
1.33
-3.33
-1.33
-0.33
0.0
8.67
3.33
-4.0
-3.0
7.33
5.67
2.67
2.67
2.0
0.0
5.33
-5.67
-0.67
11.33
2.33
12.67
11.0
-9.0
5.67
2.33
-0.67
2.0
12.33
7.0
22.33
14.67
27.67
24.33
27.67
28.33
43.67
43.0
36.33
41.33
29.67
15.0
12.33
22.33
19.33
12.67
5.33
8.67
3.33
4.67
11.0
9.67
10.33
-0.67
3.33
11.0
2.67
14.33
16.67
16.33
12.67
17.67
28.33
16.67
13.33
16.0
11.33
18.33
11.33
10.33
6.33
10.33
15.0
11.33
5.67
14.67
3.33
3.33
10.0
7.0
5.67
14.0
3.67
10.67
15.33
10.67
9.33
17.33
8.0
9.0
13.67
19.67
17.67
16.0
27.33
31.0
21.33
45.0
33.67
42.0
32.67
19.33
19.33
12.33
23.33
10.33
9.67
2.67
19.67
6.33
16.33
8.0
10.0
20.0
17.33
24.0
9.67
15.0
20.33
14.0
9.0
15.33
4.67
3.67
3.67
13.0
6.33
4.33
13.67
10.67
7.67
7.0
4.67
8.67
19.67
10.0
13.0
19.0
3.33
21.0
16.0
13.33
19.0
29.0
8.0
6.67
8.33
10.67
2.33
13.67
9.0
8.33
-1.67
-0.33
20.67
20.33
7.67
7.33
24.67
26.33
29.33
48.67
39.67
31.0
66.33
57.0
76.33
65.67
93.33
87.67
65.0
64.0
45.0
28.0
34.0
27.0
15.67
22.0
19.33
25.33
32.0
41.0
36.33
46.33
45.67
49.0
62.67
76.0
63.67
50.67
61.33
62.67
40.0
42.33
37.67
41.67
39.33
27.0
19.33
27.0
24.67
19.67
12.33
12.33
15.33
13.0
10.67
9.33
13.0
18.67
14.0
4.67
3.33
9.0
9.33
11.0
9.33
13.67
5.33
13.33
12.67
1.67
15.0
11.0
19.33
22.67
23.33
25.33
26.67
32.0
22.0
25.0
28.67
28.33
34.67
36.67
28.33
10.33
19.67
24.0
12.0
20.33
16.33
20.33
23.67
38.33
22.0
25.33
16.67
23.33
6.0
13.33
17.33
6.67
10.0
20.67
20.33
20.33
22.67
18.67
6.67
6.33
15.0
12.67
9.33
1.33
12.67
5.0
8.67
17.67
17.0
8.0
5.0
5.33
3.33
7.0
-1.0
6.0
18.0
2.0
11.67
16.67
7.33
0.67
5.67
3.0
1.67
-5.0
11.33
5.67
9.67
10.67
7.0
-7.0
10.33
25.67
11.0
10.33
7.0
3.67
-1.33
10.0
3.0
2.0
5.33
8.0
1.67
2.0
8.0
8.0
10.67
4.33
11.0
16.0
4.0
5.33
5.67
-4.0
-1.0
17.33
10.0
7.67
4.33
4.0
3.0
1.0
9.67
7.67
13.33
4.0
7.33
5.0
10.33
-2.0
1.0
3.0
2.33
11.0
6.0
6.0
7.33
13.0
12.33
4.33
7.33
10.33
8.0
12.33
22.0
8.0
10.0
4.0
4.67
9.33
14.0
10.67
8.33
13.67
4.67
-5.33
10.0
12.33
-1.67
14.67
10.67
8.67
5.0
6.67
24.67
-0.33
7.67
4.0
1.67
12.67
9.0
18.0
12.33
1.0
-2.0
3.33
-6.0
3.33
14.0
9.33
17.0
8.67
8.0
11.0
2.0
2.0
5.67
13.33
0.33
12.0
11.67
7.0
-6.67
9.67
7.67
6.67
14.67
11.67
11.33
12.33
-1.33
10.0
4.67
2.33
6.0
5.67
8.67
4.67
1.0
3.33
13.33
6.0
-1.33
-0.33
-3.67
-1.0
7.67
-2.33
0.33
6.0
5.0
1.33
-4.67
10.0
2.0
0.67
-0.67
7.0
1.0
-2.33
6.33
12.0
4.33
11.0
8.0
0.33
-2.67
-0.67
6.0
3.0
3.67
5.67
9.0
-7.0
5.0
-0.33
2.67
3.0
4.67
7.0
-4.0
4.67
7.67
-2.33
6.33
4.33
4.0
3.67
7.67
4.67
-2.67
2.67
6.33
1.0
5.33
2.33
-3.67
6.67
2.0
7.33
0.0
0.0
8.0
-0.67
-1.67
0.67
4.33
-0.67
3.0
6.33
5.0
8.0
8.67
-6.67
0.0
1.67
12.0
14.0
-1.0
4.67
5.33
8.33
8.33
-4.33
8.33
-1.33
7.33
1.67
-3.33
6.67
1.0
1.33
6.33
3.67
6.33
10.0
4.0
6.33
7.0
-2.67
1.33
-3.33
0.33
4.33
10.33
-2.0
-0.67
-0.33
3.67
3.0
-0.67
0.33
4.33
0.33
2.33
3.0
-1.33
2.33
-1.33
3.0
-1.0
8.33
0.67
8.33
0.0
5.67
8.67
3.33
-3.33
3.67
4.67
1.33
2.0
8.33
9.67
1.0
2.0
0.0
5.33
-4.33
7.67
6.33
4.0
4.67
7.67
7.67
6.33
8.0
0.33
1.67
6.67
0.67
3.67
2.33
1.33
5.0
0.33
-2.67
1.67
3.0
5.0
-0.67
3.0
3.33
2.33
1.33
0.33
2.33
4.33
-0.33
3.67
2.67
-2.33
7.33
2.33
-4.67
3.67
1.67