File: EDX Back Ups and Old Files/Spectra copy 3.3.23/Samples/Low pH SF 25C 9d/8.5.txt
0.0
-42.33
-50.33
-26.67
23.0
7.67
-22.33
-48.0
-19.0
-35.67
7.33
-13.67
15.67
-9.33
-3.0
-3.0
-0.33
3.33
-1.0
1.0
-0.33
0.33
0.0
0.67
-0.33
0.0
1.0
0.67
0.0
0.0
-0.33
1.0
0.67
-0.33
1.0
-0.33
0.0
0.0
0.0
1.67
0.0
0.67
1.0
-0.67
-0.33
-0.33
-0.67
1.67
0.33
0.67
-0.67
0.67
0.67
-1.67
2.0
0.0
0.67
1.67
-1.33
-3.33
2.0
5.0
-0.67
-2.0
0.0
1.67
2.67
-1.33
6.33
1.33
-0.33
-4.33
3.0
2.0
5.33
11.0
4.0
4.67
5.0
-1.33
-0.67
-5.0
0.67
-6.0
-0.67
13.67
6.33
-1.0
-4.33
0.0
-1.33
-1.0
7.33
-0.33
4.67
-2.0
1.0
3.33
0.67
-4.33
4.0
0.0
-3.33
7.0
2.33
0.33
5.0
1.67
5.33
9.67
5.67
0.0
-4.33
7.0
1.33
-3.0
10.0
1.67
4.0
4.0
3.67
4.67
1.33
8.0
0.33
4.33
5.33
7.0
-5.67
-0.33
0.0
0.0
-0.67
5.0
2.67
-1.67
10.67
4.0
-2.33
5.0
-1.0
5.33
4.0
10.0
6.33
4.0
-1.0
-1.0
0.0
-0.33
1.67
7.33
-0.33
0.33
0.67
2.0
1.0
9.0
3.0
4.67
2.67
8.0
6.33
-1.67
3.33
2.0
1.67
-0.67
3.33
4.33
-4.33
2.67
9.33
-1.33
-2.0
4.0
2.67
2.33
9.0
-0.33
0.33
2.0
-4.67
4.33
2.33
4.0
0.33
1.0
-1.0
13.67
-5.0
-0.67
-1.33
0.67
-0.33
6.0
1.33
0.33
5.67
5.33
0.33
0.0
6.33
2.0
2.33
3.67
-2.0
4.33
1.0
8.67
5.33
2.67
0.33
0.33
5.0
2.0
2.33
1.0
1.0
1.33
-1.0
-1.67
1.33
0.67
3.67
3.0
2.33
-4.67
0.33
2.0
1.0
6.0
-2.0
2.33
-6.67
0.67
6.67
-4.33
3.67
-2.33
-3.33
5.67
-1.0
4.0
2.33
3.33
-1.67
-0.67
1.0
3.0
2.67
0.67
-2.67
-0.33
4.67
-1.67
3.0
-1.33
4.33
3.0
1.67
-1.33
-2.67
3.0
0.67
1.0
5.33
0.33
2.0
1.0
3.0
7.33
5.0
2.0
-4.0
-2.0
0.0
0.0
3.33
1.67
-0.67
3.0
-1.33
6.67
-1.67
5.0
6.33
1.0
0.67
0.33
4.33
-0.33
3.0
0.33
-0.33
0.67
-2.0
3.33
-1.33
-0.67
-0.67
-0.33
-1.0
3.67
0.33
2.33
0.0
-0.67
2.0
2.67
-0.33
-3.33
-0.67
-2.33
-2.67
4.67
1.67
0.67
-1.33
-0.33
-2.33
3.33
-1.67
-3.67
2.33
-1.0
2.33
1.33
0.33
0.33
-2.33
2.67
0.0
-2.33
-0.33
0.33
-8.67
-4.67
1.0
2.33
1.33
-3.0
1.0
-1.67
1.67
1.0
-2.0
1.67
1.67
-2.67
0.0
-2.67
-4.33
-5.33
2.0
-1.33
3.33
1.0
-2.67
-2.0
-3.0
0.67
-2.0
0.67
0.33
-4.33
-1.33
-4.33
-3.33
4.67
-1.0
-0.67
-1.67
-0.33
-2.0
-2.0
-5.0
-1.67
-2.33
6.33
-4.67
-4.33
1.67
2.0
-3.67
2.67
-0.67
-1.33
-0.67
-7.33
-1.0
0.0
-5.0
0.33
-0.67
-4.0
3.67
2.67
0.0
-4.0
3.0
0.33
2.33
1.67
-4.67
-1.33
-1.67
-2.67
-2.33
3.0
4.0
3.0
3.0
-1.33
2.33
-2.0
-4.67
-6.33
8.67
3.33
3.33
0.67
-1.0
3.0
4.0
6.67
3.0
3.0
7.0
0.33
5.33
0.67
6.0
0.0
5.33
-4.33
10.67
1.67
1.0
-1.33
-0.67
0.0
-1.0
1.33
3.67
3.67
-1.33
2.0
-2.0
11.33
1.33
6.33
1.33
-1.67
-0.33
7.0
-2.0
3.67
2.33
3.33
11.0
10.33
12.0
24.33
20.67
14.67
16.33
23.67
30.33
31.67
37.0
32.33
29.33
33.67
24.0
28.33
22.33
9.33
-0.33
-4.67
5.67
-1.67
-3.33
8.0
-0.33
10.33
9.33
13.33
7.0
4.67
22.33
18.67
13.33
23.67
32.67
24.33
27.67
14.33
12.0
6.33
25.33
9.33
11.33
12.33
6.33
10.0
11.33
6.67
2.67
13.33
11.33
10.0
8.0
0.67
22.0
11.67
7.67
3.33
15.67
12.33
23.33
12.0
0.0
4.67
17.67
21.67
8.0
21.33
35.0
23.33
31.0
28.67
27.0
31.67
22.33
14.33
15.33
26.33
12.33
10.67
25.67
14.67
14.33
8.33
7.0
14.0
22.0
14.33
15.0
23.67
13.0
16.33
18.0
14.0
0.33
2.67
1.67
9.67
13.0
7.33
4.33
13.67
12.67
5.67
14.0
10.67
3.67
13.67
9.0
9.0
11.0
13.33
15.0
16.0
18.33
14.0
15.0
15.0
16.67
-1.67
11.67
7.33
5.67
2.0
14.33
5.33
25.67
40.67
39.33
40.67
46.33
47.67
46.33
49.33
55.67
38.67
50.0
47.33
54.0
52.33
48.67
42.33
52.67
36.0
36.0
33.0
31.0
23.0
14.0
14.67
20.0
17.33
31.33
23.0
20.0
33.33
54.33
61.67
64.0
97.67
67.0
97.67
66.67
77.33
65.67
40.0
48.33
36.67
51.67
40.33
29.0
24.33
35.0
28.67
28.67
20.33
11.33
13.33
16.0
20.67
9.33
13.0
12.67
0.0
10.67
11.33
5.0
9.33
18.0
10.33
16.67
23.33
5.33
8.67
20.67
16.0
16.0
11.33
17.67
20.33
18.33
35.67
20.0
13.0
19.0
19.67
23.33
30.67
26.67
29.33
28.33
24.67
11.0
25.0
29.33
20.33
38.33
43.67
33.33
24.0
29.33
20.67
31.33
28.0
16.33
26.33
-1.33
10.0
7.67
17.33
20.33
21.67
20.67
9.67
7.33
2.0
5.67
15.33
3.33
10.67
13.0
11.67
10.67
15.0
10.0
9.0
7.33
5.33
8.0
2.0
4.0
22.0
-6.0
-1.33
17.67
10.33
9.67
1.67
3.0
12.67
1.0
8.33
9.67
11.67
6.67
-5.0
4.0
16.33
20.67
-2.0
2.33
16.0
1.67
2.67
10.0
13.0
15.0
16.33
-2.0
3.67
6.0
3.0
6.0
7.67
5.33
7.0
13.0
0.0
-2.67
9.67
-2.0
0.0
11.33
17.0
17.67
-0.67
11.0
17.0
10.0
0.67
10.67
11.33
11.0
4.33
4.0
1.33
15.0
9.0
1.0
18.33
13.0
17.0
6.0
4.33
15.0
12.33
16.33
7.33
20.33
12.0
9.33
12.0
14.0
15.0
3.0
8.67
11.33
22.0
25.67
18.33
13.67
26.67
9.67
8.0
3.33
5.33
20.67
-1.33
10.67
11.0
-2.33
-0.33
6.67
7.67
3.0
2.67
12.67
1.0
12.0
-0.67
10.0
10.0
18.33
7.0
9.33
1.0
13.33
9.0
14.67
5.0
3.0
1.0
-3.0
1.67
16.33
1.33
1.0
11.67
9.0
1.33
1.67
-2.33
4.67
10.67
-1.33
4.33
2.33
-0.33
9.0
1.67
-1.67
6.0
8.67
2.67
5.67
3.0
5.33
12.33
2.0
-2.33
1.67
-1.67
10.0
4.67
0.67
-7.67
4.0
-3.0
-5.67
-9.67
10.0
-3.0
1.67
3.33
4.0
9.0
-6.33
-1.67
11.0
9.33
8.0
11.0
1.33
11.33
-9.67
4.0
-4.0
3.67
8.67
3.0
-7.0
20.0
2.67
-6.33
4.0
2.67
6.0
-4.0
-0.33
2.67
10.67
0.33
1.33
7.0
0.67
4.67
-7.33
9.33
-1.33
12.33
-1.0
-1.67
-1.67
5.33
3.67
0.0
4.33
-2.0
4.0
3.0
-0.67
-2.67
4.67
2.33
2.33
-2.0
-2.67
-4.0
6.0
8.67
1.33
10.0
-5.33
3.0
3.0
2.0
-0.33
7.33
7.33
12.33
3.67
4.33
-2.33
2.33
-7.33
-4.33
9.67
7.0
-1.67
6.33
5.67
10.33
-3.0
6.0
3.33
0.0
-0.67
8.33
2.67
-2.67
10.33
6.33
-2.0
3.33
2.67
2.67
6.0
3.33
7.33
5.33
-2.67
-3.67
2.0
-0.33
8.33
3.67
7.0
11.0
-1.67
-1.33
8.33
0.0
-3.33
3.67
2.33
-3.33
3.67
6.67
5.33
1.0
3.33
6.67
3.0
4.0
3.0
9.33
0.67
10.67
4.33
5.0
3.67
1.67
1.67
8.33
0.0
0.33
0.67
0.67
0.67
-1.33
5.33
3.33
-3.0
1.33
-0.67
2.67
5.0
7.0
2.33
4.0
-2.67
1.33
-0.67
4.33
-1.67
4.33
2.67
1.67
-1.33
-1.33
-1.67
-3.67
2.33
4.67
-5.33