File: EDX Back Ups and Old Files/Spectra copy 3.3.23/Samples/Low pH SF 25C 9d/8.75.txt
0.0
-75.33
-11.33
-58.67
-10.0
-9.33
-34.33
-31.0
-27.0
-19.67
-28.67
-9.67
-5.33
-6.33
-14.0
-7.0
-2.33
-1.67
0.0
0.0
-0.33
-0.67
0.0
-0.33
0.67
0.0
0.0
-0.33
0.0
0.0
-0.33
0.0
-0.33
2.67
1.0
-0.33
0.0
2.0
0.0
-0.33
-1.0
0.67
1.0
-0.67
0.67
0.67
1.33
0.67
0.33
1.67
2.33
-1.33
1.67
-1.67
2.0
-2.0
1.67
1.67
0.67
-0.33
2.0
2.0
-1.67
0.0
4.0
1.67
0.67
3.67
-1.67
3.33
5.67
-4.33
0.0
-1.0
9.33
1.0
0.0
2.67
5.0
4.67
-4.67
-5.0
0.67
-5.0
7.33
7.67
0.33
2.0
-2.33
0.0
3.67
-1.0
0.33
1.67
3.67
1.0
2.0
-3.67
1.67
-1.33
-4.0
1.0
0.67
5.0
4.33
-3.67
1.0
9.67
-2.67
9.67
0.67
4.0
-5.33
4.0
1.33
1.0
2.0
6.67
4.0
7.0
1.67
5.67
0.33
6.0
4.33
3.33
-2.67
-5.0
-3.67
6.67
1.0
3.0
9.33
0.0
4.67
0.33
2.67
5.0
-1.33
4.0
2.0
1.33
1.0
15.0
10.33
4.0
5.0
-2.0
1.0
-1.33
2.67
1.33
5.67
0.33
0.67
0.0
2.0
-1.0
-5.0
2.67
4.67
5.0
-3.67
-1.67
5.33
0.0
2.67
0.33
-5.67
1.33
0.67
1.67
1.33
-1.33
0.0
2.0
4.67
0.33
-2.0
3.67
1.33
-2.0
-1.67
4.33
4.33
3.0
0.33
5.0
6.0
8.67
-3.0
4.33
4.67
-0.33
-2.33
0.0
-1.67
2.33
0.67
8.33
-0.67
7.0
1.33
1.0
0.33
2.67
3.0
7.33
5.0
2.67
2.33
2.67
0.33
-0.67
5.0
-4.0
-0.67
0.0
0.0
0.33
2.0
4.33
-0.67
0.67
0.67
4.0
4.33
0.33
1.33
-2.0
3.0
1.0
-2.0
-3.67
1.33
5.67
0.67
-3.33
0.67
1.67
-0.33
0.67
2.0
4.0
3.33
1.33
1.33
-1.67
0.0
8.0
2.67
2.67
4.33
1.67
0.67
-3.67
3.0
1.67
2.33
0.0
3.67
-1.33
0.33
3.0
3.67
1.0
-2.67
2.33
2.0
3.0
6.0
4.33
2.0
-1.0
2.0
-6.0
3.0
-2.0
2.33
2.67
3.33
0.0
1.67
1.67
-2.67
8.0
2.33
3.0
0.67
4.33
-3.67
3.67
-3.0
-4.67
0.67
1.67
-1.0
2.33
4.67
-1.67
2.33
-4.33
2.0
1.67
-2.67
0.33
5.0
-3.67
-2.0
5.67
1.67
1.67
0.33
5.67
0.33
2.67
2.67
4.67
-3.33
0.67
0.67
1.33
0.33
-5.67
2.33
3.0
6.33
0.33
-0.67
1.33
-0.33
1.67
5.0
0.67
0.67
-2.67
-7.67
-6.67
5.0
2.33
-2.67
-3.0
-1.0
1.33
-1.33
0.0
0.0
-1.33
4.67
-1.67
-1.0
2.33
0.67
-2.33
5.0
-4.33
1.33
1.0
4.33
-2.0
-6.0
-4.33
-4.0
4.67
3.33
-6.33
0.67
-2.33
-0.33
-1.33
-2.0
-1.67
1.33
-3.33
4.0
0.0
-4.0
-8.67
-5.33
6.33
-6.67
0.67
-1.33
-2.0
-5.67
1.67
3.33
1.67
-3.67
-4.33
4.0
-6.0
1.0
-3.67
4.33
-2.0
7.67
8.67
-1.0
0.0
-1.0
4.33
-0.67
-0.33
-2.67
-3.33
-9.67
2.33
-0.33
6.0
4.0
1.0
-1.0
-0.33
5.33
1.0
4.33
-1.33
3.67
-2.67
-0.67
-5.33
-5.0
4.0
-1.0
7.67
0.0
-2.0
1.0
3.33
5.33
1.67
3.0
-1.0
-1.67
0.67
3.67
2.67
1.0
2.67
4.33
2.0
2.0
-0.67
10.67
1.67
-1.33
5.0
9.0
0.33
-0.67
0.33
7.33
6.33
0.67
-4.0
2.0
3.67
12.33
-1.67
5.0
14.33
16.0
10.33
16.67
16.67
23.33
16.67
22.33
12.67
46.0
17.33
20.33
29.67
16.0
19.33
16.33
-0.67
3.67
4.33
-0.33
5.33
12.67
10.0
5.67
4.33
7.33
10.33
13.0
3.67
19.33
15.67
8.33
12.67
7.67
23.33
31.67
32.33
34.0
14.33
32.33
31.33
26.33
50.33
34.33
47.0
26.33
35.67
19.67
9.33
4.33
5.0
9.0
6.67
9.0
17.67
12.67
8.33
14.67
15.33
9.33
15.0
16.0
13.67
20.67
18.67
24.0
17.33
22.0
34.33
25.0
25.67
24.0
16.67
22.33
30.33
18.33
18.33
25.33
24.67
13.67
23.67
12.33
18.33
20.0
21.0
18.0
16.33
24.0
20.67
16.0
29.33
25.0
16.0
10.33
14.67
15.67
6.67
18.0
18.33
6.33
21.67
14.67
19.67
16.0
22.67
21.67
11.67
16.0
18.0
13.0
21.33
8.0
21.0
7.33
4.0
18.0
8.0
18.67
17.33
7.67
6.33
9.67
20.0
30.33
26.33
31.67
56.67
65.33
79.67
105.33
76.67
103.33
84.33
89.67
79.67
86.0
80.33
93.0
112.33
97.67
89.33
90.67
64.0
52.0
41.0
51.0
29.0
30.0
26.67
24.0
23.33
28.33
28.0
23.0
32.33
29.33
32.67
41.0
48.67
51.0
54.67
41.67
46.33
54.67
35.0
40.33
29.67
27.67
22.33
24.0
31.33
26.0
21.67
16.67
7.33
25.33
18.33
12.0
10.67
10.33
10.0
4.67
3.0
10.67
3.33
14.0
18.33
2.0
12.33
19.67
12.33
15.33
-0.33
9.67
12.0
28.0
24.33
23.67
20.33
27.33
23.67
29.0
23.0
19.0
35.67
22.33
24.67
37.67
43.33
30.33
33.67
19.0
13.0
33.33
16.33
17.33
21.67
39.33
37.0
22.33
21.67
17.33
21.0
5.33
14.33
7.67
31.0
15.67
8.33
14.33
0.67
17.67
11.67
10.33
13.0
21.67
0.33
4.33
2.67
3.0
4.67
7.67
19.0
7.0
9.0
14.33
8.33
2.0
3.0
6.0
12.0
0.0
11.67
10.67
-0.67
9.67
6.67
15.0
4.67
0.0
-4.67
10.67
8.67
11.67
4.0
2.0
8.33
15.67
-2.0
9.33
12.0
-2.33
5.67
11.0
1.0
-9.0
11.33
9.0
4.67
6.0
4.0
-1.0
13.67
1.33
5.0
2.0
4.0
5.33
6.67
-3.0
9.0
9.33
-2.0
7.67
0.33
8.0
4.0
0.0
8.67
1.67
12.33
7.0
1.33
10.0
7.33
5.0
7.0
7.0
13.33
18.0
25.0
1.0
1.33
9.0
15.33
6.33
11.33
9.33
13.0
12.33
38.0
3.0
14.0
2.0
4.67
5.33
9.0
8.67
22.33
4.67
13.67
1.67
9.0
14.33
4.33
9.67
10.67
9.67
8.0
3.67
-1.33
3.67
8.67
2.0
-2.33
5.67
11.0
5.0
2.33
10.0
9.0
10.33
11.0
3.33
12.0
3.33
18.0
13.67
10.0
1.0
5.0
-4.0
9.67
-3.67
-3.67
-5.0
13.67
8.0
-5.67
-0.33
3.67
12.67
1.67
2.67
0.33
6.33
-3.33
2.0
15.67
12.33
-3.0
11.67
9.67
8.67
2.0
7.33
13.33
2.0
5.67
-3.33
-1.67
9.0
2.67
3.67
-10.67
8.0
-1.0
10.33
5.33
6.0
11.0
5.67
8.33
4.0
8.0
-1.33
5.33
8.0
5.33
6.0
13.0
3.33
10.33
-0.67
4.0
4.0
9.67
1.67
-1.0
-5.0
4.0
2.67
-5.33
6.0
3.67
1.0
0.0
13.67
0.67
4.67
4.33
12.33
8.0
5.67
9.67
2.67
-1.67
1.67
5.33
2.0
1.33
-1.67
0.33
-2.33
1.0
2.33
5.0
2.0
6.0
-2.67
2.33
0.67
-1.67
1.33
0.0
-2.67
-4.0
-1.0
-3.33
2.33
-5.0
-4.33
9.0
2.0
2.0
5.67
9.33
2.33
5.33
-0.33
10.33
2.67
4.33
0.67
8.67
-0.33
6.0
0.33
2.33
5.67
5.33
-1.0
-4.0
3.33
7.0
0.33
1.33
2.67
8.33
2.33
-2.67
0.0
-4.67
-2.33
-5.33
4.0
1.33
5.33
7.33
4.33
2.33
5.0
-5.33
2.33
2.67
0.0
7.0
0.33
-3.33
2.33
1.0
6.67
-1.33
4.33
4.67
1.67
4.67
3.33
4.0
4.33
6.67
7.0
5.0
5.0
-0.67
2.67
0.67
4.33
-1.0
1.67
-0.33
0.67
6.33
1.0
-7.67
4.67
-1.33
3.67
7.67
-0.67
1.33
3.0
4.33
-1.67
3.67
4.0
9.0
-1.67
5.0
7.33
2.33
5.33
-4.67
3.33
3.33
0.67
0.67
-2.33
-3.33
-5.67
2.33
-2.67
2.67
0.67