File: EDX Back Ups and Old Files/Spectra copy 3.3.23/Samples/Low pH SF 25C 9d/9.0.txt
0.0
-49.33
-24.33
29.33
-25.0
-44.33
-23.33
-53.0
-28.0
-49.67
-37.67
-1.67
8.67
6.67
-4.0
-6.0
-2.33
0.33
1.0
-2.0
-0.33
0.33
0.0
0.67
-0.33
1.0
0.0
-0.33
-1.0
0.0
-0.33
0.0
-0.33
-0.33
0.0
-0.33
0.0
0.0
1.0
-0.33
1.0
0.67
0.0
-0.67
-0.33
-0.33
0.33
1.67
0.33
2.67
0.33
0.67
-0.33
-0.67
1.0
3.0
1.67
1.67
0.67
4.67
8.0
10.0
-1.67
1.0
2.0
1.67
-0.33
5.67
-1.67
3.33
-0.33
-2.33
1.0
2.0
4.33
-3.0
0.0
-1.33
-5.0
-0.33
1.33
-2.0
-0.33
-2.0
8.33
6.67
5.33
7.0
4.67
4.0
4.67
3.0
8.33
-1.33
2.67
4.0
14.0
-1.67
6.67
0.67
-1.0
-3.0
2.67
5.0
3.33
-0.67
0.0
7.67
0.33
7.67
1.67
6.0
2.67
10.0
2.33
5.0
5.0
-2.33
8.0
-2.0
-0.33
-0.33
8.33
3.0
5.33
11.33
3.33
0.0
-0.67
4.67
-1.0
-1.0
9.33
5.0
-2.33
-1.67
2.67
1.0
2.67
1.0
2.0
6.33
3.0
1.0
3.33
-1.0
0.0
1.0
6.0
-0.33
8.67
-2.67
1.67
12.33
6.67
7.0
4.0
-2.0
0.0
3.67
6.67
1.0
0.33
2.33
-2.67
6.0
-2.33
5.33
-3.67
3.33
-2.33
-2.33
1.33
3.67
-3.0
0.0
4.67
5.33
1.0
0.67
-1.67
-2.0
0.33
8.33
-0.67
0.0
3.33
1.0
3.0
1.67
1.0
5.33
0.67
0.67
1.67
7.0
3.33
1.33
-0.33
5.33
4.33
-1.0
10.33
3.0
-1.67
2.67
0.0
-0.67
7.0
1.67
5.33
1.67
0.33
3.33
4.0
1.0
0.33
-2.0
2.0
5.33
-1.0
-4.67
5.33
4.67
3.67
-4.0
-1.67
-0.67
1.33
4.0
1.0
5.0
-2.0
0.33
2.33
1.67
-4.33
-2.33
5.67
0.67
-0.33
-3.33
0.0
4.0
1.33
3.33
3.33
2.33
1.0
0.0
1.67
5.67
0.33
4.67
0.67
1.33
1.0
-1.33
5.33
-1.0
6.67
-1.33
-0.67
1.0
-1.33
-1.0
1.33
4.33
2.0
5.0
1.0
4.33
6.0
-1.0
-4.0
-1.0
3.0
-1.0
1.33
1.67
2.33
2.0
0.67
4.67
1.33
9.0
0.33
1.0
-0.33
2.33
-1.67
2.67
-1.0
-3.67
2.67
0.67
3.0
0.33
3.67
0.33
0.33
-0.33
2.0
3.67
3.33
-0.67
-2.0
-6.67
1.0
-1.33
-3.33
-5.33
3.33
2.67
0.33
2.67
-0.33
-0.33
-1.33
0.67
3.67
-0.67
2.33
0.33
1.33
1.0
-0.67
3.33
5.33
-0.67
0.67
1.67
2.0
2.67
4.67
-2.67
-3.67
-2.67
2.0
-0.67
2.33
-3.0
3.0
2.33
0.67
-2.0
3.0
-4.33
0.67
-1.67
4.0
-2.67
0.67
-8.33
-1.0
1.67
-0.67
0.0
1.33
-4.0
-1.0
-4.33
1.0
-3.33
1.33
-4.33
-1.33
0.67
-4.33
1.67
-2.0
-1.67
-1.67
-0.33
-3.0
2.0
-5.0
-4.67
-4.33
4.33
-2.67
-0.33
0.67
-1.0
2.33
0.67
-2.67
-2.33
1.33
-3.33
0.0
-1.0
-5.0
-5.67
-1.67
-2.0
0.67
0.67
-2.0
4.0
4.0
3.33
4.33
2.67
-4.67
-3.33
-1.67
-6.67
4.67
2.0
-2.0
1.0
-2.0
0.67
-2.67
-3.0
-0.67
1.67
-1.33
5.33
2.33
-1.33
1.0
2.0
-5.0
12.67
3.0
8.0
0.0
8.33
2.33
3.67
4.0
-3.0
-1.67
-2.33
1.67
-3.33
-2.0
6.67
4.33
0.0
4.0
4.33
3.67
4.67
-5.33
-2.0
7.0
5.33
0.33
-0.67
-5.67
4.33
3.67
-1.0
1.0
8.67
7.33
2.33
9.0
0.33
6.0
10.33
9.67
5.67
18.33
20.67
25.33
34.67
36.0
44.33
39.33
55.67
45.0
28.33
19.33
6.33
10.67
2.33
3.67
-3.67
-2.33
9.0
-0.33
5.33
8.33
5.33
5.0
10.67
19.33
12.67
6.33
9.67
12.67
15.33
14.67
22.33
19.0
28.33
29.33
33.33
37.33
55.33
51.33
56.0
37.33
36.67
21.67
5.33
18.33
17.0
18.0
2.67
12.0
6.67
13.67
19.33
25.67
36.33
19.33
12.0
11.0
27.67
24.67
20.67
16.0
16.33
24.0
25.33
29.0
32.67
31.0
33.67
47.33
42.33
31.33
44.33
42.33
45.67
17.67
23.67
12.33
32.33
17.0
12.0
16.0
22.33
13.0
14.67
6.0
21.33
8.0
17.0
18.33
19.67
16.67
21.67
10.0
8.33
7.33
11.67
4.67
12.67
13.0
7.67
24.67
24.67
22.0
22.0
25.0
20.33
18.0
27.0
13.33
26.0
21.0
16.0
26.67
25.33
16.67
0.33
16.67
7.0
11.33
22.33
39.67
56.67
54.33
117.67
124.33
133.67
152.33
150.33
150.67
143.67
102.0
123.33
135.0
126.33
114.67
104.33
89.67
54.0
43.0
37.0
17.0
16.0
12.0
20.67
11.0
12.33
23.33
31.0
21.0
16.33
31.33
40.67
59.0
53.67
59.0
46.67
76.67
61.33
60.67
46.0
37.33
46.67
29.67
45.33
22.0
35.33
30.0
17.67
13.67
17.33
14.33
14.33
23.0
15.67
12.33
14.0
2.67
7.0
5.67
5.33
13.0
13.33
7.0
33.33
9.67
17.33
15.33
1.67
14.67
26.0
21.0
19.33
20.67
21.33
28.33
29.67
51.0
27.0
38.0
31.67
23.33
34.67
32.67
37.33
34.33
27.67
24.0
25.0
22.33
22.33
18.33
26.67
27.33
17.0
31.33
13.67
35.33
22.0
28.33
28.33
11.67
10.0
15.67
19.33
20.33
13.67
8.67
7.67
13.33
5.0
2.67
-3.67
8.33
2.67
15.0
20.67
4.67
20.0
9.0
9.0
8.33
8.33
10.0
4.0
13.0
6.0
3.0
5.67
17.67
1.33
5.67
15.67
6.0
10.67
-4.0
-0.67
1.67
1.67
10.67
4.0
7.0
4.33
14.67
-5.0
3.33
9.0
2.67
3.67
11.0
-2.0
9.0
11.33
11.0
6.67
2.0
-7.0
5.0
11.67
7.33
12.0
10.0
4.0
6.33
12.67
3.0
5.0
0.33
9.0
9.67
0.33
4.0
10.0
8.0
4.67
12.67
6.33
9.0
14.33
10.0
5.33
6.0
15.0
1.0
4.33
17.0
13.0
1.0
10.33
6.0
9.33
6.33
7.33
10.33
13.0
13.33
21.0
15.0
18.0
19.0
14.67
7.33
13.0
15.67
1.33
22.67
12.67
6.67
19.0
20.33
12.33
5.67
13.67
4.67
4.0
2.67
8.67
4.67
17.67
-1.0
-3.33
2.67
7.0
6.0
3.33
19.0
14.0
7.33
10.0
13.33
7.0
21.33
21.0
6.67
12.0
9.0
4.0
4.0
-0.33
-0.67
-8.67
-2.0
-2.33
5.0
5.33
-0.33
14.67
1.67
1.67
7.67
-1.67
13.33
4.67
20.0
-2.33
-1.67
1.0
12.67
0.67
7.67
6.0
2.33
12.33
18.0
6.67
-2.33
6.33
18.0
-1.33
0.67
-0.67
2.0
2.0
10.33
0.33
-4.0
4.0
6.67
3.33
8.0
1.0
5.67
2.33
5.0
9.33
8.0
7.0
5.33
10.33
1.33
-1.0
5.0
2.67
8.67
5.0
-1.0
-6.0
-3.33
-0.33
6.0
4.67
7.0
0.0
2.67
1.67
4.67
9.33
4.33
10.0
10.67
10.67
-1.33
9.33
5.67
7.33
-4.0
8.33
5.33
0.33
7.67
12.0
8.33
1.0
3.0
3.0
-2.67
1.33
-0.33
3.33
-2.67
0.0
-1.67
-7.0
1.0
-4.33
0.33
6.0
-0.33
7.0
-1.0
-1.0
8.67
10.33
5.33
10.33
1.67
2.33
1.67
1.33
1.67
2.67
-1.33
4.0
0.33
4.33
8.67
-2.67
1.0
5.0
5.33
5.0
1.33
-2.67
4.67
5.33
1.33
5.33
1.0
0.33
3.67
1.67
8.0
0.33
3.33
7.33
5.33
5.33
4.0
8.67
-0.67
2.67
6.0
5.0
1.33
-3.33
3.33
4.0
2.67
5.67
8.33
0.67
4.67
-1.33
0.33
11.0
1.33
6.67
1.0
0.0
-2.0
5.33
3.67
3.67
5.33
3.0
-3.33
10.67
3.67
-2.67
0.0
2.33
2.67
2.67
0.67
3.67
2.33
-4.67
3.0
3.33
-1.67
3.67
4.0
5.0
2.33
0.0
2.33
-3.67
3.33
-2.67
3.33
2.33
4.67
1.67
3.67
-3.33
3.33
0.33
-2.67
1.67
-0.33