File: EDX Back Ups and Old Files/Spectra copy 3.3.23/Samples/Low pH SF 25C 9d/9.25.txt
0.0
-35.33
-28.33
10.33
30.0
-32.33
-24.33
-17.0
5.0
-30.67
-10.67
9.33
18.67
-14.33
9.0
-7.0
4.67
5.33
2.0
-1.0
-1.33
1.33
1.0
-0.33
-0.33
0.0
0.0
-0.33
-1.0
1.0
-0.33
0.0
-0.33
-0.33
0.0
-0.33
0.0
0.0
1.0
-0.33
-1.0
3.67
1.0
-0.67
-0.33
-0.33
0.33
0.67
0.33
-0.33
-0.67
0.67
-0.33
-1.67
1.0
1.0
-0.33
0.67
4.67
6.67
1.0
3.0
-0.67
1.0
1.0
0.67
-1.33
4.67
2.33
5.33
0.67
2.67
4.0
0.0
5.33
-1.0
-4.0
0.67
-2.0
-4.33
2.33
-1.0
1.67
-1.0
3.33
1.67
2.33
-7.0
1.67
1.0
3.67
4.0
2.33
1.67
3.67
8.0
8.0
-0.67
3.67
4.67
-4.0
-3.0
4.67
2.0
7.33
4.33
-5.0
6.67
4.33
3.67
3.67
0.0
7.67
0.0
-1.67
-6.0
2.0
-0.33
7.0
-2.0
7.67
4.67
5.33
6.0
4.33
-0.67
4.33
5.0
-0.67
11.67
1.0
0.0
2.33
-5.0
4.67
6.33
0.67
-2.0
-2.33
5.0
12.0
2.33
4.0
4.0
6.33
-1.0
-1.0
7.0
2.0
2.67
4.67
1.33
5.67
6.33
5.67
9.0
3.0
3.0
5.0
3.67
0.67
4.0
2.33
-1.67
4.33
1.0
-1.33
1.33
0.33
2.33
-1.33
-2.33
7.33
-2.33
0.0
6.0
3.67
6.33
2.0
-1.33
0.33
7.0
0.33
-4.67
4.33
0.0
6.33
6.0
3.0
2.67
1.0
2.33
-1.33
-3.33
-0.33
4.0
1.33
5.33
-1.33
4.33
2.33
-2.0
1.33
-2.0
-1.67
4.67
3.0
-0.67
4.0
-3.33
1.33
1.67
2.33
-2.67
-1.0
-1.0
3.33
2.0
2.0
3.33
1.0
0.33
1.33
-2.33
0.67
4.0
-0.67
5.33
2.33
-2.0
0.0
3.0
2.0
-0.67
-4.67
0.67
2.67
-0.33
2.67
4.67
3.67
0.67
5.0
-1.0
0.33
4.33
4.33
-2.67
3.0
-1.0
-2.33
4.67
0.33
4.67
3.67
-1.67
1.0
0.67
5.33
9.0
3.67
-3.33
1.33
1.0
-0.33
-4.0
1.33
3.33
3.0
5.0
5.0
-1.67
1.0
-1.0
0.0
-1.0
1.0
0.0
3.33
-3.33
2.33
4.0
-0.33
2.67
-1.67
6.0
6.33
5.0
-3.33
0.33
-2.67
-0.33
4.0
1.33
1.67
-2.33
2.0
-1.67
0.67
-3.67
1.33
0.67
2.0
-1.33
-1.67
-1.67
2.0
0.33
2.0
-2.33
2.67
5.67
3.33
4.67
2.33
1.67
3.67
-0.33
0.67
-3.33
-0.33
3.33
-1.67
-1.67
1.33
0.0
-0.67
2.33
1.33
-3.67
-1.33
1.67
7.0
1.67
2.67
1.33
-6.67
-4.67
-2.0
5.33
-1.67
0.0
3.0
2.33
-1.33
3.0
-3.0
-6.33
2.67
6.33
0.0
0.33
-2.33
-2.33
6.0
-4.33
2.33
7.0
-1.67
-1.0
2.0
0.67
2.0
2.67
-3.67
1.67
-2.33
-2.33
-6.33
-0.33
-6.0
2.33
-2.67
0.67
3.0
-6.0
-2.0
-8.67
0.67
2.33
-4.67
-1.33
-3.33
2.0
-4.67
2.67
2.33
0.67
-2.67
-0.33
-1.0
-1.0
-2.0
2.33
-4.67
2.0
3.67
3.67
-2.0
-2.0
-1.0
3.33
1.33
-1.33
-1.67
3.67
-1.67
-1.67
0.67
6.0
-3.0
7.0
3.0
-1.33
-1.67
1.0
7.33
-0.33
-3.33
-1.67
7.33
6.67
2.0
-1.0
0.0
3.67
5.0
-1.0
-1.0
-0.67
0.33
2.67
-2.0
-1.0
-0.67
-2.33
8.67
-6.33
3.0
5.67
3.33
-4.0
3.0
-4.67
5.67
-1.33
4.67
5.0
0.0
6.33
0.33
3.33
-0.67
0.33
0.67
-2.0
8.0
15.67
6.33
3.33
17.0
7.33
1.0
22.33
16.67
17.67
29.33
22.67
35.33
39.67
44.0
42.33
36.33
32.67
27.0
14.33
8.33
14.33
8.67
2.33
4.67
-1.67
5.67
13.0
7.67
7.33
10.33
15.33
11.0
14.67
36.33
44.67
30.33
46.67
36.67
67.33
39.67
46.33
44.0
45.33
20.33
44.33
41.33
51.33
57.33
46.0
35.33
30.67
21.67
24.33
8.33
-1.0
24.0
4.67
17.0
11.67
24.67
21.33
44.67
21.33
24.33
20.0
28.0
14.67
15.67
23.67
19.0
7.33
21.0
29.33
26.0
27.67
33.0
33.67
54.33
49.33
58.33
67.33
69.33
52.67
38.67
39.67
30.33
18.33
22.0
9.0
13.0
10.33
15.0
12.67
20.0
28.33
17.0
20.0
15.33
13.67
4.67
15.67
18.0
15.33
3.33
18.67
15.67
6.67
2.0
12.67
8.67
19.67
13.0
3.0
5.0
11.33
28.0
6.0
11.33
21.0
20.0
36.0
16.67
15.33
19.67
15.33
12.67
15.0
18.33
15.33
4.67
48.67
51.33
73.67
111.33
135.67
184.33
219.33
208.67
243.67
231.0
210.33
188.0
164.33
141.67
110.33
92.67
79.0
38.0
29.0
29.0
26.0
25.0
26.67
8.0
9.33
6.33
29.0
32.0
34.33
46.33
47.67
51.0
27.67
47.0
52.67
49.67
54.33
42.67
46.0
51.33
49.67
47.67
38.33
29.0
27.33
28.0
22.67
17.67
17.33
13.33
8.33
10.0
9.67
14.33
20.0
9.67
10.0
5.67
8.33
7.0
23.33
19.0
9.33
12.67
16.33
22.33
7.67
16.67
18.0
29.0
34.33
25.67
44.33
29.33
39.67
47.0
38.0
51.0
32.67
46.33
42.67
47.67
31.33
39.33
22.67
19.0
29.0
21.33
16.33
13.33
21.67
10.33
32.0
13.33
31.67
23.33
17.0
23.33
19.33
20.67
18.0
8.67
12.33
20.33
9.67
5.67
2.67
12.33
22.0
12.67
24.33
12.33
16.67
16.0
17.67
8.67
8.0
7.0
12.0
7.33
3.33
-2.0
7.0
15.0
2.0
3.0
8.67
7.67
3.33
11.67
8.67
2.0
5.67
9.0
3.33
8.67
11.67
0.67
0.0
-2.0
2.33
15.67
10.0
5.33
2.0
7.67
-5.33
9.0
12.0
-2.0
6.33
1.0
3.67
2.0
4.0
5.0
18.67
6.33
-2.0
8.0
8.0
15.33
26.67
11.0
7.0
6.33
10.0
-12.33
0.33
14.0
-3.0
1.0
-3.33
5.67
6.33
9.0
-4.67
1.0
12.33
11.0
5.0
-8.0
-1.67
17.0
0.0
12.0
7.33
5.0
7.33
15.33
11.33
15.33
22.0
14.33
8.0
-2.0
24.0
15.0
14.67
16.33
9.0
12.67
10.33
18.67
22.67
-1.33
18.0
5.33
12.33
8.67
0.67
19.67
12.0
2.67
9.67
10.67
7.67
-1.0
-0.33
4.67
0.0
5.0
2.33
12.0
7.0
1.33
14.0
-0.67
8.0
-0.67
8.0
-6.33
5.0
8.0
1.0
5.0
0.67
2.33
0.33
7.0
8.67
3.0
-1.67
1.67
5.67
2.67
5.67
-6.33
0.33
12.33
0.67
6.0
-2.33
-1.67
3.0
11.67
4.67
1.67
-4.0
7.33
10.33
7.0
2.67
-3.33
-0.67
10.0
10.67
-1.33
5.33
6.0
0.0
0.33
1.33
-3.0
-1.0
3.67
3.33
3.0
1.0
-3.33
3.33
2.0
18.33
6.0
-2.0
4.33
6.33
3.33
7.0
14.0
3.67
6.67
9.0
2.0
-1.0
2.67
0.67
6.0
8.67
6.0
-2.0
9.67
6.67
4.67
5.33
3.33
5.0
-2.33
3.67
-2.33
9.33
-1.33
2.33
-1.0
1.33
0.33
2.33
3.67
10.0
5.33
0.0
-7.0
6.0
-3.67
5.33
-7.33
-2.67
0.33
-4.0
0.33
-2.0
2.0
0.67
6.33
3.0
3.67
3.0
-4.0
2.0
3.67
5.33
1.33
2.33
-1.33
1.33
2.67
-0.67
4.67
2.67
8.67
-1.0
2.33
3.33
-2.33
5.33
0.0
17.0
9.33
14.0
-1.67
-1.67
2.67
14.33
5.33
5.33
6.0
-4.67
-1.33
-2.33
-1.0
2.33
4.33
2.33
8.33
0.33
3.0
-4.33
4.33
7.67
4.0
9.0
4.33
-1.33
2.33
3.0
-0.33
3.67
-0.67
1.67
4.67
-0.33
-1.67
3.0
4.33
10.67
-1.0
7.0
2.0
7.33
0.67
0.67
1.33
8.0
-1.33
5.67
6.67
11.33
8.0
3.33
0.67
-0.33
-0.33
-1.33
3.33
1.33
1.0
-0.67
-4.67
9.67
1.0
1.0
5.33
-2.0
5.33
4.33
2.33
-1.67
0.33
2.33
-1.33
-4.33
-2.33
-4.33
-2.67
1.33
2.33
6.67
0.67