File: EDX Back Ups and Old Files/Spectra copy 3.3.23/Samples/High pH BL 60C 6d/11.0.txt
0.0
49.0
57.67
54.33
-5.67
51.0
77.33
-25.33
52.0
11.67
-4.67
-1.0
6.0
-6.0
-1.33
-2.0
4.33
3.33
-0.67
-1.33
-1.33
1.0
0.0
1.0
-1.33
0.0
-0.33
2.0
-0.33
0.67
-0.67
1.0
-0.33
1.0
0.0
2.0
-0.33
0.0
-0.33
-0.33
0.33
0.67
-1.0
3.67
0.0
-0.33
2.0
0.0
1.33
0.33
0.33
0.33
0.33
-1.33
1.33
-1.33
0.0
-2.67
-0.33
0.0
2.0
-0.67
-0.67
-3.67
-1.0
0.0
5.33
7.67
0.0
-1.0
-3.67
-1.0
7.0
5.33
-2.33
-5.33
0.33
-4.33
4.0
1.67
-1.0
3.0
2.33
-3.67
3.67
-4.33
2.0
-0.33
11.67
4.0
1.0
-0.67
-1.0
2.0
2.67
8.67
-1.33
-1.0
3.67
6.67
-0.67
2.67
-0.33
-1.33
8.0
-5.33
1.33
-6.33
4.33
1.67
2.33
-2.67
-4.33
6.67
-2.67
2.33
2.33
0.67
5.67
3.67
-4.67
1.0
1.33
-4.0
6.67
2.33
10.0
-1.67
5.0
2.67
8.67
6.67
2.33
4.33
7.0
-0.33
2.0
1.67
1.33
1.0
0.67
4.0
2.0
4.0
8.0
0.0
-0.67
7.33
0.33
-4.33
5.33
-5.33
12.33
-1.0
0.0
-2.33
-4.67
5.0
4.67
-4.0
9.0
2.33
-3.33
4.67
1.0
-6.33
6.0
0.67
-4.33
-2.0
-2.0
5.33
-0.33
0.33
-3.33
6.0
2.0
-1.0
-0.67
2.33
4.0
3.0
-4.33
-3.0
2.0
-7.0
-3.0
0.0
3.0
0.33
-3.33
-1.67
0.33
3.33
2.0
0.0
-4.0
8.0
-2.0
-3.33
1.0
-1.0
4.0
-3.33
-1.0
-2.0
2.67
2.67
3.67
4.0
-0.33
-0.67
-0.67
-1.33
6.67
-0.67
5.0
6.33
-6.0
0.0
0.0
-4.67
-0.33
2.67
-0.67
-5.0
-3.0
4.67
1.0
4.33
-3.67
-0.67
-2.67
-3.67
2.33
0.0
2.0
2.33
1.0
0.0
3.67
0.33
-5.0
2.33
-1.67
-1.67
1.33
-2.0
-2.0
2.67
6.67
2.67
-1.67
3.0
-3.67
2.67
2.67
-0.67
1.0
2.0
-1.0
-0.67
-2.33
-1.33
-1.33
3.33
-3.0
1.0
-2.67
-2.33
-0.67
-0.67
-0.67
3.67
-1.33
-1.0
5.67
-1.33
-5.33
4.0
-0.33
-1.67
-2.67
-3.33
-1.0
-2.0
6.33
2.33
-2.33
0.0
-4.67
-0.67
5.0
1.67
2.33
-1.67
-3.0
0.0
-2.33
2.67
-4.67
5.0
1.0
2.0
4.33
2.0
-4.67
2.67
2.0
-3.0
-3.0
1.67
5.0
1.33
-1.0
0.67
-0.67
2.33
-0.33
-1.0
3.33
1.33
3.67
1.33
-0.33
0.67
-1.67
2.67
-0.33
0.0
-0.67
1.67
0.33
5.67
3.33
2.67
1.33
1.67
0.0
7.33
-3.33
-1.33
-0.67
-4.67
-4.0
-5.33
0.0
2.67
1.67
0.0
-2.67
1.0
-1.33
-0.33
0.0
-1.33
0.0
2.67
0.0
6.67
5.0
-3.33
-2.33
-0.33
-4.67
-2.33
3.33
4.0
-3.0
0.33
-2.67
6.33
0.0
1.33
0.0
1.0
2.0
0.0
-1.0
2.0
1.67
2.0
-3.67
4.0
6.33
3.33
-2.0
1.0
0.0
-2.0
-0.33
-5.33
3.67
-1.67
4.0
6.33
0.0
-0.33
3.0
4.33
3.0
-2.33
0.67
5.33
2.33
3.0
6.67
1.67
4.67
6.67
1.0
0.33
1.67
4.0
-1.67
2.0
-0.33
4.0
2.67
3.67
0.33
-1.67
1.0
-1.67
4.0
-1.33
7.33
0.33
-1.33
8.33
0.0
-1.67
6.33
7.0
2.33
-1.33
-0.33
3.0
2.67
4.33
1.33
4.33
7.67
7.67
-1.33
6.67
-0.33
9.0
4.33
0.33
5.0
5.0
5.33
5.0
1.67
5.0
12.33
-5.33
2.33
3.67
7.33
0.0
-0.33
9.33
5.33
5.67
2.67
0.33
4.67
4.0
6.67
4.0
9.67
4.0
7.67
6.67
8.67
7.0
1.0
0.0
17.67
2.67
7.33
5.0
3.33
9.0
2.0
9.0
8.33
6.33
-1.33
7.33
3.0
5.67
11.0
4.33
1.0
4.67
9.0
2.0
8.33
7.33
10.0
13.33
1.33
9.33
10.0
5.0
7.67
11.33
16.0
23.0
20.67
25.67
29.0
27.33
43.33
38.0
48.67
28.67
31.33
31.33
38.33
23.67
24.33
17.0
21.0
6.67
14.0
4.67
6.67
8.67
8.67
0.67
11.33
1.33
9.0
5.0
8.67
6.0
7.67
1.0
7.0
8.67
2.0
8.33
9.33
8.67
1.33
2.33
5.0
3.67
1.33
10.0
9.33
2.0
11.0
7.33
14.0
1.67
3.67
6.67
1.33
11.67
2.33
6.67
5.67
6.0
4.33
11.0
3.67
13.67
3.0
2.0
19.0
9.33
1.67
12.67
2.0
3.33
5.0
0.33
12.33
5.33
12.67
8.33
8.67
18.33
20.33
5.0
21.33
9.0
11.33
1.0
-7.67
7.33
10.33
5.33
5.67
11.0
3.33
-3.0
2.33
-1.33
13.0
6.0
10.0
10.33
1.33
9.33
2.0
10.0
10.0
5.33
9.33
8.67
12.0
9.33
16.0
11.67
3.67
9.33
13.67
6.67
11.33
13.33
0.33
4.0
6.67
11.33
9.0
7.0
19.0
1.33
3.67
4.0
7.67
9.0
6.0
10.0
11.33
13.67
4.67
15.0
23.67
22.67
27.33
43.0
50.0
76.67
99.33
95.33
145.33
171.67
155.33
188.0
238.67
220.33
234.33
224.0
193.67
195.33
169.67
142.33
119.33
82.0
64.0
49.67
29.0
22.33
12.67
5.67
10.67
11.0
20.0
2.33
-0.33
12.33
-1.67
5.67
8.67
5.33
9.0
8.0
3.67
7.33
18.67
8.33
8.0
16.0
10.0
16.33
5.33
1.0
8.67
10.33
12.0
14.0
5.67
17.0
14.0
7.67
12.0
3.67
10.0
11.0
-1.33
10.33
6.33
16.33
-1.0
3.67
3.67
-7.33
4.33
4.33
6.67
18.0
0.0
9.0
20.33
13.33
0.0
-6.33
6.33
0.67
4.33
6.67
21.67
9.33
2.67
8.67
-4.67
1.0
5.33
12.33
3.33
1.33
7.67
10.33
13.0
11.33
0.33
8.0
6.33
7.0
1.33
10.33
6.33
11.0
3.0
1.0
6.67
15.33
9.0
10.0
3.33
6.67
1.0
1.67
10.33
-8.0
11.67
0.0
-0.33
16.67
6.33
6.33
-1.67
11.33
-9.33
-7.67
-4.33
-13.33
-0.67
10.0
4.0
4.33
1.67
11.67
3.67
8.67
-0.67
-3.0
6.0
-10.67
-1.0
12.67
-8.33
5.33
2.67
7.0
4.0
2.33
8.0
6.33
13.67
6.67
23.33
10.33
13.0
20.0
8.0
14.33
-5.33
13.0
9.0
15.33
14.33
7.0
7.67
-1.0
10.0
10.67
-9.33
3.0
-11.0
16.33
2.0
7.67
9.0
11.67
0.33
-10.67
-3.33
3.67
4.0
0.0
12.67
9.33
3.33
-5.67
11.67
2.33
4.33
6.67
-4.0
2.0
0.33
-0.67
6.0
1.67
0.67
2.0
11.33
2.33
-4.0
-0.33
6.0
15.67
0.33
-7.33
6.67
-0.67
5.33
-8.0
6.0
-2.67
7.0
-2.0
1.33
6.0
-4.67
1.33
1.33
7.33
8.33
4.67
10.0
-4.67
16.0
10.0
6.67
19.33
14.0
7.33
13.67
0.33
7.33
17.67
6.67
-0.33
15.67
1.0
11.33
-2.0
2.33
1.33
7.33
4.67
7.67
-6.0
2.0
-9.0
2.67
-3.67
16.33
2.0
-1.0
1.0
-1.33
4.0
-5.67
-9.67
3.0
2.0
-4.0
0.0
-4.0
-2.67
7.67
6.0
11.67
1.67
5.0
3.67
10.0
-3.67
-3.33
1.0
-1.0
-2.0
3.33
-10.33
-3.0
3.33
5.67
7.67
-1.33
9.33
13.33
0.0
0.67
-3.33
-3.0
1.67
5.67
2.0
-4.67
3.33
-0.33
4.0
-1.0
3.67
5.67
6.0
-5.67
5.33
-2.67
4.0
12.67
-0.67
9.33
2.33
7.33
0.0
4.0
9.67
-1.0
4.67
9.33
0.33
9.0
1.67
0.67
3.67
1.67
-4.0
-1.67
-2.0
-0.33
-7.0
-3.67
0.33
-0.67
-5.67
-4.67
-5.0
-5.67
-4.67
4.67
5.0
6.0
3.0
-7.0
7.67
2.33
-0.67
-2.33
-3.0
3.67
-3.33
3.67
1.33
-1.33
-0.33
8.33
1.67
1.67
-1.0
0.33
0.0
-2.33
2.67
3.0
3.0
1.0
3.0
-2.33
2.67
-1.33
1.67
1.67
2.0
-1.0
2.0
2.33
2.33
-2.67
0.0
-3.67
0.67
0.0
6.0
-2.67