File: EDX Back Ups and Old Files/Spectra copy 3.3.23/Samples/High pH BL 60C 6d/11.25.txt
0.0
52.0
52.67
85.33
6.33
-37.0
-1.67
-13.33
52.0
-14.33
-40.67
3.0
-12.0
-3.0
4.67
1.0
0.33
-0.67
-0.67
-2.33
-1.33
3.0
0.0
1.0
-1.33
0.0
0.67
2.0
-0.33
-0.33
2.33
1.0
-0.33
0.0
0.0
0.0
-0.33
-1.0
-0.33
-0.33
-0.67
-0.33
0.0
-0.33
1.0
-0.33
2.0
0.0
0.33
0.33
-0.67
-1.67
0.33
-1.33
0.33
0.67
-1.0
-1.67
-0.33
2.0
-1.0
1.33
-2.67
-2.67
2.0
6.0
1.33
1.67
1.0
0.0
-0.67
-1.0
7.0
0.33
-2.33
4.67
-2.67
-3.33
8.0
3.67
1.0
3.0
0.33
5.33
-2.33
-4.33
-5.0
1.67
0.67
2.0
2.0
1.33
0.0
2.0
11.67
0.67
2.67
0.0
2.67
8.67
4.33
0.67
-5.33
1.67
1.0
-5.33
0.33
-9.33
1.33
0.67
1.33
0.33
-7.33
-3.33
1.33
3.33
-0.67
2.67
1.67
-3.33
-2.67
2.0
3.33
-3.0
9.67
6.33
0.0
2.33
11.0
4.67
3.67
1.67
-1.67
-0.67
10.0
-3.33
6.0
-2.33
4.33
3.0
2.67
2.0
6.0
3.0
1.0
0.0
1.33
1.33
4.33
-0.33
-3.67
-7.33
3.33
4.0
-5.0
0.67
-0.67
-1.0
4.67
-5.0
0.0
-4.67
3.67
4.67
-4.0
-3.33
2.0
-3.33
0.67
7.0
-2.0
-0.67
-6.33
7.33
2.67
0.0
8.0
2.0
-5.67
-0.67
1.0
11.0
1.67
1.0
3.0
6.0
-4.0
4.0
7.0
-1.67
-5.33
-4.67
-5.67
9.33
1.0
3.0
0.0
0.0
0.0
-0.33
4.0
-5.0
1.0
-7.33
6.0
2.0
-3.33
-1.33
1.67
-3.0
-3.33
-0.67
-2.67
2.67
-0.33
1.33
4.0
3.33
5.0
-1.0
5.0
-1.67
5.67
3.67
-4.67
-1.0
-1.0
-0.33
5.0
5.33
-0.67
1.33
2.33
1.33
4.33
3.0
2.0
-3.67
-1.0
0.0
-0.33
-2.67
-2.0
-0.67
0.33
-2.67
3.33
-2.0
0.0
-0.33
3.67
1.67
-1.67
1.0
-3.67
-0.33
1.67
0.33
2.0
1.0
1.0
2.33
-0.33
-0.33
4.67
4.33
-1.0
-1.0
-3.67
3.67
4.33
0.33
2.33
-0.33
0.67
-3.0
0.67
-0.33
-5.33
3.0
2.67
-1.67
-0.67
0.67
2.0
-3.0
2.33
-1.67
-1.33
2.0
2.33
-4.67
0.0
-3.33
4.33
-1.67
-3.0
0.0
-3.33
4.67
0.33
4.0
3.0
1.0
-3.67
4.0
-2.67
-0.33
0.0
-1.0
-1.0
-3.33
-2.0
4.33
5.0
-1.33
-1.67
-0.67
-1.33
0.0
1.33
-1.67
5.67
-2.67
2.67
4.67
3.33
3.67
-1.33
3.0
-3.67
-2.33
1.33
1.67
-1.67
-3.33
-1.67
-3.33
5.0
4.33
-1.33
-0.33
1.33
0.33
1.0
-1.33
3.0
3.67
-1.33
1.0
-1.67
9.0
-2.33
-2.33
5.0
1.67
-1.0
12.67
1.0
7.67
3.0
0.67
-5.33
2.67
4.33
5.67
3.33
6.0
-2.0
1.33
-3.67
1.33
-1.0
2.33
-4.0
3.0
0.0
-1.0
1.0
4.0
3.67
-2.0
0.33
3.0
1.33
4.33
1.0
6.0
2.0
-5.0
-1.33
-1.33
-1.33
1.33
1.0
2.33
4.0
0.67
5.0
0.33
-1.0
5.67
-7.33
3.33
6.33
-6.0
-0.33
4.67
0.67
5.67
-4.0
3.33
-0.33
2.0
-5.67
6.0
-0.33
4.0
8.67
4.67
2.33
-0.67
3.0
4.33
0.0
3.67
9.33
3.33
3.67
12.33
-5.0
-4.67
4.33
3.0
6.33
-2.33
3.67
8.0
4.67
4.33
3.33
5.33
-0.33
3.67
-0.33
5.67
3.67
7.0
10.33
8.33
5.0
3.0
6.33
9.0
-3.33
4.0
-2.67
-0.33
8.33
-0.33
8.33
4.0
-1.33
2.33
-7.67
5.67
6.67
-5.67
1.67
9.0
1.67
5.0
11.67
6.0
1.67
0.67
2.67
3.0
-1.0
-3.0
6.67
6.67
8.33
7.0
6.33
1.0
1.0
2.0
6.33
1.33
4.67
5.33
9.0
8.67
2.0
8.33
2.0
2.67
6.0
4.0
5.33
11.33
8.0
5.33
11.33
16.33
9.0
9.0
6.67
3.33
17.0
18.0
31.67
31.67
33.0
38.33
47.33
57.0
38.67
40.67
34.33
34.33
35.33
20.67
17.33
22.0
19.0
4.67
3.0
10.67
6.67
8.67
6.67
5.67
4.33
-0.67
13.0
7.0
0.67
7.0
12.67
7.0
1.0
7.67
4.0
10.33
6.33
8.67
1.33
3.33
7.0
9.67
20.33
6.0
-0.67
7.0
6.0
8.33
3.0
0.67
5.67
9.67
4.33
8.67
7.33
1.67
0.67
1.0
-0.67
16.0
6.67
4.67
7.0
6.0
11.0
5.33
16.67
10.67
13.0
11.33
7.0
11.33
0.33
5.33
7.67
3.33
5.67
14.33
9.33
-1.0
1.33
12.0
13.33
10.0
18.33
-6.67
14.33
13.33
1.67
1.0
5.33
1.0
4.33
2.67
12.0
7.0
9.0
6.33
4.33
9.33
3.0
10.0
7.0
2.33
8.33
8.67
16.0
1.33
14.0
1.67
7.67
7.33
16.67
-3.33
13.33
3.33
8.33
4.0
16.67
21.33
8.0
12.0
5.0
5.33
-0.33
10.0
7.67
8.0
5.0
4.0
12.33
14.67
20.67
7.0
14.67
17.67
22.33
44.0
49.0
53.67
101.33
106.33
112.33
162.67
178.33
219.0
227.67
226.33
246.33
217.0
261.67
207.33
176.67
153.33
98.33
104.0
64.0
44.67
33.0
24.33
24.67
8.67
21.67
14.0
13.0
-1.67
8.67
9.33
5.33
16.67
5.67
4.33
18.0
4.0
-0.33
26.33
4.67
21.33
10.0
10.0
9.0
9.33
8.33
5.0
13.67
10.33
15.0
10.0
-4.33
14.0
6.0
18.67
11.0
13.67
15.0
11.0
14.67
7.33
2.33
12.33
-1.0
1.67
6.67
-6.33
-6.67
9.33
10.67
7.0
8.0
8.0
11.33
15.33
-5.0
7.67
16.33
5.67
5.33
6.67
11.67
-1.67
16.67
11.67
0.33
0.0
5.33
6.33
11.33
4.33
8.67
10.33
12.0
17.33
5.33
5.0
4.33
18.0
-1.67
2.33
7.33
5.0
8.0
-2.0
1.67
4.33
-1.0
3.0
7.33
15.67
14.0
-1.33
12.33
-3.0
0.67
-3.0
-7.33
18.67
6.33
12.33
6.33
14.33
-3.33
2.33
2.67
-1.33
2.33
11.0
13.0
1.33
1.67
-0.33
6.67
8.67
1.33
9.0
2.0
1.33
1.0
-1.33
11.67
-6.67
13.67
3.0
5.0
-1.67
-4.0
12.33
10.67
9.67
6.33
21.33
15.0
24.0
11.0
24.33
14.67
20.0
16.0
15.33
16.33
4.0
8.67
-1.0
11.0
2.67
1.67
7.0
5.0
-10.67
7.0
15.67
15.0
1.67
4.33
-4.67
-5.33
7.67
-6.0
-4.0
8.67
5.33
3.33
6.33
2.67
1.33
9.33
1.67
-2.0
5.0
-4.67
2.33
-6.0
-10.33
-0.33
-8.0
2.33
-2.67
0.0
11.67
5.0
18.67
1.33
-7.33
9.67
4.33
-1.67
-2.0
-5.0
-4.67
4.0
4.0
6.33
4.0
0.33
4.33
-6.67
11.33
12.33
8.67
4.0
8.33
23.0
13.0
11.67
5.33
12.0
13.33
14.67
18.33
16.33
8.67
8.67
6.67
0.67
1.0
3.33
0.0
10.33
-1.67
-2.67
4.67
-4.33
-3.0
3.0
-8.0
6.67
-3.67
6.33
10.0
4.0
-1.0
4.67
-5.0
-3.67
-0.67
4.0
3.0
1.0
-3.0
-2.0
6.33
-7.33
7.0
5.67
-4.33
6.0
-0.33
6.0
-1.67
0.67
4.0
2.0
-5.0
3.33
-2.33
2.0
2.33
1.67
9.67
-2.33
-3.67
1.33
3.0
7.67
0.67
-4.0
-0.33
-3.33
-6.0
5.33
6.33
4.67
1.0
7.0
3.67
8.67
4.0
-0.67
-1.67
2.33
4.0
13.67
3.33
8.33
13.33
7.33
-3.0
6.0
6.67
2.0
8.67
13.33
5.33
1.0
0.67
0.67
6.67
1.67
-5.0
1.33
-2.0
4.67
-4.0
0.33
-5.67
0.33
-2.67
3.33
-2.0
-0.67
1.33
-0.33
1.0
2.0
0.0
-2.0
-2.33
4.33
-3.67
-5.33
-1.0
6.67
-5.33
3.67
-2.67
0.67
4.67
8.33
0.67
1.67
1.0
0.33
0.0
-3.33
0.67
0.0
2.0
10.0
-4.0
-3.33
5.67
-4.33
-0.33
2.67
0.0
-8.0
-2.0
3.33
3.33
-1.67
-1.0
-1.67
0.67
0.0
-5.0
-2.67