File: EDX Back Ups and Old Files/Spectra copy 3.3.23/Samples/High pH BL 60C 6d/11.75.txt
0.0
43.0
77.67
49.33
27.33
-43.0
-61.67
4.67
24.0
8.67
-1.67
14.0
-11.0
1.0
-1.33
-2.0
3.33
2.33
0.33
-1.33
-1.33
1.0
-1.0
1.0
-0.33
0.0
2.67
1.0
0.67
0.67
-0.67
0.0
-0.33
1.0
0.0
1.0
0.67
0.0
-0.33
-0.33
0.33
-0.33
0.0
-0.33
0.0
-0.33
0.0
-1.0
-0.67
-0.67
1.33
-1.67
2.33
0.67
-0.67
-1.33
0.0
0.33
0.67
0.0
-3.0
-0.67
0.33
-0.67
1.0
1.0
1.33
-3.33
1.0
-4.0
-4.67
2.0
3.0
3.33
-1.33
2.67
-2.67
-3.33
0.0
5.67
-6.0
5.0
2.33
5.33
1.67
11.67
-3.0
-0.33
-2.33
-5.0
4.0
-3.67
0.0
-2.0
10.67
1.67
-0.33
-1.0
5.67
4.67
1.33
3.67
-7.33
5.67
7.0
6.67
-4.67
-2.33
-0.67
1.67
-1.67
0.33
0.67
-4.33
-2.67
4.33
4.33
2.67
1.67
2.67
3.33
0.0
4.33
5.0
7.67
0.33
7.0
2.33
6.0
3.67
2.67
3.67
-2.67
-1.67
-1.0
3.67
2.0
-1.33
2.33
4.0
-0.33
3.0
-1.0
13.0
0.0
-2.0
5.33
0.33
1.33
-0.33
5.33
-3.33
6.33
-2.0
-2.0
-3.33
7.33
4.0
0.67
0.0
3.0
-3.67
-3.33
-2.33
-1.0
-2.33
5.0
4.67
-0.33
-3.0
-3.0
-2.67
-4.33
11.33
-6.33
-3.0
3.0
2.0
1.33
1.33
4.0
7.0
-4.33
-3.0
2.0
-1.0
8.0
-4.0
-1.0
-3.67
-5.33
1.33
6.33
4.33
-2.0
3.0
-1.0
-1.0
3.0
-7.33
6.0
-6.0
11.0
1.67
0.0
2.0
-0.33
3.67
-0.33
2.0
-1.33
-2.67
-0.67
-3.33
2.67
4.33
1.0
-2.67
0.0
-3.0
-1.0
-0.67
3.67
2.67
-3.67
-4.0
3.0
2.67
-2.0
3.33
1.33
4.33
0.33
-1.67
2.33
0.0
-2.0
2.33
-2.0
2.0
0.67
1.33
-8.0
-1.67
-0.67
1.33
-0.67
0.0
-2.0
-2.33
-0.33
0.67
-3.67
-3.0
-3.67
0.67
2.67
-0.67
2.0
0.0
1.0
-1.67
-0.33
-4.33
7.67
1.33
2.0
-3.0
0.33
-0.33
-1.67
0.33
-2.67
2.67
2.67
-4.0
2.67
1.67
-3.33
5.0
2.67
-0.67
2.33
-1.33
-1.0
-2.0
-0.67
4.33
1.67
3.0
-1.67
2.33
4.0
7.67
0.33
0.33
2.0
-3.0
-1.33
3.67
-3.67
4.0
-1.0
2.0
-0.67
1.0
-6.67
5.67
1.0
-3.0
-2.0
0.67
-2.0
1.33
-1.0
0.67
2.33
-0.67
3.67
-2.0
1.33
-0.67
0.67
1.33
5.67
3.67
7.33
0.67
-1.33
2.0
0.33
3.67
0.33
0.67
1.33
-2.33
-1.67
-0.33
-2.0
8.33
-1.33
0.67
0.33
3.33
1.0
-2.33
1.0
3.67
0.67
1.0
1.33
4.0
2.67
-1.33
6.0
1.67
4.0
2.67
-3.0
0.67
5.0
1.67
-0.33
1.67
-0.67
1.67
0.33
3.0
-1.0
1.33
3.33
2.33
4.0
3.33
2.0
3.0
5.0
3.0
-3.0
0.0
0.67
-3.0
-2.67
5.0
5.33
-0.67
2.0
8.0
5.0
-1.0
-3.33
-1.33
3.67
5.33
0.0
4.33
0.0
1.67
1.0
1.33
0.0
12.67
-3.33
6.33
-5.67
-1.0
-4.33
0.67
2.67
-4.33
-3.0
1.33
3.67
7.0
0.33
5.0
6.67
6.0
4.67
-1.33
2.33
-0.67
-2.0
-0.67
8.0
1.67
3.33
1.33
2.67
7.33
-1.0
0.33
0.33
4.0
2.33
-2.33
12.67
-3.0
2.67
7.33
4.33
10.33
11.67
-2.33
1.67
8.67
4.67
6.0
5.33
-2.67
-1.0
5.0
8.33
11.0
1.67
5.0
3.33
6.67
10.33
7.67
1.33
3.0
-0.33
9.33
0.33
7.67
1.67
0.33
8.67
8.0
3.67
8.0
8.67
6.0
8.67
3.67
9.67
7.0
3.0
1.0
-2.33
12.67
5.33
0.0
10.33
6.0
5.0
4.0
11.33
3.33
11.67
2.33
-3.0
3.67
0.0
6.33
2.0
8.67
6.0
4.0
8.33
6.33
9.0
9.33
10.33
8.33
10.0
4.0
11.67
10.33
7.0
18.0
30.67
13.67
21.0
30.33
42.33
45.0
43.67
45.67
40.33
35.33
20.33
37.67
19.33
22.0
17.0
11.67
7.0
4.67
14.67
-0.33
9.67
6.67
11.33
0.33
8.0
2.0
8.67
11.0
4.67
7.0
7.0
5.67
13.0
5.33
9.33
4.67
7.33
10.33
9.0
13.67
11.33
4.0
6.33
7.0
5.0
13.33
15.0
14.67
5.67
14.67
6.33
9.67
1.33
8.67
5.67
6.0
8.33
6.0
12.67
9.67
-3.0
0.0
18.0
11.33
19.67
2.67
10.0
-0.67
2.0
11.33
2.33
4.33
6.67
8.33
10.67
6.33
11.33
0.0
1.33
-5.0
12.33
17.0
14.33
-9.67
23.33
0.33
7.67
9.0
9.33
5.0
4.33
-2.33
16.0
6.0
7.0
6.33
7.33
1.33
6.0
12.0
5.0
-1.67
6.33
9.67
14.0
11.33
8.0
15.67
18.67
6.33
5.67
-2.33
10.33
5.33
11.33
8.0
8.67
9.33
1.0
11.0
5.0
0.33
3.67
15.0
6.67
9.0
17.0
12.0
7.33
15.67
11.67
21.0
20.67
21.67
40.33
34.0
64.0
74.67
103.33
108.33
153.33
179.67
223.33
247.0
259.67
248.33
272.33
297.0
265.67
247.33
209.67
169.33
155.33
97.0
88.0
51.67
36.0
30.33
17.67
20.67
18.67
13.0
16.0
2.33
13.67
5.33
12.33
2.67
5.67
17.33
3.0
11.0
-0.33
9.33
4.67
3.33
-4.0
2.0
-1.0
-6.67
-0.67
3.0
4.67
11.33
1.0
9.0
0.67
12.0
4.0
9.67
5.0
11.67
10.0
16.0
7.67
4.33
-2.67
12.33
2.0
11.67
12.67
-2.33
-3.67
9.33
5.67
16.0
6.0
2.0
14.33
7.33
-4.0
-2.33
14.33
-0.33
1.33
4.67
17.67
-5.67
6.67
19.67
-4.67
6.0
11.33
-2.67
19.33
5.33
0.67
18.33
3.0
3.33
-2.67
1.0
3.33
13.0
-0.67
3.33
10.33
2.0
9.0
-5.0
-4.33
8.33
14.0
-1.0
12.33
4.67
17.0
8.67
1.33
-7.0
8.67
-2.0
13.67
2.67
3.33
15.33
12.33
-0.67
-1.33
-0.67
-0.33
-8.33
-8.67
4.0
-3.0
2.33
8.67
0.67
7.67
2.67
9.33
-4.0
3.0
-2.67
-2.0
-2.33
11.67
16.33
3.67
0.0
11.0
7.33
2.0
14.33
6.67
2.67
7.33
4.33
6.0
25.0
30.0
18.33
12.67
6.0
10.0
19.33
11.33
11.0
13.67
-10.0
5.0
6.67
-1.33
12.0
1.0
-0.67
2.0
1.67
-2.0
13.67
2.33
4.33
0.67
-7.33
5.0
-8.0
6.67
9.33
18.33
-0.67
4.67
4.33
-4.67
-2.33
12.0
-3.0
3.33
-3.67
0.0
-0.33
-4.33
-6.0
2.33
7.33
11.0
6.67
6.0
6.67
-2.67
-5.33
0.67
-7.67
3.33
2.0
4.0
-5.67
5.0
-3.0
3.33
1.0
-3.67
-2.67
7.33
4.33
12.33
-3.33
14.0
13.33
8.0
27.0
5.67
2.33
35.0
11.33
6.67
12.33
4.33
5.67
1.67
7.67
18.67
-6.0
9.33
5.0
-0.67
2.33
0.33
4.67
2.67
-5.0
5.0
0.0
0.67
-5.67
9.33
10.0
2.0
2.0
2.67
-3.0
-1.67
2.33
2.0
-2.0
7.0
-3.0
-2.0
-4.67
-0.33
6.0
4.67
-0.33
0.0
9.67
2.0
-0.67
8.67
2.0
0.0
-6.0
4.33
-4.33
1.0
1.33
-0.33
-2.33
1.67
-9.67
2.33
0.0
2.67
-4.33
-5.0
-0.33
3.67
-3.0
8.33
2.33
4.67
6.0
7.0
1.67
4.67
1.0
0.33
1.33
3.33
1.0
1.67
-3.67
7.33
5.33
6.33
0.0
0.0
5.67
1.0
-3.33
-0.67
0.33
11.0
5.67
4.67
-1.33
4.67
-8.0
3.33
-1.0
-1.33
3.0
0.33
2.33
-1.67
-0.67
-8.67
-2.0
-1.67
5.33
-0.33
-1.0
5.0
0.0
0.0
1.67
3.33
-2.67
-0.33
3.0
4.67
-2.33
-0.33
-2.67
1.67
0.67
1.33
-1.33
-1.33
-4.0
-2.67
4.0
2.67
-0.33
6.0
3.0
4.0
-3.0
1.67
5.67
-5.33
0.67
-1.33
2.0
-6.0
0.0
7.33
0.33
-2.67
-6.0
-2.67
1.67
-2.0
-1.0
-2.67