File: EDX Back Ups and Old Files/Spectra copy 3.3.23/Samples/High pH BL 60C 6d/6.0.txt
0.0
-15.0
-33.33
-64.67
-68.67
-28.0
-58.67
-37.33
43.0
-10.33
4.33
-18.0
-12.0
4.0
2.67
-2.0
-5.67
-0.67
1.33
-0.33
0.67
1.0
-1.0
1.0
-1.33
1.0
-0.33
0.0
0.67
-0.33
-0.67
0.0
-0.33
1.0
0.0
0.0
-0.33
-1.0
-0.33
-0.33
-0.67
0.67
-1.0
2.67
1.0
-0.33
1.0
-1.0
2.33
3.33
1.33
-0.67
0.33
-1.33
0.33
-1.33
0.0
1.33
2.67
-1.0
0.0
-2.67
4.33
-6.67
1.0
-1.0
7.33
3.67
3.0
4.0
-3.67
-2.0
3.0
7.33
3.67
-2.33
1.33
1.67
2.0
6.67
6.0
2.0
4.33
2.33
4.67
2.67
1.0
1.67
2.67
2.0
8.0
-2.67
9.0
4.0
6.67
3.67
1.67
-3.0
-0.33
8.67
8.33
-0.33
0.67
5.67
4.0
1.67
1.33
3.67
2.33
4.67
1.33
4.33
-5.33
0.67
-0.67
8.33
8.33
0.67
8.67
0.67
-2.67
0.0
8.33
0.0
5.67
3.33
0.0
-2.67
1.0
-2.33
6.67
5.67
-2.67
3.33
3.0
1.67
-4.0
-2.33
6.33
2.0
6.67
3.0
-3.0
7.0
7.0
0.0
5.33
3.33
1.33
2.67
3.33
-3.33
6.33
5.0
-6.0
0.67
4.33
6.0
5.67
3.0
4.0
-3.67
2.67
-1.33
8.0
6.67
7.0
-1.33
1.67
3.0
-1.0
4.33
-6.33
2.33
0.67
2.0
2.0
7.0
2.33
1.33
1.0
4.0
-0.33
1.0
-1.0
-1.0
4.0
5.0
13.0
-0.67
-2.33
-1.67
6.33
8.33
1.0
12.0
7.0
8.0
1.0
-8.33
5.0
-1.0
-2.0
-1.33
6.0
-4.0
-1.33
9.67
3.67
-1.0
-4.33
-4.67
-0.67
-0.33
4.67
-1.67
4.0
3.33
4.0
0.0
2.0
0.33
5.67
-1.33
4.33
-4.0
-1.0
-0.33
2.0
5.33
-0.67
6.33
2.33
0.33
8.33
-1.0
1.0
1.33
1.0
2.0
-1.33
1.33
-3.0
-0.67
2.33
8.33
8.33
0.0
0.0
3.67
3.67
6.67
5.33
0.0
-4.67
1.67
4.67
3.33
0.0
4.0
-1.0
-1.67
-0.33
3.67
1.67
1.33
-2.0
2.0
-1.67
3.67
1.33
0.33
-0.67
-0.33
2.67
-3.0
3.67
5.67
0.67
2.0
0.67
7.33
-0.67
-0.33
-2.0
-3.0
1.33
2.33
4.67
2.0
-5.67
-0.67
0.0
1.67
-1.67
7.33
-1.0
0.0
-0.33
0.67
3.33
-1.0
9.0
0.0
-0.67
-3.0
-3.67
2.67
3.0
-4.0
4.0
-0.33
5.0
-0.67
-2.0
-0.33
-1.67
-3.67
-0.33
-1.0
3.33
-0.67
1.67
1.33
1.67
-3.33
7.33
0.67
-1.33
7.0
-2.67
4.67
-2.67
1.67
3.33
3.67
2.33
3.67
6.0
1.33
-2.33
-2.33
6.33
-2.67
1.0
3.67
3.0
-2.33
4.67
-2.0
-3.67
7.0
-1.33
-1.33
2.0
1.67
4.0
8.67
5.0
1.67
2.0
-5.33
-0.33
0.67
1.33
2.67
-1.67
2.0
1.0
2.33
-3.67
-4.67
3.0
-0.67
-1.0
-2.0
1.0
1.0
4.0
3.0
4.67
-1.0
-3.67
5.0
2.33
2.33
3.0
1.0
-1.0
-3.0
4.67
-7.33
7.67
4.33
4.0
4.33
4.0
3.67
3.0
9.33
16.0
13.67
3.67
27.33
20.33
33.0
20.67
28.67
31.67
15.67
13.0
16.33
7.67
7.0
4.33
11.0
1.67
10.0
7.67
-2.33
5.33
0.33
5.0
4.33
7.0
8.67
1.33
12.33
-3.33
9.33
2.0
-0.67
0.33
0.0
1.33
-1.33
-0.33
2.0
9.67
4.33
6.33
10.33
5.67
7.67
11.67
-0.33
4.67
6.0
9.33
1.33
4.0
5.0
4.33
1.0
2.67
5.0
2.33
-0.33
5.33
-3.33
1.33
5.0
1.67
-3.67
3.33
4.67
4.67
5.33
5.67
7.0
11.67
18.0
3.67
3.0
3.67
4.67
-3.33
10.0
3.0
8.0
2.67
7.67
12.33
1.0
6.33
6.0
3.0
4.0
6.33
-1.67
9.67
4.33
1.0
2.67
10.0
5.33
12.0
4.67
6.0
7.0
17.33
4.33
7.0
4.33
8.33
13.33
4.0
-2.0
4.67
9.33
20.0
17.0
7.67
14.67
26.0
23.33
13.33
22.0
29.67
24.67
17.33
16.33
11.33
20.67
10.33
15.0
10.0
13.67
4.0
1.67
2.67
6.67
6.67
7.67
10.33
4.33
8.0
4.0
7.67
8.0
10.67
11.0
9.0
9.67
10.0
12.33
4.33
2.67
18.33
2.33
3.0
13.67
1.33
5.0
7.33
-3.0
1.0
8.33
10.0
-0.33
4.67
7.67
5.33
3.67
4.33
10.67
7.67
-1.0
4.33
12.0
13.67
8.67
6.0
14.0
12.0
15.33
20.67
7.67
-3.0
6.33
14.0
10.33
4.33
16.33
7.67
2.33
9.67
13.33
1.33
10.0
4.33
5.0
11.33
5.0
5.33
8.33
10.33
3.33
2.67
10.0
16.33
11.0
8.33
6.67
9.0
9.0
12.0
6.33
8.33
7.33
11.0
9.0
5.0
2.33
17.33
5.67
18.0
11.33
10.0
2.67
9.67
11.33
7.67
2.67
2.33
7.33
14.33
1.0
10.67
17.33
2.0
6.0
11.0
6.33
-3.33
21.0
16.67
14.0
17.0
1.0
16.33
14.67
12.67
22.0
11.67
16.67
19.33
30.0
37.0
26.67
32.33
33.33
63.33
61.67
80.33
94.0
82.67
106.33
91.33
113.0
88.67
100.33
73.67
64.33
57.33
39.0
34.0
21.67
7.0
25.33
7.67
10.67
10.67
20.0
19.0
9.33
2.67
2.33
6.33
14.67
6.67
18.33
-3.0
7.0
16.67
10.33
5.67
15.33
11.0
6.0
8.0
8.33
-1.67
12.0
6.67
22.33
6.0
-4.0
11.67
13.0
9.0
18.67
11.0
12.67
7.0
14.0
13.67
-0.67
-1.67
4.33
15.0
18.67
5.67
2.67
4.33
7.33
6.67
15.0
0.0
16.0
-3.67
7.33
1.0
10.67
20.33
13.67
11.33
5.67
20.67
6.33
4.67
6.67
7.33
2.0
14.33
10.33
12.33
6.33
12.67
7.33
13.0
11.33
8.33
3.0
14.33
18.0
-4.67
15.33
9.33
21.0
17.0
12.0
10.67
11.33
23.0
14.0
19.33
15.67
17.0
18.67
44.33
25.0
36.67
18.0
23.67
26.67
29.33
27.33
9.33
19.33
6.67
6.33
7.67
11.67
3.33
12.0
13.0
12.33
10.67
7.67
9.67
8.67
-2.67
2.0
4.0
3.33
2.0
11.67
9.67
0.33
5.67
1.0
-2.0
11.33
14.0
12.33
12.67
17.67
8.33
10.33
8.0
14.0
5.0
4.33
5.67
5.0
11.0
6.33
11.33
10.0
8.67
-1.0
-2.0
-2.33
11.67
-2.0
0.0
13.33
6.0
1.67
1.0
7.67
16.33
-11.67
-5.33
7.67
8.0
0.0
6.67
8.33
5.33
-1.67
2.67
3.33
-0.67
7.67
-1.0
10.0
2.33
-1.67
0.0
-4.33
-1.33
4.0
6.33
13.33
4.0
1.67
9.0
12.67
-5.67
3.67
3.67
3.33
3.33
5.0
8.0
2.33
3.0
-5.0
3.33
9.0
-8.67
3.33
-0.67
-0.67
12.33
0.67
-3.0
10.33
6.0
18.0
1.67
7.33
3.0
9.33
10.67
-3.67
8.33
-0.33
14.67
3.67
-2.33
-3.0
4.33
5.0
0.33
4.33
3.33
12.67
18.67
-1.0
0.0
-3.0
6.67
-3.67
4.33
11.0
-1.0
0.0
11.67
4.0
-2.67
-4.67
7.0
-6.0
2.0
5.0
2.0
6.33
-0.33
-3.0
0.67
3.67
1.0
5.67
-4.0
4.33
10.67
-2.0
2.0
11.0
3.33
-10.33
-6.0
1.33
1.67
2.67
5.67
7.33
10.33
1.0
8.67
0.67
0.0
4.67
7.67
3.0
0.33
9.33
-0.33
4.0
-1.0
1.67
-0.33
3.0
-3.67
1.33
-0.67
2.0
3.67
0.33
-3.67
-0.67
6.33
1.0
4.0
5.67
3.0
1.67
8.33
2.33
6.0
12.67
-1.33
-0.33
2.67
-1.0
-0.67
3.0
-1.33
-10.0
-0.67
0.33
4.33
1.33
-0.67
1.0
-1.67
2.33
5.67
2.0
7.0
6.0
-5.0
-1.33
2.33
0.33
-5.33
-2.0
4.67
1.67
5.67
1.33
5.67
2.67
5.33
3.67
0.67
3.0
4.33
2.0
0.67
4.67
8.0
-1.0
3.0
1.0
2.67
4.67
3.67
-2.33
10.67
2.0
-4.0
3.0
7.33
0.33
-2.67
0.0
4.33
1.67
3.0
2.0
-1.67