File: EDX Back Ups and Old Files/Spectra copy 3.3.23/Samples/High pH BL 60C 6d/6.25.txt
0.0
-47.0
8.67
26.33
-56.67
-40.0
14.33
37.67
48.0
-1.33
-14.67
7.0
-18.0
-1.0
6.67
2.0
-1.67
1.33
1.33
0.67
-1.33
1.0
-1.0
1.0
-1.33
0.0
0.67
0.0
0.67
0.67
-0.67
0.0
-0.33
0.0
1.0
0.0
-0.33
-1.0
0.67
1.67
0.33
-0.33
-1.0
0.67
1.0
-0.33
0.0
-1.0
0.33
-0.67
-1.67
0.33
2.33
-0.33
-1.67
0.67
1.0
2.33
-1.33
3.0
1.0
0.33
-0.67
-0.67
1.0
3.0
1.33
7.67
4.0
1.0
2.33
3.0
1.0
4.33
-0.33
1.67
3.33
0.67
0.0
1.67
-4.0
3.0
5.33
0.33
-1.33
-0.33
-2.0
-2.33
8.67
3.0
-1.0
-2.67
2.0
4.0
6.67
5.67
1.67
2.0
5.67
4.67
4.33
1.67
-4.33
4.67
0.0
5.67
-2.67
-3.33
3.33
0.67
5.33
0.33
1.67
8.67
1.33
4.33
2.33
-0.33
6.67
2.67
0.33
2.0
2.33
-1.0
10.67
1.33
2.0
-0.67
2.0
6.67
4.67
7.67
-3.67
-2.67
3.0
-0.33
1.0
-3.33
1.33
7.0
2.67
7.0
1.0
7.0
6.0
10.0
7.33
0.33
4.33
6.67
-1.67
-5.33
4.33
-1.0
-2.0
2.67
3.33
4.0
5.67
1.0
-2.0
4.33
0.67
0.67
-4.0
1.67
7.0
4.67
-6.33
0.0
1.0
-2.67
-4.33
5.33
-3.33
1.0
2.0
-2.0
-0.67
2.33
-4.0
5.0
-2.33
-2.0
0.0
-4.0
0.0
10.0
2.0
0.33
1.67
-0.67
6.33
6.33
6.0
6.0
0.0
2.0
2.0
-5.33
10.0
-2.0
2.0
-0.33
8.0
-6.0
2.67
4.67
-0.33
4.0
0.67
6.33
-2.67
4.67
4.67
6.33
1.0
5.33
0.0
-1.0
-3.0
2.33
2.67
8.67
-3.67
-5.0
-1.0
4.67
-3.0
0.33
2.33
-1.67
-0.67
-0.67
8.33
-1.0
2.0
5.33
2.0
2.0
0.67
4.33
2.0
1.33
2.33
5.33
-0.67
4.0
0.0
4.67
1.67
2.67
2.33
-1.0
-2.67
4.67
-1.33
1.33
0.0
-1.0
-3.0
5.33
-0.33
-2.33
-0.33
-0.67
4.0
1.0
1.33
4.67
0.33
5.33
0.33
1.67
2.67
2.0
4.67
-1.33
-3.33
-1.0
6.67
3.33
-3.67
-0.33
1.0
-3.0
4.33
1.33
-1.33
1.0
-1.67
0.33
2.0
2.67
0.33
4.33
-2.0
-2.0
-0.33
3.67
1.33
0.0
2.0
1.0
-5.67
1.0
-2.67
4.67
2.0
0.0
1.0
-0.33
1.0
-1.67
3.0
0.67
-0.67
-3.67
-2.33
6.0
-0.67
2.33
0.67
3.33
2.67
0.67
5.33
1.67
1.67
3.0
1.33
0.67
7.33
2.67
-0.67
2.67
-2.67
-0.33
1.0
3.33
1.67
0.67
3.33
-0.67
3.0
-0.33
1.0
12.67
6.67
0.0
-3.67
-3.0
0.67
1.67
-4.0
-0.33
4.0
7.67
-2.0
0.67
-6.0
0.67
-5.33
-4.33
3.33
-1.33
2.33
3.0
0.0
3.33
-2.67
-2.67
3.0
1.33
-3.0
4.0
-1.0
4.0
4.0
5.0
6.67
-3.0
2.33
5.0
-0.67
3.33
2.0
3.0
-1.0
-1.0
0.67
-4.33
6.67
7.33
8.0
4.33
1.0
9.67
15.0
5.33
9.0
11.67
6.67
21.33
21.33
20.0
28.67
22.67
22.67
25.67
10.0
17.33
6.67
8.0
7.33
7.0
4.67
14.0
6.67
4.67
10.33
5.33
-2.0
3.33
10.0
-2.33
6.33
1.33
-1.33
1.33
2.0
1.33
0.33
7.0
5.33
1.67
6.67
8.0
-1.33
-1.67
0.33
1.33
2.67
5.67
3.67
10.67
7.67
10.0
-0.67
3.33
10.0
4.0
4.33
5.0
4.67
2.0
-1.67
0.67
9.33
-0.33
0.33
3.0
-1.33
1.33
8.33
3.67
2.67
-4.67
0.67
4.0
6.67
1.0
1.67
1.0
6.67
1.67
7.67
10.0
2.0
2.0
1.67
0.67
5.33
2.0
3.33
2.0
4.0
0.0
2.33
0.33
1.67
4.33
0.0
10.67
2.0
8.33
2.0
5.67
8.0
3.0
12.33
14.33
7.0
3.33
6.33
13.33
10.0
10.0
2.67
11.33
4.0
6.0
17.67
9.67
11.0
20.33
14.33
16.0
24.67
17.67
20.33
10.33
13.33
26.67
4.33
13.0
13.0
4.67
2.0
1.67
8.67
2.67
0.67
2.67
2.33
-0.67
21.0
5.0
2.67
8.0
0.67
4.0
11.0
3.67
11.0
6.33
7.33
9.67
-0.67
0.33
3.0
9.67
8.33
8.0
1.33
1.0
4.0
7.33
6.0
5.67
6.67
1.67
7.33
0.67
2.33
2.67
1.67
5.0
3.33
18.0
9.67
2.67
10.0
12.0
8.0
16.33
10.67
10.67
0.0
11.33
7.0
5.33
13.33
12.33
12.67
5.33
7.67
12.33
16.33
10.0
7.33
1.0
17.33
0.0
16.33
1.33
5.33
11.33
14.67
14.0
7.33
3.0
4.33
6.67
16.0
7.0
10.0
6.33
4.33
5.33
7.0
7.0
1.0
14.33
11.33
12.67
5.0
11.33
12.0
2.67
8.67
11.33
6.67
7.67
2.33
1.33
12.33
7.0
12.67
22.33
5.0
7.0
17.0
4.33
2.67
11.0
16.67
21.0
16.0
8.0
13.33
26.67
17.67
18.0
6.67
19.67
17.33
28.0
24.0
28.67
37.33
38.33
53.33
45.67
85.33
74.0
91.67
109.33
103.33
110.0
91.67
83.33
64.67
78.33
57.33
61.0
40.0
25.67
24.0
19.33
24.67
10.67
8.67
17.0
7.0
5.33
-2.33
8.33
9.33
0.67
6.67
7.33
0.0
19.0
3.67
9.33
1.67
9.33
14.0
10.0
7.0
5.33
7.33
17.0
10.67
6.33
15.0
-3.0
14.67
17.0
5.0
14.67
22.0
9.67
26.0
5.0
13.67
1.33
-2.67
15.33
-2.0
7.67
8.67
-2.33
-0.67
9.33
4.67
11.0
10.0
13.0
18.33
17.33
2.0
0.67
12.33
4.67
-0.67
-1.33
14.67
20.33
5.67
15.67
2.33
-2.0
4.33
3.33
13.33
1.33
5.67
16.33
17.0
3.33
8.33
6.0
5.33
18.0
-2.67
16.33
6.33
24.0
14.0
16.0
17.67
17.33
19.0
38.0
28.33
25.67
38.0
29.67
33.33
37.0
10.67
32.0
31.67
26.67
24.33
27.33
27.33
14.33
7.67
4.33
5.67
-2.33
-0.67
5.0
18.0
-0.67
2.67
7.67
1.67
24.67
1.33
3.0
16.0
8.33
2.0
1.67
11.67
9.33
11.67
3.0
8.0
4.33
-9.0
6.33
6.67
15.67
2.33
10.33
0.0
6.0
1.0
1.33
0.67
18.0
6.0
10.33
5.33
26.0
1.67
2.0
5.0
1.67
9.67
-2.0
2.0
-4.67
-8.0
7.67
1.0
8.67
-0.67
1.33
-7.33
7.67
3.0
-9.0
8.67
14.33
10.33
-2.67
3.67
10.33
10.33
2.67
8.0
-10.0
-7.67
1.33
7.0
-6.33
-9.33
7.0
1.33
7.33
8.0
-1.33
11.0
11.67
-2.67
6.67
7.67
12.33
4.33
3.0
5.0
9.33
7.0
4.0
2.33
6.0
-2.67
1.33
4.33
10.33
13.33
2.67
3.0
8.33
8.0
13.0
14.67
-2.67
1.0
12.33
14.67
8.33
11.33
-1.33
7.67
6.67
6.67
-6.0
1.33
3.0
3.33
-1.67
-0.67
4.67
5.67
-5.0
7.0
-2.0
4.67
-3.67
10.33
0.0
5.0
2.0
3.67
-2.0
2.33
-2.67
6.0
0.0
9.0
2.0
-1.0
1.33
3.67
4.0
6.67
10.67
2.0
6.67
3.0
4.33
8.67
-2.0
-3.0
6.0
2.33
-10.33
-3.0
9.33
0.67
8.67
3.67
-2.67
3.33
-1.0
-2.33
3.67
0.0
0.67
0.67
0.0
0.33
3.33
0.67
4.0
3.0
-0.33
1.67
2.0
-2.67
2.33
-5.67
4.0
0.67
17.33
8.33
2.33
-1.67
7.0
8.0
6.67
1.0
3.67
6.33
5.33
12.0
6.67
0.67
5.67
1.67
-1.0
3.33
3.0
-4.33
-7.0
10.33
6.33
4.33
0.33
1.33
1.0
-2.67
3.33
-4.33
-1.0
5.0
5.0
2.0
-1.33
0.33
-2.67
2.67
6.0
8.67
4.67
-3.33
-0.67
5.67
-0.33
2.33
-0.33
2.67
-1.0
4.33
1.0
-0.33
4.67
5.0
2.0
1.0
3.0
4.67
-0.33
2.67
1.67
3.67
9.0
1.0
-1.0
-0.67
2.33
-3.67
1.0
-0.67
-0.33
-3.0
1.0
-6.67