File: EDX Back Ups and Old Files/Spectra copy 3.3.23/Samples/High pH BL 60C 6d/7.5.txt
0.0
63.0
106.67
63.33
42.33
-92.0
0.33
10.67
54.0
-13.33
11.33
-6.0
-14.0
4.0
5.67
5.0
2.33
-0.67
-1.67
-0.33
-1.33
2.0
0.0
0.0
-1.33
1.0
-0.33
1.0
0.67
0.67
0.33
0.0
-0.33
0.0
2.0
1.0
-0.33
-1.0
0.67
-0.33
-0.67
2.67
1.0
-0.33
1.0
-0.33
2.0
0.0
-0.67
0.33
-0.67
-1.67
1.33
-0.33
1.33
-2.33
3.0
1.33
0.67
2.0
-1.0
1.33
3.33
0.33
3.0
4.0
2.33
1.67
-1.0
0.0
-0.67
5.0
3.0
5.33
3.67
-2.33
6.33
1.67
4.0
2.67
1.0
2.0
1.33
3.33
-3.33
9.67
-7.0
1.67
4.67
5.0
1.0
1.33
-4.0
-1.0
2.67
-0.33
0.67
0.0
5.67
8.67
1.33
10.67
5.67
1.67
8.0
2.67
-0.67
3.67
6.33
-3.33
2.33
0.33
0.67
6.67
4.33
-2.67
3.33
5.67
0.67
-0.33
2.33
0.0
6.33
5.0
2.67
3.33
7.0
4.33
1.0
1.67
3.67
2.67
-1.67
-0.67
1.0
4.67
7.0
1.67
-1.67
-1.0
4.67
7.0
0.0
4.0
0.0
6.0
11.33
6.33
1.33
1.67
0.33
-1.33
6.33
-1.0
1.0
8.67
1.33
4.0
1.67
0.0
2.0
2.33
-4.33
6.67
1.0
-2.33
7.0
4.67
-0.33
2.0
0.0
3.33
-2.33
1.33
2.67
-2.0
7.0
2.0
5.33
2.33
-5.0
9.0
-4.33
8.0
7.0
8.0
0.0
-3.0
0.0
-3.67
0.67
1.33
4.33
5.33
2.0
2.0
-3.0
3.0
-3.0
-5.33
8.0
2.0
3.0
-3.33
6.0
-5.0
3.67
4.67
7.67
1.0
3.67
3.33
1.33
-2.33
5.67
6.33
4.0
-2.67
0.0
-3.0
5.0
-5.67
-0.33
-1.33
-0.67
7.0
0.0
2.67
-2.0
3.33
4.33
7.33
0.33
3.33
0.33
-1.0
3.0
2.33
1.0
-2.0
3.67
1.33
1.0
-4.67
0.33
2.33
2.33
-2.0
-2.0
3.67
7.67
0.67
-2.67
0.0
-1.67
2.67
-1.33
8.33
0.0
1.0
4.0
0.33
-1.33
1.67
-3.33
-2.67
1.0
0.0
-0.67
3.67
0.33
3.33
0.33
0.67
1.67
0.0
7.67
0.67
0.67
5.0
-1.33
1.33
-2.67
4.67
3.0
-2.0
4.33
0.33
-2.33
4.0
0.33
3.33
2.0
-0.33
1.33
2.33
-4.0
-1.0
-1.33
3.67
0.33
2.0
0.0
1.0
-0.67
2.0
-0.67
-4.33
3.0
0.0
2.0
5.67
-2.0
-2.67
-1.0
2.67
2.33
1.33
3.67
0.0
3.33
-3.67
5.67
-1.67
4.67
-3.33
1.33
-2.33
-1.33
6.0
-0.67
-0.33
0.33
2.67
2.33
4.67
6.33
-0.33
2.0
4.33
-3.33
-3.33
2.33
-1.67
2.0
2.67
-1.0
5.67
0.67
3.0
6.33
4.0
0.67
2.67
0.0
3.67
5.0
1.67
-4.0
7.67
-1.0
-3.33
-2.33
-1.33
-1.67
-0.33
-2.67
0.0
-4.0
1.33
3.33
-2.67
-3.0
3.33
-1.0
-4.0
8.0
0.0
0.0
2.0
1.67
1.0
-0.67
4.0
3.33
3.33
-2.0
4.0
5.0
8.0
-0.33
-3.33
3.67
7.33
7.0
11.33
2.0
6.67
9.0
5.33
15.0
11.67
9.67
14.33
30.33
7.0
27.67
32.67
25.67
27.67
31.0
3.33
8.67
10.0
3.33
15.0
12.67
10.0
3.67
5.67
-2.67
5.33
2.0
2.33
1.0
3.67
8.33
-0.67
5.67
3.33
-1.0
-0.67
5.33
1.0
8.33
2.67
1.67
7.0
6.67
7.33
1.33
-4.67
1.67
1.67
0.67
10.67
6.67
5.0
8.33
2.33
1.0
0.0
6.33
1.0
-3.33
3.0
3.33
6.67
-7.67
6.67
14.33
2.0
5.67
2.33
-2.67
-1.33
4.67
-3.67
5.67
9.0
1.67
11.0
5.67
1.0
2.67
-2.33
4.67
2.0
2.0
2.0
2.67
4.67
7.33
5.0
9.33
-1.0
7.0
1.0
1.33
4.33
4.67
7.33
-4.0
-0.33
-1.0
6.33
5.0
2.67
13.0
8.0
4.33
4.33
19.0
10.33
-2.67
10.33
1.0
7.0
8.67
11.33
10.0
8.0
11.67
9.67
33.0
19.33
18.33
23.0
18.67
25.67
19.33
16.33
4.33
20.67
11.33
5.0
11.0
9.67
8.0
6.67
-0.33
-2.33
11.67
-1.33
0.33
7.33
6.0
7.0
5.67
7.0
14.67
5.0
2.0
6.67
6.0
10.33
11.33
6.67
10.33
7.33
6.0
6.67
3.33
4.0
4.33
-1.0
6.0
12.33
3.0
7.67
0.67
12.67
15.33
3.67
7.33
14.67
5.67
3.0
-1.67
12.0
10.67
4.67
-7.0
-1.0
6.0
3.33
14.67
1.67
2.0
5.33
5.0
9.33
12.33
6.33
3.67
7.33
5.67
5.33
10.33
11.0
7.33
18.0
5.33
5.0
9.33
5.33
2.33
9.33
9.67
12.0
16.33
1.0
6.33
9.67
5.0
4.0
9.0
4.33
8.33
7.33
15.0
7.0
6.0
7.33
10.33
21.67
11.0
20.33
13.0
4.67
13.67
9.33
3.67
2.67
12.33
14.33
11.33
4.0
15.67
9.33
8.0
11.0
9.0
-0.67
-0.33
7.0
15.67
14.0
15.0
13.0
15.33
18.67
22.67
16.0
18.67
27.67
19.33
26.0
29.0
33.67
33.33
47.33
52.33
71.67
79.33
87.0
86.67
85.33
115.33
110.0
93.67
100.33
91.67
73.33
49.33
43.0
25.0
20.67
30.0
20.33
26.67
11.67
16.67
10.0
6.0
-2.67
-1.33
4.33
6.33
26.67
-2.33
6.33
10.0
19.0
2.67
5.33
5.67
11.33
13.0
13.0
-3.0
8.33
7.33
10.0
8.67
1.33
20.0
8.0
12.67
11.0
13.0
16.67
9.0
14.67
17.0
19.0
10.67
11.33
-0.67
15.33
15.0
-0.33
5.67
3.67
3.33
6.33
20.67
8.0
-2.0
11.0
18.33
23.33
5.0
13.67
22.33
3.67
1.33
9.67
6.67
-1.67
1.67
10.67
3.33
6.0
8.33
5.33
15.33
9.33
11.67
15.33
14.0
5.33
8.33
4.0
17.33
23.0
-6.67
18.33
17.33
28.0
12.0
16.0
9.67
14.33
25.0
17.0
24.33
18.67
39.0
24.67
36.33
23.0
42.67
30.0
38.67
30.67
15.33
27.33
20.33
19.33
4.67
11.33
3.67
4.67
-3.67
14.0
10.0
1.33
4.67
16.67
14.67
8.67
4.33
9.0
7.0
0.33
11.0
-0.33
4.67
4.33
5.67
4.0
16.0
1.33
2.0
8.33
8.67
9.67
-5.67
1.33
14.0
27.0
4.0
8.33
10.67
16.0
13.0
11.33
9.33
10.0
10.67
6.0
-6.0
6.67
0.67
3.0
9.0
-6.67
8.0
3.67
14.0
3.67
13.33
3.33
0.67
3.67
8.0
-2.0
3.67
3.33
10.33
4.33
10.67
11.33
-1.67
3.67
-6.0
9.0
-0.67
5.33
12.0
2.67
-8.33
3.0
-3.67
15.33
-1.0
4.67
10.0
5.67
-2.67
10.67
4.67
11.33
1.33
10.0
-5.0
0.33
3.0
1.0
9.33
-5.0
5.33
0.33
-4.67
7.33
2.33
-0.33
5.0
4.33
17.0
6.0
11.67
5.33
-4.0
26.33
-2.33
3.33
4.33
-10.33
9.67
9.67
11.67
0.0
-2.67
8.0
-1.67
1.33
3.33
7.67
3.67
0.0
0.0
-3.0
9.67
-6.67
12.33
8.0
7.0
5.0
-2.33
-1.0
4.33
-5.67
3.0
-5.0
-2.0
-3.0
-5.0
7.33
8.67
12.0
1.67
0.67
7.0
9.67
2.0
6.33
1.67
0.0
-5.0
-5.0
-3.67
-4.33
4.0
3.33
4.67
4.67
11.67
-7.67
0.33
3.0
2.67
-1.33
-1.0
2.67
11.67
-6.0
-6.67
7.33
-2.33
16.0
2.0
1.67
3.67
0.0
-1.67
1.33
10.33
3.0
9.67
8.33
5.33
-5.67
2.33
7.0
7.0
9.67
0.0
5.67
3.33
0.33
8.0
10.67
-1.33
5.67
1.67
6.0
4.33
0.0
-3.33
-1.0
4.33
1.33
-5.67
0.33
-2.67
-8.0
-5.67
-3.67
4.67
5.0
14.0
9.0
-3.0
1.67
5.33
-0.67
-1.33
-5.0
6.67
-0.33
-1.33
5.33
0.67
4.67
5.33
1.67
-5.33
3.0
4.33
0.0
0.67
2.67
-1.0
2.0
1.0
-3.0
3.67
5.67
2.67
-0.33
4.67
-4.0
3.0
-5.0
0.33
-2.67
-6.67
2.0
-0.67
-1.33
4.0
-2.0
-4.67