File: EDX Back Ups and Old Files/Spectra copy 3.3.23/Samples/High pH BL 60C 6d/8.0.txt
0.0
47.0
131.67
41.33
36.33
63.0
-34.67
4.67
71.0
18.67
-14.67
20.0
-8.0
-12.0
-1.33
3.0
-0.67
-0.67
0.33
0.67
-0.33
0.0
-1.0
2.0
-0.33
0.0
0.67
0.0
-0.33
-0.33
-0.67
0.0
-0.33
0.0
0.0
1.0
0.67
0.0
-0.33
1.67
0.33
0.67
-1.0
0.67
2.0
1.67
0.0
1.0
1.33
0.33
2.33
-1.67
1.33
-0.33
0.33
0.67
2.0
-0.67
0.67
2.0
4.0
-0.67
0.33
-4.67
-1.0
3.0
0.33
-3.33
6.0
9.0
-5.67
4.0
1.0
3.33
0.67
-1.33
2.33
-7.33
5.0
6.67
-3.0
3.0
3.33
11.33
0.67
-0.33
1.0
-0.33
1.67
-6.0
0.0
4.33
0.0
-3.0
6.67
4.67
-0.33
4.0
3.67
1.67
1.33
-3.33
0.67
0.67
0.0
-5.33
2.33
1.67
3.33
5.67
3.33
-0.67
-0.33
-3.33
3.33
1.33
7.33
0.67
-0.33
-3.33
-2.67
3.0
0.33
1.0
6.67
1.33
8.0
3.33
0.0
-5.33
0.67
-0.33
3.33
-3.67
2.0
4.67
12.0
-0.33
11.33
2.0
4.67
0.0
1.0
2.0
1.0
3.0
4.33
4.33
-1.67
2.67
3.33
-2.33
5.33
6.0
12.0
3.67
0.33
3.0
4.67
9.0
5.0
0.33
-4.33
6.67
1.0
4.67
5.0
4.67
-0.33
2.0
1.0
-1.67
-6.33
11.33
0.67
-1.0
7.0
3.0
-0.67
0.33
2.0
4.0
-4.33
4.0
5.0
0.0
1.0
0.0
0.0
-3.67
-4.33
0.33
-0.67
5.33
-4.0
4.0
0.0
0.0
7.0
-6.33
4.0
-4.0
8.0
-2.33
2.0
2.0
-2.33
-1.33
1.67
3.0
0.67
-5.67
1.33
1.67
10.67
0.33
3.0
5.33
-7.0
0.0
-1.0
-5.67
0.67
1.67
-5.67
0.0
-4.0
9.67
-3.0
0.33
-2.67
0.33
-2.67
3.33
-3.67
-2.0
-2.0
2.33
-2.0
0.0
3.67
2.33
-6.0
-0.67
0.33
4.33
3.33
0.0
-3.0
0.67
2.67
1.67
1.33
2.0
-2.67
0.67
1.67
0.33
1.0
1.0
-2.0
0.33
1.67
-0.33
-1.33
-0.67
3.0
0.0
3.33
0.67
-1.67
-3.67
-2.67
-1.33
1.67
-2.0
3.67
4.67
1.67
-1.0
7.67
2.33
4.33
-2.33
3.0
0.0
1.33
3.33
0.67
1.0
5.33
0.33
0.0
2.67
-1.67
-3.67
-3.0
1.0
0.67
3.67
1.33
0.0
0.0
1.0
-4.67
-2.0
-4.67
-1.33
4.0
1.0
-3.0
2.67
0.0
0.33
0.0
1.67
-3.67
0.33
-0.33
1.0
-1.67
-0.67
0.67
-4.67
-1.33
1.67
0.33
2.67
-2.33
6.0
2.33
1.67
-2.67
-0.33
4.33
-2.33
-1.67
-1.33
4.0
0.33
-1.33
2.67
0.33
-0.67
8.0
2.67
1.0
3.67
-1.33
-2.0
0.33
4.0
-3.33
-4.33
2.0
3.67
0.0
0.67
1.0
8.67
3.0
-1.33
-0.33
-1.33
-1.67
0.67
-1.67
4.0
-4.0
1.33
-3.67
1.33
-2.0
-2.67
-1.0
3.0
4.0
-1.0
3.0
1.0
7.67
6.0
-0.67
9.0
0.33
-1.67
2.0
1.0
-2.0
4.0
6.67
-3.33
8.67
5.33
2.0
3.33
4.0
7.67
12.0
8.33
9.0
9.67
15.67
22.33
29.33
25.0
34.67
41.67
40.67
40.67
26.0
20.33
10.67
9.0
11.33
6.0
1.67
6.0
1.67
5.67
3.33
2.33
-3.0
-4.67
5.0
11.67
4.33
0.33
1.67
4.33
5.0
2.33
-2.67
2.0
2.33
-5.33
0.67
-4.0
9.67
9.33
3.33
-2.67
4.67
10.67
3.67
6.67
11.67
3.0
7.33
6.33
8.0
8.0
4.33
4.0
2.67
0.0
1.33
6.67
2.33
3.67
2.33
2.0
7.67
-0.67
0.33
6.67
6.67
-1.67
-2.33
9.0
3.67
4.0
10.67
14.0
0.67
2.67
3.67
-4.0
2.0
-2.0
3.67
7.67
5.33
-3.0
7.33
-2.0
5.0
-1.0
3.33
1.33
-3.33
11.33
-2.0
6.67
6.0
2.33
3.0
7.67
1.0
5.0
10.33
6.33
7.0
-1.67
8.33
11.33
9.0
5.0
10.67
4.33
10.0
10.0
13.67
16.67
10.0
20.33
18.33
19.0
21.67
25.67
23.33
21.33
22.33
8.67
14.33
8.0
7.0
14.67
-1.0
5.67
6.67
0.67
-2.33
9.67
-4.67
3.33
14.0
0.0
3.67
7.0
11.67
10.0
7.0
4.67
8.0
5.33
8.33
8.67
6.33
2.33
5.0
12.67
0.33
3.0
8.33
8.0
4.0
5.33
6.0
5.67
8.67
8.67
6.33
2.67
4.33
6.67
2.67
-2.0
2.33
15.0
7.67
-0.33
-3.0
7.0
10.0
13.33
9.67
12.67
3.0
7.33
5.0
0.33
-1.67
-0.67
4.67
6.33
5.67
7.33
12.33
11.0
11.33
6.0
19.33
9.0
7.33
-5.67
8.33
8.33
4.67
8.0
2.33
9.0
2.33
4.67
12.0
4.0
11.0
11.33
2.33
6.33
12.0
13.0
12.0
10.33
6.33
10.67
11.0
5.33
12.0
2.67
6.67
16.33
5.67
-1.33
6.33
6.33
12.33
6.0
16.67
10.33
1.0
12.0
14.0
2.33
7.67
20.0
18.67
8.0
12.0
6.0
9.33
16.67
14.67
12.0
31.67
19.67
23.33
18.0
18.0
40.67
32.33
35.33
65.33
62.67
75.33
117.0
115.67
95.33
108.33
115.0
112.67
123.33
82.67
68.33
60.33
58.0
36.0
31.67
23.0
22.33
14.67
7.67
18.67
4.0
7.0
-1.67
10.67
14.33
14.33
5.67
10.67
25.33
3.0
19.0
5.67
6.33
8.67
17.33
9.0
21.0
10.0
6.33
-2.67
17.0
14.67
17.33
4.0
2.0
6.67
11.0
4.0
3.67
20.0
7.67
7.0
19.0
10.67
6.33
9.33
7.33
5.0
6.67
22.67
12.67
10.33
6.33
1.67
13.0
0.0
5.0
15.33
11.33
-5.0
8.67
17.33
13.67
10.33
18.67
15.67
2.33
0.67
18.67
8.33
11.0
10.33
14.33
3.33
16.33
13.67
14.33
9.0
13.33
-5.67
1.0
9.33
16.0
10.33
10.33
19.33
19.0
10.0
23.0
27.67
21.33
15.0
17.0
26.33
15.67
38.0
24.67
33.33
48.0
37.67
19.0
40.67
32.67
18.33
24.33
23.33
26.33
10.67
21.33
3.67
10.67
7.33
10.0
12.0
4.33
-8.33
-0.33
10.67
2.67
6.33
-3.0
4.0
2.33
-6.0
11.67
6.67
8.33
-0.33
-2.0
4.0
0.33
9.0
16.33
0.67
10.67
10.33
3.33
1.0
5.0
9.0
1.33
0.67
6.0
17.0
11.33
11.33
21.0
3.67
3.0
3.0
-4.33
5.67
7.0
7.0
3.33
9.0
-0.33
5.0
10.67
12.33
2.33
-8.33
5.67
1.0
-4.0
9.67
6.33
4.33
7.33
-4.33
5.33
12.33
-5.33
-4.0
0.0
-2.67
2.33
12.0
5.67
-0.33
-1.0
2.33
6.33
3.0
2.67
8.0
0.67
-0.67
0.67
2.67
-1.67
4.33
-2.0
0.0
-8.67
9.0
4.0
2.33
4.0
0.33
-1.67
-3.67
4.33
9.33
7.67
5.0
-1.67
12.0
5.0
5.67
9.33
6.0
6.33
7.67
6.33
-0.67
3.67
2.67
2.67
6.67
2.0
2.33
10.0
1.33
1.33
7.33
6.67
-1.33
-5.0
2.0
8.0
-0.33
1.33
0.33
-2.0
7.0
-2.0
2.67
6.0
7.33
-1.67
4.0
3.0
-3.0
3.0
-3.0
0.33
9.67
9.0
4.67
10.67
2.0
-2.33
3.0
3.33
-3.33
-3.0
-5.0
1.0
4.33
-9.33
4.0
2.33
6.67
3.67
0.67
-0.67
5.33
1.0
7.67
-4.33
-2.0
2.67
-0.33
-7.0
2.33
0.33
-3.33
6.0
1.0
-5.33
3.67
-1.0
-5.67
-0.67
2.33
5.0
3.67
2.33
6.33
0.33
13.33
5.0
5.0
5.67
-3.0
5.67
0.33
0.33
9.0
3.67
-4.33
-0.33
6.67
-1.0
-1.67
-1.0
-2.33
5.0
1.33
-2.67
-4.67
-2.67
0.33
0.0
-2.67
-0.67
3.67
-5.0
-1.0
1.0
-2.0
2.67
-0.67
2.33
-1.33
-1.0
1.67
-5.33
4.67
-2.67
-2.33
3.67
1.33
-0.33
-4.33
-2.0
0.33
-1.0
-6.33
7.67
0.0
-1.0
5.0
-5.0
-1.33
0.67
-1.33
7.67
1.67
1.0
-6.0
2.0
4.33
4.33
-4.67
-1.0
-1.67
-1.33
3.0
0.0
-4.67