File: EDX Back Ups and Old Files/Spectra copy 3.3.23/Samples/High pH BL 60C 6d/9.25.txt
0.0
66.0
56.67
9.33
-28.67
-54.0
45.33
51.67
46.0
-51.33
-0.67
4.0
0.0
3.0
9.67
2.0
-3.67
-0.67
-2.67
2.67
-1.33
0.0
-1.0
1.0
-1.33
0.0
0.67
1.0
0.67
-0.33
-0.67
0.0
-0.33
1.0
0.0
0.0
-0.33
0.0
0.67
0.67
-0.67
-0.33
-1.0
-0.33
0.0
0.67
1.0
-1.0
0.33
0.33
-1.67
-0.67
-0.67
0.67
1.33
-0.33
2.0
-0.67
2.67
-1.0
1.0
-0.67
-0.67
-0.67
1.0
0.0
2.33
-2.33
-5.0
8.0
2.33
5.0
8.0
5.33
0.67
-5.33
6.33
1.67
-2.0
-1.33
-5.0
-2.0
2.33
-1.67
2.67
6.67
-1.0
1.67
0.67
4.0
-4.0
-3.67
0.0
1.0
1.67
8.67
4.67
2.0
2.67
8.67
8.33
-1.33
-1.33
2.67
6.0
2.67
4.33
-0.33
5.33
-0.33
2.33
5.33
-1.33
0.67
4.33
2.33
6.33
4.67
4.67
-1.33
-0.67
2.0
12.33
1.0
3.67
2.33
-1.0
10.33
2.0
6.67
6.67
4.67
-1.67
1.33
5.0
-2.33
1.0
-6.33
5.33
2.0
1.67
12.0
4.0
12.0
2.0
-2.0
-2.67
3.33
1.33
3.67
3.33
1.67
4.33
-1.0
-1.0
2.67
-1.67
8.0
5.67
5.0
1.0
0.33
5.67
0.67
1.0
-4.33
0.0
3.67
2.67
0.0
-6.0
5.33
-0.33
6.33
-1.33
-3.0
0.0
2.0
-0.67
-0.67
1.0
7.0
-2.33
6.0
-2.0
6.0
4.0
4.0
2.0
2.33
-2.33
-1.67
-3.67
0.33
-2.0
-2.0
3.0
2.0
1.0
-5.33
0.0
0.0
4.0
-0.33
2.0
0.0
1.67
-1.33
-0.33
6.0
1.67
-0.67
1.33
3.67
3.67
0.33
6.0
-1.67
-2.0
1.0
4.0
-2.67
1.67
2.67
-1.67
1.0
-1.0
3.67
3.0
-3.67
0.33
8.33
1.33
-0.67
4.33
0.0
1.0
9.33
-3.0
4.0
-1.33
3.33
-3.0
1.33
-1.67
-4.67
4.33
1.0
2.0
7.67
-1.33
0.67
0.33
6.0
-2.67
4.67
-0.33
-0.67
6.0
4.0
0.0
8.33
0.67
3.67
-2.33
-5.67
2.0
3.0
2.33
1.67
-0.67
-0.67
-3.67
-1.33
4.67
-2.0
3.67
-1.33
-2.33
4.0
-0.33
0.33
-1.67
-0.33
0.0
-4.0
1.33
6.33
-2.33
5.0
-0.67
2.33
-4.0
1.67
2.33
0.33
1.0
-3.0
1.67
-0.33
-2.67
1.0
2.0
-4.0
0.33
1.0
-4.67
1.67
5.0
-3.0
-1.0
-2.33
4.0
2.33
-1.0
3.67
1.33
0.33
4.67
5.0
1.33
3.33
5.67
3.33
2.67
3.67
6.33
-0.33
0.67
0.0
0.33
2.67
4.33
4.67
2.33
-0.33
4.33
-3.33
-4.0
2.33
-6.33
2.67
1.33
1.33
1.0
1.67
-2.0
-0.33
7.67
-1.0
0.33
-4.0
-3.33
-2.33
8.0
1.67
2.0
-2.33
4.0
1.67
-3.0
-5.33
-1.33
0.67
1.33
-0.33
-0.67
1.0
2.0
0.33
1.33
-1.67
1.0
2.33
-1.0
1.0
2.0
1.0
0.0
2.0
-0.33
0.0
1.33
4.0
2.33
2.33
-2.0
5.0
3.0
-2.0
5.67
-5.33
2.67
4.33
6.0
8.33
3.0
8.67
8.0
9.33
3.0
2.67
14.67
16.33
24.33
20.0
26.67
15.67
30.67
20.67
20.0
12.33
13.67
4.0
2.33
10.0
-4.33
9.0
2.67
2.67
3.33
3.33
6.0
1.33
7.0
2.67
6.33
6.33
-0.33
8.33
0.0
-3.67
-0.67
4.0
2.33
-2.33
2.67
0.0
2.67
1.33
5.33
3.33
-0.33
4.67
4.67
4.67
5.67
-2.0
3.33
5.33
6.0
-2.0
17.33
11.0
4.67
3.0
-1.67
4.67
5.33
6.67
8.33
4.0
-0.33
5.33
6.33
7.67
7.67
-8.67
-5.33
4.0
6.67
5.0
8.67
5.0
-0.33
-1.33
8.67
2.0
5.0
1.0
5.67
17.67
5.33
2.0
6.33
2.0
2.0
1.0
3.33
3.33
-1.33
3.33
0.0
5.67
5.0
9.33
8.0
0.67
0.0
9.0
2.33
3.33
1.0
6.33
-0.67
7.33
8.0
6.0
-3.33
8.33
11.0
12.0
25.67
15.67
21.0
22.33
19.33
27.0
35.67
17.67
23.33
25.33
8.33
15.67
16.33
12.0
14.0
3.67
7.0
0.67
-1.33
6.67
9.67
7.67
0.33
0.33
9.0
0.0
9.67
10.0
2.67
13.0
7.0
8.67
11.0
14.33
18.33
3.67
4.33
2.33
0.0
7.67
-0.67
1.0
3.33
8.0
5.0
8.33
4.0
-0.33
13.67
7.67
6.33
0.67
6.33
1.67
2.67
5.0
5.33
11.0
10.67
7.67
2.0
10.0
5.0
21.33
18.67
5.67
9.0
7.33
10.0
7.33
6.33
5.33
4.67
3.33
5.67
1.33
12.33
10.0
10.33
-3.0
6.33
16.0
14.33
1.33
9.33
2.33
5.67
8.0
12.33
1.0
3.33
-0.33
8.0
7.0
14.0
21.33
-0.67
4.33
4.0
8.0
10.0
0.33
13.33
8.67
17.0
4.33
7.0
7.67
9.67
19.33
3.67
6.67
15.33
1.33
8.33
16.0
8.67
18.33
3.0
17.0
7.0
9.33
17.67
16.0
18.67
12.0
3.0
2.0
13.33
22.67
20.67
3.0
14.67
26.67
12.33
19.0
26.0
39.67
67.33
73.33
68.33
85.67
147.33
110.0
153.67
153.33
138.33
143.0
138.67
108.33
96.67
91.33
74.33
71.0
47.0
43.67
9.0
13.33
22.67
20.67
16.67
13.0
15.0
2.33
5.67
11.33
8.33
13.67
1.67
2.33
11.0
-5.0
7.67
10.33
4.67
5.33
15.0
7.0
10.0
1.33
-2.67
16.0
7.67
4.33
16.0
6.0
7.67
17.0
10.0
15.67
3.0
9.67
9.0
11.0
10.67
5.33
7.33
8.33
1.0
-0.33
24.67
3.67
12.33
12.33
17.67
1.0
-2.0
28.0
5.33
22.33
2.0
2.67
20.33
7.67
9.33
9.67
16.67
8.33
6.67
7.67
7.33
10.0
0.33
9.33
6.33
6.33
5.67
4.33
6.0
14.33
5.33
-7.0
23.33
11.0
1.33
7.33
0.33
12.0
6.0
-3.0
9.67
23.33
27.0
22.0
15.33
30.67
21.0
21.67
25.33
14.0
16.67
17.0
22.67
21.67
11.33
34.33
13.33
8.33
9.67
2.33
14.67
12.67
-5.67
11.0
14.0
5.33
2.67
1.67
11.67
-0.33
-1.67
4.0
-2.0
0.33
5.0
5.67
17.67
4.33
7.67
5.0
5.0
12.33
3.0
9.33
6.67
7.67
-2.67
-1.67
5.0
5.0
20.0
15.33
8.67
9.0
18.0
5.33
9.33
10.0
15.67
6.0
1.0
-2.33
3.67
-3.0
4.0
5.33
5.0
-0.33
3.0
4.67
7.33
-4.67
15.67
1.67
8.0
-5.0
14.67
14.33
15.33
1.33
0.67
7.33
2.33
6.67
-3.0
0.0
-5.67
0.33
-1.0
-1.33
1.67
2.0
-2.67
2.33
-4.0
-0.33
10.0
3.67
-5.67
-5.33
2.67
10.33
-1.67
-6.0
4.0
-6.67
-5.0
9.0
7.33
-2.0
0.33
5.33
4.33
4.33
6.33
2.67
4.0
11.33
9.0
11.0
1.67
3.33
8.0
8.33
6.67
-0.67
3.33
1.67
5.67
6.67
-2.33
3.0
5.33
-4.0
4.33
-1.67
4.33
2.67
1.67
1.0
-8.0
0.0
4.67
9.33
6.33
3.0
5.0
9.0
1.67
7.0
4.33
-4.67
-1.0
-1.0
-2.0
8.0
1.0
5.33
8.67
6.0
6.67
8.67
3.0
0.67
0.0
-2.67
-2.33
0.0
-3.0
6.0
9.33
-1.33
8.0
9.33
-4.33
5.67
2.67
-7.67
4.33
7.0
-4.33
-4.33
-5.0
-1.33
-2.33
-4.0
-7.67
5.33
-0.33
3.0
-2.0
0.67
10.67
3.0
3.33
-3.67
-0.67
2.0
5.67
5.33
14.33
1.33
-0.67
7.0
3.0
10.67
0.0
3.67
6.33
3.33
5.0
7.67
3.67
7.67
-4.33
0.0
-0.67
5.0
7.67
-6.0
9.33
-0.67
-5.67
-3.67
-2.67
-5.0
-1.67
0.33
1.67
0.0
3.0
-6.0
-6.0
-1.33
3.33
2.33
-3.33
-1.0
1.67
-4.33
-4.33
2.33
0.67
3.67
3.33
0.67
-3.33
-5.0
1.33
7.0
-7.33
-1.33
2.0
4.0
7.0
-1.0
2.67
4.67
-2.33
3.67
-3.33
4.0
0.0
-5.0
-0.67
2.33
-0.67
-5.0
0.33
2.67
-3.0
-3.0
-3.67