File: EDX Back Ups and Old Files/Spectra copy 3.3.23/Samples/High pH BL 60C 6d/9.75.txt
0.0
-7.0
41.67
46.33
-55.67
-47.0
-55.67
-36.33
62.0
-57.33
-20.67
-6.0
-14.0
10.0
-2.33
0.0
-2.67
-3.67
-1.67
-1.33
1.67
0.0
-1.0
0.0
0.67
1.0
-0.33
0.0
0.67
1.67
-0.67
0.0
0.67
2.0
0.0
1.0
0.67
-1.0
-0.33
-0.33
2.33
-0.33
0.0
-0.33
1.0
0.67
0.0
-1.0
0.33
1.33
-1.67
-1.67
3.33
-1.33
-0.67
2.67
1.0
-1.67
-0.33
3.0
0.0
4.33
-0.67
-1.67
3.0
2.0
5.33
-2.33
-1.0
-1.0
3.33
-4.0
5.0
4.33
6.67
0.67
0.33
3.67
-4.0
6.67
0.0
1.0
8.33
-0.67
0.67
-2.33
0.0
8.67
-0.33
-1.0
4.0
-0.67
-2.0
-3.0
0.67
1.67
-2.33
0.0
1.67
2.67
-1.67
-1.33
-2.33
-2.33
2.0
-0.33
1.33
-3.33
-0.67
1.67
-1.67
6.33
1.67
-1.33
1.33
-0.67
15.33
3.67
4.67
1.67
2.33
2.0
1.33
5.0
3.67
3.33
1.0
-0.67
3.0
7.67
-0.33
1.67
3.33
-4.67
4.0
2.67
3.0
-1.33
4.33
5.0
0.67
4.0
-5.0
2.0
0.0
4.0
3.33
-0.67
-2.67
-0.33
1.33
2.67
3.33
4.0
4.0
6.67
3.33
2.0
-0.33
1.0
3.0
-5.67
7.67
7.67
-3.0
-5.33
9.0
-3.33
3.67
3.0
-8.0
1.33
-6.33
0.33
-0.33
3.0
1.0
0.0
3.33
-0.67
5.0
3.0
-2.33
6.0
1.0
-3.0
2.0
-2.0
-2.0
2.33
2.67
0.33
-0.67
3.33
-4.0
5.0
-5.0
3.0
-3.0
-0.33
7.0
-4.0
8.0
-0.33
9.0
-3.0
-5.33
1.67
3.67
6.0
4.67
-1.67
3.33
2.67
11.67
1.33
1.0
3.33
1.0
1.0
0.0
-3.67
0.67
-0.33
-0.67
2.0
-5.0
3.67
-1.0
3.33
-4.67
2.33
0.33
-0.67
2.33
-3.0
3.0
1.33
8.0
2.0
-1.33
4.33
0.0
5.33
-1.67
0.33
1.33
-4.0
-2.0
3.67
3.67
1.67
0.33
-3.0
-1.67
3.67
-0.33
2.33
4.0
0.0
-3.0
2.33
-2.33
5.67
0.67
-1.67
-2.0
0.0
-2.67
4.67
4.33
-0.67
-1.67
-0.33
0.67
-4.0
1.67
6.67
-4.33
1.0
-0.33
0.33
1.33
0.67
-1.0
-2.0
1.33
2.33
2.67
6.0
-5.67
-1.67
-1.0
3.67
1.33
2.33
-1.0
-1.0
-0.33
-2.33
3.33
-2.0
2.0
4.0
-1.67
2.0
-2.67
-3.33
4.0
-1.0
-1.0
-3.33
1.0
1.33
2.0
1.67
-1.67
-2.67
0.67
3.0
0.33
2.33
1.67
-0.67
-3.33
3.67
2.33
-2.33
-4.33
2.0
0.33
4.67
-0.67
7.67
2.33
-0.33
2.33
0.67
3.0
6.33
4.67
1.67
2.33
-0.67
2.0
1.67
0.0
4.67
1.67
3.0
1.33
1.0
5.67
-1.33
4.0
0.67
4.0
1.67
-2.0
-0.33
3.0
-5.33
-7.33
-3.33
2.33
-0.33
1.33
3.0
0.0
4.33
-0.67
-1.67
-2.0
2.33
0.0
1.0
2.0
4.0
1.0
2.0
8.67
-1.0
1.33
4.0
-0.67
-1.67
1.0
0.0
0.0
-2.0
-0.33
-10.33
-3.33
-4.67
1.0
0.33
4.0
5.67
9.0
3.33
3.0
2.67
-5.33
11.33
9.33
0.0
0.67
7.67
4.67
4.67
4.0
-0.67
7.67
1.0
-5.67
6.0
-3.33
4.0
6.67
3.67
3.33
-3.67
-2.0
1.33
0.0
3.67
5.33
2.33
3.67
6.33
3.0
2.33
2.33
2.0
5.33
-6.33
2.67
6.0
6.67
4.33
3.33
2.33
8.67
6.67
6.67
3.67
5.67
7.0
5.33
2.33
-2.0
9.0
5.33
8.0
-2.33
3.0
-2.67
8.67
3.33
-1.33
10.33
1.0
3.67
3.33
7.33
9.67
0.67
0.33
12.67
2.0
-0.33
11.0
-0.33
10.0
8.67
4.67
13.67
3.0
9.0
-1.0
7.67
3.67
4.33
4.0
-0.67
-2.0
0.0
6.0
9.33
7.33
0.67
3.33
5.0
2.67
11.0
2.33
15.0
2.67
1.0
6.0
-0.67
1.33
4.0
1.33
9.33
13.33
12.0
2.0
6.67
6.33
12.0
22.0
16.67
12.67
13.0
29.33
25.33
26.0
31.67
28.67
24.33
16.33
19.33
18.67
21.33
16.0
13.0
10.67
1.0
5.67
14.67
5.67
4.67
2.67
-0.67
-1.67
2.0
9.0
6.67
10.0
8.67
7.0
10.0
-2.33
16.0
6.33
9.33
6.67
5.33
7.33
8.0
5.67
8.33
5.0
-3.67
13.0
8.0
7.33
3.0
2.67
4.67
12.67
5.33
5.67
12.33
8.67
0.67
5.0
-1.67
11.0
8.67
1.67
8.0
1.0
3.0
5.33
4.67
7.67
7.0
4.33
-1.0
4.33
5.33
4.33
11.67
-0.67
-0.33
10.33
4.33
3.0
2.33
9.0
1.33
-2.0
23.33
-1.67
1.33
7.33
11.67
0.0
13.33
10.0
5.33
5.67
9.0
8.0
7.0
13.33
8.33
14.33
-1.0
13.0
4.0
8.33
6.33
8.67
17.0
6.33
6.0
3.67
13.67
11.33
8.67
7.67
9.33
-0.67
8.33
12.0
10.67
11.33
1.0
9.0
10.0
9.33
1.67
10.0
15.67
10.0
3.0
10.0
13.33
13.67
11.67
15.0
23.67
24.67
18.33
28.0
44.0
48.67
73.33
97.33
117.33
135.67
146.33
183.0
201.67
194.33
201.33
164.0
194.67
186.33
168.67
130.33
100.33
88.0
75.0
40.67
38.0
14.33
19.67
18.67
18.67
1.0
6.0
7.33
2.67
6.33
12.33
9.67
-0.33
2.33
14.0
12.0
-0.33
9.33
4.67
11.33
9.0
21.0
-1.0
12.33
7.33
15.0
-2.33
19.33
13.0
6.0
3.67
17.0
1.0
18.67
4.0
14.67
8.0
4.0
10.67
6.33
5.33
1.33
12.0
6.67
12.67
1.67
-0.67
5.33
7.67
8.0
12.0
0.0
10.33
7.33
8.0
9.67
9.33
11.67
14.33
9.67
8.67
0.33
11.67
19.67
1.33
10.0
9.33
3.33
13.33
9.33
10.67
4.33
17.0
0.33
1.33
-1.0
2.33
13.0
5.33
3.33
2.33
16.0
4.0
4.0
3.67
12.33
11.0
6.0
10.33
-1.33
19.0
2.67
16.33
11.0
6.67
3.0
8.67
8.67
2.33
3.33
0.33
12.33
6.67
3.33
8.67
6.67
-5.67
2.0
4.0
0.33
1.67
15.67
2.67
0.67
5.33
-4.0
2.0
9.33
5.0
-1.33
2.67
7.33
4.67
-2.0
18.0
14.33
0.0
9.33
19.67
13.67
5.33
12.33
8.0
15.0
14.0
10.33
6.67
-1.0
8.0
22.33
15.33
14.0
16.67
11.0
6.0
11.67
5.67
10.0
-3.0
-1.67
7.0
-5.33
11.0
8.67
14.33
7.33
-1.33
3.67
2.0
5.0
4.67
9.33
8.33
6.33
2.67
-1.67
-0.67
13.67
4.0
-5.0
-3.67
0.33
-2.0
4.67
-7.33
-4.0
6.33
1.33
3.0
8.67
5.0
8.67
2.33
1.67
7.67
-6.67
-2.67
-2.0
8.0
-5.67
13.0
7.0
11.33
-7.0
-2.67
0.33
2.33
12.33
-0.67
9.67
5.0
6.33
7.0
5.0
9.67
5.33
3.0
12.33
13.67
11.33
1.33
10.67
7.67
0.67
2.67
1.0
5.33
-1.0
-0.67
3.33
-1.67
-1.33
2.67
0.0
2.0
0.0
2.67
-0.67
3.33
7.0
5.0
5.0
1.67
-2.0
-1.67
-8.67
7.0
1.0
6.0
2.0
4.0
3.33
7.67
1.0
-0.33
0.67
-5.0
4.67
4.0
-4.67
8.67
-3.0
1.0
3.0
6.33
-6.33
1.0
5.33
1.67
2.67
1.67
-3.67
4.33
1.0
4.67
-2.33
-7.0
7.67
3.67
6.0
-4.67
-1.67
7.67
3.0
6.0
-1.33
5.67
2.0
-1.67
-0.67
5.33
7.0
12.67
1.33
6.33
12.33
0.33
6.0
-5.0
5.67
1.0
2.67
2.33
0.33
6.0
2.67
-2.33
1.67
-0.33
-3.0
-4.67
11.0
2.67
-2.0
1.33
-0.67
-2.67
4.33
-3.67
-7.0
-6.67
-2.67
5.67
5.0
-3.0
4.0
0.0
0.67
-1.67
-0.67
-2.33
-2.0
7.67
4.67
0.67
-0.67
1.67
0.67
6.33
4.67
0.67
2.0
-1.67
2.0
-3.33
4.67
1.0
0.0
0.0
6.0
-0.33
0.67
-0.33
3.67
-2.33
1.0
0.0
-3.0
-0.67
-3.67
-4.67
-2.0
-0.67
-0.33
-7.0
1.0
-3.67