File: EDX Back Ups and Old Files/Spectra copy 3.3.23/Samples/Low pH SF 60C 4d/10.0.txt
0.0
-30.33
-66.33
37.67
-116.0
-28.0
-102.0
-35.67
-17.33
0.0
-9.67
11.0
-7.0
7.33
-4.0
2.0
-4.33
1.33
-2.0
-1.33
-1.33
0.67
-0.33
-0.33
-0.33
0.0
0.0
0.0
-0.33
-0.33
0.33
-0.67
-1.0
0.0
0.0
-0.67
0.33
1.0
0.0
2.0
-1.67
0.67
0.67
0.0
-0.67
-0.33
-1.0
1.0
-0.33
1.0
1.33
-1.67
1.67
-1.67
-1.0
-1.0
1.67
0.33
0.0
2.33
0.33
1.67
-2.0
4.0
-0.33
0.67
-2.0
0.33
5.0
3.33
-1.33
3.67
-1.67
0.0
2.33
4.67
5.33
4.33
-0.67
1.0
8.0
4.67
10.0
3.0
-1.67
2.67
0.33
0.0
-1.0
4.0
0.0
2.0
0.0
6.67
2.67
-1.67
3.67
-4.0
3.0
5.67
1.0
0.33
7.67
0.67
5.0
-0.67
-0.67
5.33
2.67
5.33
-3.0
1.33
-1.0
0.33
4.33
9.33
0.67
4.67
0.33
9.0
-1.67
7.67
6.33
0.0
4.0
6.67
-2.67
3.33
5.0
10.67
3.33
7.67
-1.33
3.67
2.0
9.33
3.33
1.0
5.0
3.33
-3.33
-3.0
2.33
10.0
5.67
-3.67
1.0
-3.0
-5.67
-2.33
-2.67
-1.67
-4.33
5.0
-3.0
1.0
-3.67
-2.33
0.67
8.33
0.67
8.0
-4.33
-1.33
-0.67
2.0
4.67
5.33
6.33
0.0
-3.33
6.67
-4.0
2.33
1.67
2.67
1.33
4.0
0.33
-0.33
1.0
0.67
0.33
-0.67
1.0
3.0
1.0
6.0
-0.33
-0.33
5.33
1.67
6.33
4.67
0.67
1.67
-1.67
2.33
2.0
8.0
1.33
2.67
2.33
-1.33
-0.67
-2.0
-5.0
2.67
-0.33
2.67
2.0
-1.33
5.0
3.33
3.67
1.0
-0.67
-3.0
5.0
-1.33
1.67
2.67
7.33
2.0
-2.0
-2.0
0.67
3.0
2.67
5.67
-1.33
-1.33
1.0
0.67
2.67
-5.0
-0.33
1.67
-5.33
2.33
3.33
2.0
3.0
-3.0
1.67
0.0
-1.67
-0.67
5.33
0.33
5.67
0.67
-0.67
3.67
-2.0
5.33
1.67
8.0
2.67
1.67
-1.0
-1.0
0.67
0.67
1.33
6.0
-1.0
3.33
-1.67
0.33
0.0
-2.33
-1.0
0.0
4.67
0.33
-2.0
0.33
1.33
-2.0
-2.33
0.33
2.33
5.0
-4.0
1.33
0.67
-1.67
-1.33
4.33
-1.0
-2.33
0.0
1.0
-0.33
-3.33
-1.33
1.0
1.0
2.0
2.67
2.67
-0.33
-4.33
-2.33
-2.33
-4.0
-1.67
3.67
1.33
-0.33
-1.33
6.67
-2.33
0.0
1.67
0.0
-0.67
0.67
-0.67
-3.0
-3.67
-6.0
3.33
1.67
2.67
-2.33
0.33
-4.33
-4.0
-3.67
-2.67
-2.0
-4.33
4.33
-5.67
-2.67
-4.33
1.0
-3.33
-3.67
0.33
-0.33
-1.33
-4.0
6.0
6.0
0.67
2.0
-4.33
-1.67
-2.67
1.0
-3.67
-0.67
-5.33
2.67
-2.33
-5.67
-6.67
-3.67
-6.0
-0.67
-5.67
-2.33
2.0
2.33
-5.67
-3.0
-3.0
-4.33
-10.33
-9.33
-2.67
0.0
-1.67
-2.0
-2.0
-6.0
-0.67
-2.33
-4.33
-1.0
-7.0
-2.0
1.0
-8.33
-6.33
-4.0
3.33
-4.67
-3.67
-2.33
-3.0
-13.0
1.33
-2.33
-3.67
-4.0
-7.67
-5.0
-0.67
-3.67
-1.33
-2.33
2.0
-4.33
7.33
3.67
-3.67
-0.33
-0.67
-6.0
0.67
3.0
-9.0
1.0
4.67
6.0
-1.0
5.0
-6.67
-5.33
0.0
2.67
-5.33
-2.67
4.33
-3.67
-2.0
8.33
0.0
-2.67
-0.33
-2.0
0.67
1.33
-2.67
-0.67
0.67
4.33
-2.0
-4.67
-2.0
-1.67
0.0
5.0
-4.0
3.0
-1.67
-3.0
1.0
-7.33
1.0
-7.33
-2.0
2.33
-4.0
5.0
-0.67
15.67
-1.0
9.0
6.67
22.67
17.33
27.67
34.33
32.67
67.33
64.0
67.0
44.0
42.0
33.67
13.67
8.67
1.67
10.33
6.67
4.0
-1.67
-2.33
-5.0
-3.67
6.33
2.67
7.33
1.33
12.0
18.67
15.33
13.67
15.67
36.33
45.33
42.67
52.0
49.0
29.67
22.67
18.33
17.33
-3.67
6.33
12.33
2.67
7.0
11.0
6.33
-4.0
3.33
-7.33
4.67
17.67
5.33
3.0
6.67
-5.33
1.33
9.33
6.67
17.67
7.67
2.67
3.33
11.0
20.0
13.33
17.67
14.67
23.0
19.33
16.0
20.0
23.0
22.67
12.67
15.33
24.67
17.0
17.67
27.33
14.33
21.0
12.67
12.0
16.33
16.67
10.33
13.67
9.0
16.33
3.67
12.0
14.33
12.0
9.33
13.67
13.0
4.0
-2.67
9.67
9.0
10.33
13.33
6.0
5.67
11.33
10.33
9.67
1.67
8.0
14.67
10.0
5.0
9.0
8.67
14.0
16.67
12.67
11.33
8.0
5.33
2.33
12.0
18.33
7.0
23.0
18.67
27.33
29.0
40.0
52.67
62.67
67.33
79.67
67.33
83.0
73.67
82.0
47.33
60.33
50.67
34.33
27.33
20.67
19.33
21.33
15.33
18.67
24.67
17.67
23.67
21.0
21.67
21.0
44.33
49.67
31.67
53.33
35.0
34.33
32.33
41.0
21.0
23.67
28.67
24.33
25.0
24.0
28.33
14.67
18.0
10.33
13.67
18.33
14.0
14.67
11.33
10.33
9.67
6.0
10.33
4.0
16.67
1.33
4.33
16.0
9.33
6.33
8.0
7.33
18.67
14.67
10.33
23.67
21.67
7.33
12.33
31.33
15.67
5.0
14.33
15.0
27.33
32.0
20.33
13.0
8.67
8.0
22.0
23.67
17.33
9.67
12.67
33.0
23.67
21.0
16.33
11.0
27.33
5.33
24.67
19.0
23.0
15.67
7.67
22.0
11.33
15.33
11.33
19.67
-4.0
15.0
18.67
19.67
11.67
20.33
-2.33
19.0
2.67
9.33
7.33
12.67
8.0
10.33
13.33
9.67
13.33
27.67
1.67
6.67
3.67
3.0
4.33
10.33
15.33
1.0
3.33
12.0
2.67
9.67
4.67
9.67
5.0
10.33
-1.0
6.0
2.33
10.0
14.67
3.33
4.0
12.33
10.67
2.67
-5.67
17.67
-0.67
11.33
3.33
-3.67
8.67
4.0
-1.0
3.33
4.0
-1.67
2.33
13.0
-4.67
9.33
12.67
5.0
7.0
1.0
-2.33
8.0
22.0
15.0
10.33
12.33
-1.67
7.33
7.33
4.0
-3.0
13.0
21.67
-0.33
7.67
2.0
3.33
5.67
-12.0
28.67
6.67
11.33
18.33
26.33
21.67
9.0
4.33
4.0
0.0
24.0
13.0
15.67
13.0
5.67
14.33
16.33
18.67
7.67
9.0
16.33
1.67
13.33
13.33
7.67
1.67
-1.0
14.67
7.0
5.67
6.33
8.0
4.67
-2.33
-0.67
5.0
3.67
8.0
-0.67
11.0
12.0
2.33
16.33
5.0
3.0
0.0
0.67
-0.33
11.67
-0.33
1.0
11.67
7.33
-0.33
-3.0
1.67
12.67
-4.0
1.67
-12.0
7.67
-5.0
1.67
6.33
-7.33
-5.0
-2.33
-2.0
6.67
-1.0
-1.0
8.67
20.67
-1.0
4.0
4.33
6.33
6.33
1.0
-4.0
-0.67
-7.0
6.67
-5.0
0.0
-5.0
5.67
-2.33
-1.67
-0.67
-3.67
-0.33
7.0
-3.67
3.67
7.67
-4.0
7.67
13.33
-7.0
3.0
2.33
9.33
10.67
0.33
-1.0
3.0
3.33
8.33
-4.0
-4.33
2.0
7.67
4.67
8.67
5.33
1.67
1.67
5.33
1.0
4.33
3.0
-1.67
-0.33
9.33
4.67
1.33
1.67
5.67
1.33
3.0
6.67
6.67
8.67
-4.67
5.33
7.33
-8.33
1.0
-3.0
3.67
2.33
-0.67
5.33
4.67
2.33
-2.0
-4.67
-2.67
1.67
-3.67
10.67
-3.0
2.33
-2.67
2.67
-1.33
8.33
7.67
-3.67
3.0
-2.0
3.0
-1.33
7.33
5.67
-4.0
1.67
5.33
3.67
2.0
4.0
7.67
2.33
-4.0
1.67
-4.0
4.0
-1.67
1.33
5.33
9.0
5.33
5.0
2.67
-2.0
-3.67
-4.67
3.0
-2.0
-2.67
1.0
-4.67
1.0
2.67
8.67
-6.0
-1.67
1.33
-3.67
-0.67
3.33
0.67
-6.0
-2.67
2.67
4.67
3.33
2.67
-3.33
5.67
4.67
1.67
-1.0
1.33
3.0
0.67
8.33
0.0
-3.0
0.67
2.33
-3.33
0.33
-1.67
-3.67
9.67
5.67
-1.67
-2.0
6.0
1.67
1.0
6.0
3.0
-1.67
0.33
0.0
3.67
3.67
3.67
-5.0
3.0
0.67
-1.0
-2.0
-2.33
1.0
1.0