File: EDX Back Ups and Old Files/Spectra copy 3.3.23/Samples/Low pH SF 60C 4d/6.5.txt
0.0
-21.33
17.67
39.67
9.0
-82.0
-115.0
-10.67
29.67
4.0
-5.67
28.0
0.0
7.33
3.0
7.0
-7.33
5.33
1.0
-0.33
0.67
0.67
1.67
-0.33
-0.33
3.0
0.0
0.0
0.67
0.67
0.33
0.33
0.0
2.0
0.0
-1.67
0.33
0.0
1.0
0.0
-0.67
1.67
0.67
1.0
-0.67
0.67
0.0
0.0
0.67
1.0
0.33
-0.67
-0.33
-0.67
1.0
1.0
-0.33
-1.67
2.0
0.33
-0.67
-0.33
1.0
5.0
2.67
4.67
2.0
5.33
1.0
3.33
-1.33
-3.33
4.33
5.0
2.33
8.67
17.33
4.33
8.33
5.0
12.0
6.67
-2.0
4.0
2.33
3.67
0.33
-2.0
6.0
3.0
7.0
1.0
12.0
5.67
4.67
2.33
8.67
-6.0
2.0
6.67
1.0
2.33
1.67
13.67
2.0
3.33
6.33
8.33
-5.33
0.33
-7.0
3.33
11.0
-2.67
5.33
10.33
-2.33
-0.33
0.33
4.0
5.33
4.67
8.33
5.0
3.0
-0.33
4.33
5.33
-1.0
0.67
1.33
0.67
-1.33
9.67
0.0
4.33
6.33
3.0
5.0
2.33
2.67
3.0
10.33
1.0
1.67
0.33
-1.0
5.0
1.33
2.67
-6.67
3.33
1.67
3.0
6.0
7.0
2.33
-4.33
2.67
4.33
0.67
-2.0
-3.33
3.67
1.33
4.0
8.67
6.33
10.33
0.0
-0.33
-2.33
-2.0
-2.67
1.67
3.67
1.33
3.0
-5.67
5.67
2.0
0.67
1.33
3.33
6.0
2.0
6.0
6.0
-1.33
3.67
-0.67
1.67
4.33
3.67
2.67
2.67
4.33
4.33
-3.0
-1.0
2.33
0.67
10.33
3.67
-1.67
-1.0
3.0
2.67
1.67
4.67
-1.0
0.67
-1.0
5.33
-1.33
2.0
3.33
-2.0
0.0
0.67
-0.33
7.67
4.33
5.0
3.0
3.0
-2.33
4.0
-0.33
-0.33
0.67
1.67
1.0
1.67
1.67
-7.0
0.67
5.67
-2.33
0.33
5.33
1.0
-2.0
3.0
-2.33
2.0
0.33
0.33
-3.67
2.33
3.67
5.67
-1.67
-0.33
-3.0
10.33
6.67
1.0
4.67
2.67
-3.0
2.0
0.67
2.67
5.33
6.0
-2.0
2.33
0.33
5.33
10.0
6.67
-1.0
0.0
3.67
0.33
4.0
1.33
1.33
-3.0
-1.33
4.33
6.33
3.0
-1.0
-2.67
2.67
1.33
-5.33
-0.67
1.0
-0.33
-2.0
6.0
0.67
-1.33
2.67
0.0
3.0
1.0
0.67
-1.33
0.67
-0.33
2.67
-3.33
1.0
1.33
0.67
-1.67
-0.33
2.67
-3.33
-0.33
1.0
-1.33
-2.0
6.33
-0.33
-0.67
0.0
-3.67
-4.0
1.33
-1.33
-0.33
-2.33
-0.67
-2.33
0.0
-1.67
-2.67
2.0
0.67
0.33
-2.67
1.33
-4.33
-4.0
4.67
1.33
-1.67
-0.33
-2.33
-3.0
4.0
2.0
0.67
0.0
-2.33
8.33
-1.67
-1.0
-0.67
0.33
-4.33
-1.33
-1.33
-2.67
-8.67
-4.67
-7.0
3.33
-3.67
-1.33
3.0
-2.67
-10.67
-4.0
1.0
-4.33
-8.33
-1.33
-2.67
1.0
1.33
-6.0
-6.0
0.0
-0.67
-2.33
-5.33
3.0
-4.0
0.0
0.0
-4.33
-2.33
-2.0
-4.67
3.33
1.33
-5.33
-3.0
-10.0
-1.67
-6.33
-3.67
-7.0
-1.67
-4.0
-2.67
-2.67
-4.33
-3.33
1.0
5.67
2.33
-3.33
0.33
-6.33
-4.67
0.0
-0.33
-4.0
-3.0
-4.0
-4.33
4.0
-1.0
-2.0
-6.67
2.67
-4.0
1.67
-2.33
-8.67
-3.67
-5.67
-7.0
-3.67
1.0
0.33
-2.33
-2.0
0.67
0.33
-5.67
-6.67
-10.33
-4.67
0.0
-1.67
-3.0
2.33
8.0
-4.0
2.0
5.0
-0.67
-5.0
-5.0
-7.33
-6.0
-5.33
-2.0
-6.67
0.0
-4.0
-4.67
-3.33
3.0
9.0
-2.33
3.67
2.33
18.67
18.33
21.67
23.33
35.0
44.0
41.0
49.0
32.67
35.67
23.67
13.67
19.33
0.67
-3.0
-0.67
-1.33
-11.0
-2.67
-5.67
2.67
4.33
8.33
4.0
10.67
4.33
9.67
15.67
8.33
4.33
-0.33
5.0
-5.0
-0.33
9.67
8.33
1.33
-3.67
0.33
3.33
0.67
-4.0
1.0
3.33
0.0
-0.67
-5.33
-2.33
7.67
4.33
6.0
9.67
-5.33
2.33
1.33
1.67
0.67
4.67
2.67
8.33
-4.0
16.0
11.33
5.67
10.67
13.0
19.33
22.0
26.0
11.0
24.67
34.67
25.33
19.67
36.0
27.67
20.33
26.33
14.0
23.67
14.0
9.33
9.67
19.33
8.67
4.0
6.33
9.67
6.0
10.33
3.0
7.33
8.67
7.0
6.0
7.33
3.67
8.0
4.33
2.33
8.0
0.67
2.33
5.33
16.67
11.67
7.0
-3.33
0.0
-8.0
12.0
-5.33
11.0
4.67
9.67
9.33
8.0
0.33
4.33
10.0
11.33
8.0
21.0
22.67
22.33
44.0
54.0
73.67
85.67
98.33
90.67
98.33
97.0
77.67
67.0
56.33
72.33
53.67
39.33
53.33
29.67
32.33
23.33
29.33
29.67
37.67
40.67
32.67
25.0
23.67
20.0
26.33
24.67
25.67
25.33
18.0
21.33
37.33
20.0
34.0
26.67
28.67
17.33
21.0
15.0
12.33
-0.33
12.0
15.33
1.67
11.33
-1.0
14.67
0.33
8.33
9.67
6.0
14.33
4.0
5.67
3.33
5.33
3.0
7.33
4.33
7.0
17.33
8.67
3.67
13.33
9.67
13.67
10.33
2.33
12.33
12.67
24.0
8.33
12.0
23.33
18.0
22.33
25.0
18.67
23.0
17.0
2.67
14.33
13.67
3.67
-1.0
4.67
17.0
20.33
7.0
15.33
8.33
6.67
-2.0
12.0
1.67
15.67
4.0
19.33
16.33
13.33
22.67
5.0
4.0
-1.33
6.67
4.67
3.33
-1.33
13.0
4.67
14.33
8.33
12.67
3.0
9.33
2.33
8.67
14.33
14.67
5.67
-3.33
9.67
4.0
-1.67
12.33
18.33
19.0
8.33
11.0
5.67
9.67
7.67
6.67
2.0
1.33
5.0
1.0
3.33
16.0
0.67
5.33
8.0
8.33
1.67
13.67
-3.67
-0.33
0.33
14.33
12.33
7.33
0.67
13.0
-2.0
3.33
9.0
-4.67
-0.67
3.0
4.33
5.33
8.67
16.0
11.0
4.0
-0.33
3.0
0.0
10.0
2.33
19.33
9.33
12.33
0.33
4.0
11.0
7.0
-3.33
-1.33
5.67
-2.0
6.33
21.67
2.0
13.67
7.67
6.33
-5.67
10.33
6.67
-7.0
0.33
14.0
5.0
7.0
4.0
2.67
4.0
-0.33
-6.67
10.33
21.67
15.67
21.0
9.33
3.67
14.33
10.33
11.67
4.67
9.0
18.67
12.0
5.67
3.33
10.0
3.67
9.67
8.33
-9.0
17.67
4.0
4.33
13.0
18.0
0.33
11.33
8.0
2.0
3.0
-8.33
-3.33
9.67
5.67
5.0
3.67
2.33
8.67
2.0
3.67
1.67
0.0
7.67
-2.0
1.67
1.0
4.67
6.33
12.67
4.0
-0.33
1.0
6.67
-2.0
0.0
-7.33
2.67
-1.0
-2.0
-2.67
3.33
6.33
15.0
2.0
12.33
-2.0
2.67
-6.0
3.0
-4.0
-2.33
0.67
3.33
-7.67
8.33
3.67
8.0
1.33
8.67
-0.33
-8.0
10.67
9.33
8.0
10.0
1.33
10.33
5.67
-1.67
10.0
1.0
7.33
4.33
-5.0
8.67
-1.0
-2.33
-3.33
-0.33
-1.67
-3.33
4.67
7.33
10.0
2.33
3.0
3.33
-0.33
6.33
2.67
5.33
0.67
-0.33
-0.67
1.0
0.67
2.67
4.67
1.33
7.33
1.33
1.67
5.0
1.0
3.67
1.33
-2.67
0.33
6.67
5.33
2.0
0.33
0.33
-0.33
2.33
-0.33
1.0
2.33
1.33
2.67
2.67
13.33
5.67
3.33
11.0
-3.0
5.0
1.67
7.33
0.67
-3.0
8.67
6.33
0.67
10.0
10.0
0.67
-3.67
1.0
5.67
-7.0
6.0
4.33
2.33
12.33
3.0
0.33
5.0
3.67
1.0
2.33
7.33
3.0
2.0
-2.67
3.0
0.33
-3.0
0.67
4.67
0.0
6.33
-5.67
-1.67
3.33
3.33
-0.33
0.0
-0.67
4.67
1.67
3.33
7.67
3.67
3.67
1.67
1.67
-2.0
7.33
0.0
0.67
-1.67
-2.0
-3.0
-2.33
2.33
4.67
-2.67
3.33
3.33
7.67
6.67
3.33
1.0
-3.0
1.67
11.0
3.0
7.0
-0.67
1.33
1.0
1.67
-1.33
4.67
2.0
8.0
1.67
1.0
7.0
4.67
1.0
4.0