File: EDX Back Ups and Old Files/Spectra copy 3.3.23/Samples/Low pH SF 60C 4d/7.25.txt
0.0
-96.33
-17.33
-14.33
-2.0
-7.0
-69.0
14.33
-4.33
28.0
-14.67
-17.0
-5.0
3.33
7.0
1.0
-5.33
-3.67
-2.0
-1.33
-0.33
0.67
0.67
-1.33
-0.33
0.0
1.0
0.0
-0.33
0.67
-0.67
-0.67
-1.0
1.0
1.0
-1.67
0.33
1.0
2.0
1.0
-1.67
-0.33
-0.33
0.0
-0.67
1.67
1.0
-1.0
-0.33
2.0
2.33
0.33
0.67
0.33
2.0
-2.0
-0.33
-1.67
2.0
6.33
-0.67
-1.33
4.0
1.0
1.67
-0.33
5.0
4.33
-4.0
5.33
0.67
4.67
2.33
-1.0
-1.67
7.67
0.33
8.33
-5.67
6.0
8.0
11.67
-2.0
2.0
4.33
4.67
4.33
0.0
9.0
-1.0
-5.0
5.0
9.0
-0.33
3.67
-1.67
4.67
1.0
0.0
3.67
2.0
0.33
6.67
5.67
-3.0
4.33
1.33
1.33
-7.33
3.33
-1.0
5.33
9.0
2.33
10.33
4.33
0.67
-2.33
5.33
-3.0
6.33
4.67
4.33
3.0
1.0
-0.33
-1.67
1.33
12.0
4.67
12.33
2.67
-1.33
9.67
4.0
0.33
4.33
6.0
1.0
0.33
1.67
3.0
0.33
8.0
3.67
-1.67
5.0
2.0
-0.67
0.67
0.33
2.33
-1.33
5.0
9.0
6.0
-0.67
1.67
4.67
11.33
2.67
5.0
-0.33
0.67
-0.67
3.0
17.67
6.33
-3.67
5.0
3.67
-3.33
0.0
-0.67
-1.33
2.67
5.33
4.0
-1.67
1.67
2.0
2.67
2.33
-0.67
4.0
7.0
3.0
3.0
0.67
0.67
4.33
-1.33
0.33
1.67
0.67
-0.33
3.33
2.33
-2.0
5.0
-4.67
4.67
3.33
2.67
0.33
1.0
2.0
-2.33
0.67
-2.33
-3.0
-4.33
-1.0
1.33
-1.33
5.0
0.33
2.0
0.0
0.67
2.67
2.67
3.33
2.0
-3.0
6.0
-1.33
0.0
1.67
0.67
0.67
-2.33
3.0
8.67
6.67
-3.0
0.67
4.67
0.67
10.33
6.33
0.0
1.0
2.0
-4.33
5.0
2.33
4.33
-0.67
-1.67
1.67
-1.33
1.33
-1.33
6.0
0.33
0.67
5.0
-2.33
-0.33
1.0
3.0
-0.33
2.67
1.33
6.0
0.0
1.33
0.33
-2.67
2.0
-0.33
0.0
-1.0
4.67
-0.67
-1.0
-1.67
1.33
-3.0
-0.33
-0.67
2.33
0.0
5.0
-2.67
2.67
-0.67
-6.33
0.33
1.0
-2.33
0.0
0.0
-2.33
-3.33
0.67
3.0
6.0
2.0
5.67
2.67
0.67
0.67
6.67
0.67
-5.0
-2.67
3.67
0.33
0.67
-2.33
-0.33
-1.33
-1.0
0.67
5.0
1.33
-3.33
3.33
2.0
0.33
-2.0
-3.67
-3.33
-1.33
-2.33
0.33
-2.33
2.0
-1.67
-1.67
-2.0
8.67
0.33
-3.67
4.33
0.67
-3.0
-3.33
2.33
-1.67
6.67
4.67
-2.0
-1.0
3.0
-0.33
0.0
-3.33
0.33
-7.67
0.0
-1.67
-3.67
-1.33
-3.33
-2.33
-3.67
-4.67
-3.67
-8.0
-2.67
-3.67
-0.33
5.0
-5.67
-6.67
-3.0
-1.0
1.67
-7.33
-6.33
-3.67
-1.0
-0.67
-4.0
-6.0
-2.0
-4.67
-1.33
-6.33
6.0
-8.0
0.0
0.0
2.67
-2.33
-1.0
1.33
-3.67
-10.67
-6.33
-1.0
-5.0
-2.67
-2.33
-2.67
-11.0
-8.67
-6.0
-6.67
-6.67
0.67
-6.33
1.0
-0.33
5.33
-8.33
-2.67
-4.33
-1.67
-7.0
5.67
-1.0
-6.0
4.0
0.67
4.0
-1.0
-5.0
-4.67
2.67
-3.0
8.67
-1.33
3.33
-5.67
-8.67
-5.0
7.33
-5.0
-0.67
2.67
-1.0
-9.33
-4.67
-5.67
-4.67
2.67
-1.67
-2.0
-8.67
-2.0
-1.67
1.0
-2.0
3.0
7.0
-0.67
-12.0
-8.0
-9.33
-2.0
-2.33
5.0
-9.67
1.0
-7.0
-2.67
9.67
-5.0
8.0
13.67
22.67
45.33
66.67
84.33
81.67
70.33
55.0
48.0
39.0
28.0
19.67
9.67
3.67
2.67
6.33
-9.33
-7.0
-4.67
-6.33
-9.0
-0.67
-5.67
4.67
5.33
11.33
5.0
3.67
1.33
17.67
18.67
18.33
8.33
5.67
19.0
9.0
3.67
-6.33
-2.67
2.33
2.33
9.33
8.33
-0.33
20.0
19.0
21.33
43.0
22.33
14.67
12.67
10.67
19.33
6.0
8.67
1.67
2.33
4.33
14.67
16.67
19.67
29.67
25.33
23.0
25.0
15.33
11.67
14.67
17.0
13.33
8.0
14.0
7.0
0.67
17.67
18.33
17.67
3.0
13.67
22.33
12.33
13.0
17.67
24.0
12.33
17.67
5.33
11.67
5.0
24.33
12.67
-2.0
3.33
8.0
3.33
5.67
7.0
-4.0
5.33
-0.33
8.0
1.33
0.33
-2.0
5.67
7.33
7.33
13.67
1.67
-5.0
-1.33
10.0
2.0
5.0
-1.33
7.0
2.67
16.67
4.33
12.0
5.33
7.33
3.0
15.33
11.0
16.0
20.67
25.33
24.0
33.0
51.67
40.67
27.33
37.67
40.33
50.0
45.67
44.0
36.33
37.33
23.67
33.33
21.33
17.67
20.33
11.33
22.33
14.67
20.67
28.67
22.67
23.0
11.67
35.0
32.33
39.67
30.67
45.33
34.0
24.33
30.33
26.0
33.0
19.67
36.67
4.33
29.0
20.0
13.33
6.67
12.0
9.33
13.67
14.33
7.0
9.67
5.33
4.33
10.67
4.0
4.33
5.0
5.67
10.33
12.33
7.0
13.33
0.33
7.0
15.33
1.67
7.67
18.33
15.67
15.67
10.33
-3.67
20.33
23.67
12.0
16.33
14.0
14.33
17.0
24.33
14.0
22.67
29.0
27.0
16.67
11.33
36.67
16.67
8.0
16.67
11.0
23.33
12.0
8.33
9.33
14.67
12.0
27.0
9.67
19.67
1.0
15.33
12.33
11.33
12.67
5.0
15.0
14.67
-0.33
8.67
1.33
10.67
12.0
1.67
7.33
15.33
7.67
3.0
14.33
13.33
14.67
8.33
9.67
11.67
9.67
18.67
5.0
-1.67
15.33
16.33
2.0
12.33
15.0
6.67
4.67
13.67
8.67
1.0
8.33
2.0
6.0
-2.67
13.0
-4.33
13.33
7.0
-1.67
-2.33
-2.33
-9.67
12.67
15.33
0.33
9.33
2.33
4.67
-4.0
1.0
-0.67
-3.0
-0.67
8.33
9.0
4.33
10.33
-0.33
3.0
3.0
-2.0
-3.33
-4.0
-5.0
6.0
5.33
4.33
-4.67
3.33
3.33
3.0
6.0
13.0
12.67
-5.33
13.67
6.0
7.33
11.67
-1.0
19.67
-2.33
10.33
1.33
-1.67
13.67
1.0
10.33
8.0
10.0
6.0
8.0
6.67
5.0
9.67
6.33
0.33
11.67
-1.33
-6.0
5.33
9.67
4.33
2.33
5.67
3.67
4.0
3.67
8.0
11.67
29.33
2.0
-1.33
13.67
9.33
12.0
9.67
14.0
4.33
8.0
26.0
5.33
8.33
7.0
2.0
-2.0
6.67
4.67
6.67
3.67
6.0
0.67
-11.67
2.67
0.0
8.67
15.67
4.0
9.67
-1.0
14.67
-5.0
10.67
7.33
2.67
-3.0
-5.33
0.0
10.67
-4.0
-4.0
-1.33
6.67
2.0
-3.0
-1.67
14.33
3.33
9.0
-2.0
-4.67
0.0
8.67
3.0
7.0
-5.0
-0.33
-3.33
-2.67
-1.67
5.33
0.67
2.0
11.33
6.67
1.67
0.0
9.67
16.33
0.0
10.0
6.33
5.33
3.67
3.33
6.0
10.0
6.33
3.33
-1.0
-1.33
1.0
3.67
0.67
1.67
5.33
5.67
5.67
-1.67
3.0
-0.67
5.0
5.33
3.67
-1.67
-0.33
0.33
10.67
2.67
-1.67
7.0
-0.33
5.67
7.67
-0.67
6.33
2.33
0.67
-5.0
-2.0
9.67
7.33
0.33
1.33
0.67
7.33
4.0
1.33
6.33
0.67
3.33
12.67
11.0
6.33
2.33
13.67
1.67
8.33
2.67
1.33
9.0
2.0
2.0
6.67
10.33
7.67
-5.0
6.67
3.33
4.67
10.0
3.0
0.67
-1.67
8.0
3.67
1.0
-2.0
6.33
1.33
6.33
4.0
-3.67
-2.0
4.67
3.0
0.33
2.33
-1.0
-1.0
-1.67
2.0
-0.67
0.0
1.67
2.67
7.0
6.33
-4.67
5.33
8.33
2.33
2.67
0.0
0.33
8.67
5.67
8.33
1.67
0.67
6.67
2.67
9.67
4.0
4.33
2.0
4.67
9.33
2.0
4.0
6.67
2.33
0.67
0.33
-2.67
2.33
4.67
4.67
5.33
-5.0
-4.0
-0.33
1.0
7.0
6.0
0.33
6.33
3.0
-4.33
0.67
-1.33
0.0
0.0
1.67
0.0
2.0
11.67
2.0
-1.0