File: EDX Back Ups and Old Files/Spectra copy 3.3.23/Samples/Low pH SF 60C 4d/7.5.txt
0.0
-41.33
-75.33
71.67
-3.0
-34.0
-102.0
-21.67
2.67
-3.0
-10.67
1.0
9.0
11.33
-2.0
-1.0
0.67
2.33
1.0
-2.33
0.67
1.67
-0.33
-0.33
1.67
2.0
2.0
0.0
-0.33
0.67
-0.67
0.33
0.0
0.0
3.0
-1.67
-0.67
0.0
0.0
0.0
-1.67
-0.33
0.67
2.0
-0.67
1.67
3.0
0.0
-0.33
1.0
-0.67
-0.67
0.67
-0.67
2.0
-1.0
-1.33
2.33
0.0
2.33
-0.67
2.67
-2.0
1.0
-0.33
1.67
6.0
7.33
-2.0
-0.67
-1.33
1.67
3.33
7.0
5.33
1.67
5.33
5.33
-7.67
7.0
8.0
4.67
1.0
5.0
-0.67
3.67
3.33
2.0
-1.0
6.0
-1.0
-4.0
7.0
1.67
2.67
-2.67
-1.33
-7.0
6.0
10.67
0.0
4.33
3.67
3.67
-2.0
-2.67
5.33
8.33
-1.33
11.33
0.0
5.33
2.0
1.33
2.33
4.33
1.67
2.67
1.33
-1.0
5.33
6.67
3.33
11.0
9.0
0.67
2.33
-3.67
7.0
3.67
3.33
9.67
2.67
-0.33
-6.0
0.33
4.33
1.0
5.0
3.33
3.67
7.0
2.33
4.0
2.67
2.33
-1.0
2.0
-1.67
2.67
2.33
4.33
1.67
6.0
0.0
5.0
-4.67
6.67
10.67
6.33
-0.33
3.0
0.67
3.67
1.33
3.0
0.67
9.33
1.33
0.0
4.67
-2.33
6.0
3.33
-0.33
6.67
2.33
-1.0
-4.67
-0.33
-3.0
2.67
2.33
5.33
6.0
6.0
4.0
4.0
-1.33
-0.33
4.33
-0.33
3.33
4.67
-2.33
0.67
-0.67
5.33
4.0
-1.0
2.33
6.67
2.33
-2.33
2.33
0.0
0.0
1.67
3.67
6.67
0.0
-0.33
3.0
1.33
-1.33
2.0
0.33
-3.0
8.0
-3.33
5.67
1.67
-1.67
-2.0
1.0
0.0
-1.33
6.0
4.67
5.67
7.67
-3.33
6.0
-0.33
5.67
-3.0
-3.33
6.67
4.67
-3.67
5.33
9.0
0.0
-2.0
-4.33
0.0
0.33
1.33
1.33
2.33
0.67
2.67
4.33
0.67
0.0
3.33
2.67
7.0
0.67
0.67
-1.0
2.0
-2.33
0.67
-1.67
8.0
0.0
2.33
-3.67
7.33
2.0
-1.33
1.0
-2.0
0.67
-0.67
1.0
6.33
-1.67
-2.0
-3.33
4.33
5.33
2.0
-2.0
2.33
0.67
0.33
-0.33
0.33
-1.0
-4.33
2.0
2.0
0.67
-3.33
-0.33
-2.0
6.0
6.0
1.67
3.67
-4.33
-3.33
-2.33
1.67
-4.0
-0.67
0.67
0.33
0.67
-2.33
-1.33
-2.33
1.0
-1.33
-1.0
-2.67
-0.33
-4.67
-1.0
-2.67
-1.0
-2.67
0.67
3.67
-3.33
1.33
3.67
3.0
-1.67
-2.67
1.0
1.67
-0.67
-2.67
-0.67
-1.33
-1.0
-5.33
-0.67
-5.67
0.67
-0.33
-4.0
1.0
2.0
1.67
-4.0
-1.33
-0.67
-3.67
-1.0
-2.67
-2.67
-2.33
-5.33
1.67
-1.67
-5.67
-5.67
-12.0
-0.67
-5.67
-4.33
1.0
-4.67
-4.67
-4.0
-2.0
-0.33
-7.33
-5.33
1.33
-2.0
-6.67
1.0
-1.0
-2.0
-3.67
-0.33
-4.33
-2.0
-2.0
-4.0
-3.0
-1.33
-5.33
1.0
-0.67
-0.67
-2.67
-1.33
1.0
-11.0
-3.67
-8.33
-3.67
3.0
-11.67
-12.0
-4.67
2.33
-5.33
-7.33
-3.0
-6.33
5.33
-8.33
-4.67
-1.33
-3.67
0.0
-5.33
6.0
-5.0
-3.0
-2.33
1.0
-2.0
0.0
-8.67
-13.33
-3.0
3.67
-7.33
-5.67
-6.67
-7.67
-6.0
-5.67
2.0
-1.67
-7.33
-3.0
-5.33
2.33
1.33
-8.67
-2.33
0.33
-2.0
-10.67
0.0
0.33
-1.0
-6.0
-2.0
-1.0
2.33
-3.0
-1.0
-6.33
-5.0
-2.33
8.0
1.33
5.0
1.0
-5.67
9.67
5.0
3.0
2.67
17.67
32.33
58.67
76.33
82.67
81.33
72.0
72.0
37.0
35.0
15.67
2.67
3.67
2.67
-0.67
-2.33
1.0
-3.67
-5.33
0.0
9.33
4.33
2.67
4.33
4.33
4.0
9.67
5.33
3.67
8.67
5.33
7.33
9.67
7.0
5.0
2.67
1.67
8.33
-9.67
-3.67
8.33
2.33
-0.33
14.0
15.0
19.33
10.0
11.33
13.67
9.67
14.67
18.33
2.0
2.67
-5.33
9.33
13.33
11.67
15.67
19.67
12.67
19.33
21.0
24.0
23.33
24.67
13.67
36.0
32.33
36.0
21.0
30.0
18.67
15.67
13.33
15.67
18.0
18.67
26.33
10.33
14.0
10.67
30.0
25.33
14.67
10.33
18.67
7.0
12.33
6.67
-1.0
3.33
9.0
-3.67
3.67
4.0
-5.0
8.33
10.67
8.0
2.33
12.33
1.0
-0.33
10.33
1.33
4.67
7.67
15.0
21.67
-2.0
15.0
5.0
8.67
19.0
9.67
7.67
15.33
14.0
6.33
3.33
1.0
12.33
13.0
35.0
38.67
23.33
39.0
49.0
55.67
58.67
59.33
56.67
55.33
62.0
47.67
33.0
31.33
32.33
24.67
30.33
27.33
17.67
26.33
38.33
37.33
21.67
22.67
26.67
24.67
19.0
14.67
25.0
40.33
26.67
49.67
37.33
23.0
31.33
23.33
21.0
29.0
25.67
20.67
21.33
25.0
12.0
8.33
6.67
13.0
11.33
12.67
8.33
7.0
-1.33
12.33
15.33
11.67
8.0
10.33
5.0
14.67
18.33
2.33
12.0
12.33
5.33
-1.0
3.33
3.67
12.67
29.33
11.67
26.67
24.33
11.33
19.33
20.67
33.0
23.33
22.0
31.33
16.0
26.33
7.0
13.67
29.0
16.0
24.67
17.33
7.67
15.67
13.0
25.67
19.0
28.33
8.0
27.33
16.33
21.67
12.0
19.0
15.67
0.67
-1.0
28.33
9.33
18.33
16.67
15.0
25.0
11.67
12.67
23.67
17.33
9.67
15.0
9.67
11.33
8.33
18.67
5.0
12.33
7.33
9.67
7.33
10.67
11.67
5.67
7.67
16.0
0.33
11.33
14.33
17.0
3.33
16.0
13.67
9.67
15.67
12.67
19.0
8.33
16.0
4.0
6.33
7.0
10.67
9.33
6.0
6.33
12.67
16.67
-0.67
3.67
7.33
2.33
4.33
-5.67
2.67
6.0
9.0
12.33
2.0
8.33
9.33
8.0
6.33
12.33
6.67
1.0
10.0
-6.0
8.67
10.0
0.0
-5.0
8.33
9.33
-1.67
0.33
2.33
-11.0
0.0
15.0
14.67
-6.33
7.67
-7.0
2.33
8.67
-7.0
10.67
8.67
12.33
7.33
12.33
6.67
1.0
6.33
10.0
6.0
12.0
15.0
7.67
5.0
-4.33
5.33
9.33
0.67
17.67
3.0
7.33
18.67
10.33
2.33
10.67
12.67
1.0
9.67
-2.0
19.67
20.33
7.0
5.67
3.67
12.33
-11.0
15.67
19.0
0.33
-6.0
15.0
9.33
14.33
8.0
-5.0
5.0
-8.33
13.67
13.67
-4.33
8.0
10.67
0.33
1.67
10.0
-3.33
2.67
2.0
7.67
1.0
6.67
-7.0
11.67
0.33
6.67
1.0
-5.33
4.0
0.67
4.0
7.0
9.67
21.67
9.0
2.0
-3.67
8.33
6.33
6.0
-7.0
2.33
-5.0
5.67
8.0
4.0
-2.0
-8.33
4.67
9.33
0.33
0.33
-4.33
9.0
-2.67
3.67
5.67
10.0
16.67
7.33
-2.0
11.0
-4.67
8.33
-5.33
-2.67
5.0
-3.0
8.33
9.33
-3.0
-2.33
7.0
-2.33
3.67
-1.33
3.33
-5.33
-2.33
0.33
11.0
-2.67
-1.0
0.33
2.67
0.33
3.67
0.33
3.67
1.67
1.33
7.0
0.67
3.67
3.67
2.33
6.33
-0.67
3.67
4.0
7.0
5.67
4.33
-2.67
-2.67
-3.33
9.33
-3.0
-1.67
-1.67
7.67
1.33
8.67
12.0
3.33
2.33
-1.33
2.67
4.33
0.67
4.33
8.0
4.0
5.0
4.67
15.33
8.67
-1.0
3.67
6.33
6.67
6.0
3.0
2.67
-0.67
3.0
4.67
7.0
-1.0
2.33
3.33
3.33
7.0
4.33
1.0
6.67
6.0
7.33
-6.67
2.0
5.0
1.33
9.0
0.33
3.0
0.67
4.67
5.0
6.33
1.33
3.33
-2.67
4.33
1.67
-2.0
6.33
2.67
4.67
4.33
13.67
1.67
1.67
5.67
11.67
2.0
7.33
2.0
-3.33
5.33
-1.0
9.0
9.67
0.33
6.67
-1.67
3.33
7.33
-1.33
0.67
1.33
5.0
10.0
5.67
14.0
6.0
5.0
4.33
0.33
-1.0
-3.33
1.67
6.67
1.0
5.0
9.67
7.0
5.0
6.67
12.0
-2.0