File: EDX Back Ups and Old Files/Spectra copy 3.3.23/Samples/Low pH SF 60C 4d/8.75.txt
0.0
-46.33
-46.33
-39.33
23.0
-59.0
-28.0
-18.67
-29.33
-45.0
-7.67
-18.0
-9.0
5.33
14.0
1.0
-1.33
-0.67
0.0
0.67
-0.33
-0.33
-0.33
-0.33
0.67
0.0
0.0
0.0
-0.33
-0.33
-0.67
-0.67
0.0
0.0
2.0
-1.67
-0.67
0.0
1.0
0.0
-1.67
-0.33
-0.33
0.0
0.33
-0.33
-1.0
-1.0
-0.33
2.0
0.33
-0.67
2.67
-0.67
3.0
0.0
1.67
-2.67
-3.0
2.33
0.33
-4.33
2.0
2.0
-2.33
1.67
2.0
2.33
3.0
1.33
0.67
-3.33
1.33
-3.0
2.33
-0.33
-3.67
5.33
0.33
1.0
1.0
3.67
2.0
3.0
3.33
4.67
15.33
2.0
6.0
-6.0
2.0
5.0
5.0
3.67
6.67
-1.67
-3.33
5.0
7.0
3.67
8.0
3.33
3.67
2.67
0.0
-1.67
0.33
-0.67
0.67
-0.67
2.0
4.33
5.0
-1.67
0.33
4.33
3.67
0.67
-2.67
0.0
7.33
5.67
8.33
8.0
2.0
-1.33
4.33
-1.67
2.0
7.67
1.33
8.67
3.67
0.67
-6.0
3.33
7.33
-2.0
2.0
0.33
2.67
-1.0
4.33
1.0
-1.33
1.33
0.0
-4.0
1.33
3.67
3.33
3.33
-5.33
2.0
0.0
4.0
5.33
-1.33
-1.33
12.33
-1.33
-6.0
-4.33
5.67
4.33
4.0
-1.33
6.33
9.33
-1.0
-3.33
-2.33
-2.0
-2.67
1.67
2.67
1.33
4.0
5.33
1.67
-1.0
-3.33
-2.67
4.33
-5.0
-2.0
8.0
0.0
-4.33
0.67
4.33
-1.33
2.33
5.67
2.67
5.67
2.33
5.33
8.0
3.0
4.33
3.67
5.33
6.67
0.33
0.0
0.0
-0.33
-2.33
6.67
7.0
-5.33
-5.0
6.33
-0.33
8.0
1.33
0.0
2.0
2.67
3.67
1.67
11.33
-3.0
-5.0
3.0
-1.33
4.0
6.67
-1.33
4.67
-1.33
4.0
-1.33
4.67
0.0
-3.33
1.67
1.67
0.33
3.33
-2.0
-2.0
7.0
1.67
-2.0
-1.67
0.33
-0.67
1.33
5.67
5.67
-2.67
-1.33
-1.0
0.33
-1.33
3.0
0.67
0.67
1.0
-1.0
-5.33
0.67
-0.67
2.0
-1.0
1.33
-0.67
-0.67
2.0
-1.33
-4.0
0.0
4.67
1.33
0.0
3.33
-0.67
-2.0
-1.33
-1.67
3.33
1.0
-4.0
-2.67
0.67
1.33
-6.33
3.33
-3.0
-4.33
-2.0
8.0
-2.33
-3.33
-0.33
2.0
-2.0
-1.0
0.67
4.67
-1.33
-5.33
0.67
1.67
0.0
3.33
-2.33
0.33
1.67
-2.33
4.67
4.67
2.0
0.67
-2.0
-4.67
1.67
-3.67
2.0
-0.67
-4.0
-1.67
-2.33
-0.33
-1.33
4.33
-4.33
-2.0
0.33
-1.67
2.0
0.67
-1.67
-0.67
-0.67
-4.33
2.0
-1.33
0.33
-1.67
1.67
-4.33
-4.0
3.0
1.0
-1.33
-5.0
-4.33
0.33
-4.67
1.0
-3.67
-2.67
-5.33
6.67
-3.33
-5.67
-5.67
-1.67
-7.0
-3.67
-7.67
-0.33
-2.0
-2.67
-0.67
-7.0
-2.0
-8.33
-6.33
-7.33
-7.67
-4.0
-0.67
5.0
-5.0
-3.0
-5.67
-2.33
-1.33
-4.0
-7.0
-2.0
-4.0
-1.33
-0.33
2.0
-3.67
-6.67
-10.67
-0.33
-2.0
-9.0
-5.67
0.67
-2.67
-6.0
-12.67
-5.0
-6.67
-4.67
-0.33
-5.33
4.0
-2.33
1.33
-6.33
-8.67
-4.33
-2.67
-2.0
-3.33
-3.0
-8.0
-6.0
0.67
8.0
-3.0
0.0
-5.67
-5.33
-1.0
-0.33
-2.33
-5.67
-3.67
0.33
-9.0
-1.67
5.0
3.33
0.67
5.0
-2.33
-0.67
-6.67
0.33
-0.33
-0.67
-6.0
-5.67
2.0
-2.67
3.0
-1.0
5.0
-2.0
2.33
-8.0
5.0
-6.33
1.0
-1.33
7.0
-5.67
3.0
7.0
0.33
-0.33
-6.0
8.0
-4.33
18.67
-2.67
17.67
13.33
17.67
14.33
18.0
13.0
24.0
12.0
3.67
7.67
9.67
6.67
5.33
-3.33
-4.0
-1.67
-1.33
-10.0
4.33
-5.67
1.67
-1.67
5.33
20.0
9.67
12.33
22.67
26.67
27.33
25.33
16.67
9.0
17.0
8.67
-0.33
7.33
2.33
6.33
4.33
2.33
3.67
7.0
0.0
-0.67
-2.0
2.33
-5.33
-7.33
11.67
13.33
11.0
10.67
0.67
11.33
6.33
8.67
2.67
4.67
8.67
13.33
11.0
12.0
12.33
24.67
36.67
15.0
30.33
29.0
25.0
28.0
9.67
17.67
19.33
19.67
12.0
20.67
12.33
21.33
30.0
12.67
12.0
7.33
13.67
26.33
13.67
6.0
15.33
4.67
6.0
9.33
23.0
10.33
1.67
2.0
-7.0
7.33
9.67
14.0
12.33
21.33
14.0
7.67
12.33
22.33
22.67
12.67
26.0
32.67
31.0
43.0
26.0
56.67
53.0
33.67
52.67
31.33
10.0
17.33
11.33
14.0
17.33
9.0
18.0
7.67
22.33
16.0
17.0
22.67
44.67
48.33
43.67
39.33
46.0
39.67
30.0
19.33
38.33
20.67
22.33
9.33
12.67
13.33
29.33
30.33
27.67
27.67
33.67
30.67
23.0
24.67
38.0
41.33
35.67
32.67
48.33
30.0
34.33
30.33
44.0
37.0
37.67
26.67
23.33
38.0
27.0
23.33
24.67
20.0
17.33
6.67
12.33
3.0
6.67
3.33
12.33
5.67
1.0
8.33
2.0
6.67
6.33
1.33
8.0
8.33
6.33
2.0
20.33
23.67
14.67
6.33
9.67
6.67
5.33
30.33
35.33
19.67
11.0
20.33
26.0
19.33
15.0
18.33
18.0
18.67
17.0
17.0
14.67
5.33
13.67
13.67
9.0
14.67
10.0
11.33
4.0
12.33
22.33
11.67
4.0
18.0
14.67
9.67
-2.0
5.33
9.33
5.33
9.67
13.0
14.0
7.67
15.67
9.67
3.33
-3.33
9.0
4.67
23.33
11.33
13.67
11.0
24.33
10.33
8.67
7.33
14.67
10.67
3.67
14.67
5.0
15.33
5.33
16.33
3.0
3.33
17.0
11.67
8.67
15.67
6.67
3.0
19.33
3.0
4.0
3.33
3.0
1.67
0.33
8.0
2.33
6.67
1.67
-4.67
6.67
2.33
14.33
-2.67
-0.67
12.67
5.0
15.0
6.33
6.0
-1.67
3.33
0.0
9.33
3.33
4.67
1.0
16.0
-1.0
-4.33
6.0
6.0
10.0
10.33
10.33
16.33
8.33
4.33
1.0
3.0
9.0
0.67
0.67
4.67
-5.0
-0.67
11.67
9.0
22.67
6.67
9.33
6.33
14.33
7.67
-2.0
10.33
8.0
0.0
15.0
14.0
19.67
10.0
-5.33
-10.67
2.33
3.67
20.67
11.0
-1.67
13.67
7.33
8.33
16.67
3.67
2.0
10.67
14.0
12.67
6.33
3.0
12.67
7.67
16.33
4.0
16.67
8.0
8.33
7.0
11.0
6.33
-3.67
10.0
2.0
2.0
-0.33
18.67
-2.33
10.67
4.0
3.67
10.33
6.67
-4.0
1.67
10.67
7.0
9.67
-12.0
1.67
-5.0
2.67
-0.67
0.67
10.0
-7.33
6.0
9.67
5.0
-1.0
7.67
0.67
5.0
0.0
2.33
7.33
3.33
9.0
1.0
-1.67
-5.0
-4.33
-2.0
8.0
-2.0
-4.33
1.67
1.33
0.33
-3.67
8.67
-5.0
-0.67
4.67
10.67
10.0
-5.33
-0.67
7.0
9.0
-0.67
5.33
10.67
-6.67
1.0
2.0
7.33
7.33
-2.0
2.67
14.0
0.67
10.67
3.67
3.33
1.67
2.67
1.33
15.0
-5.67
2.0
0.33
3.67
8.33
2.67
4.33
2.67
5.67
17.33
2.0
4.67
1.67
-1.33
-1.67
13.33
-4.67
-5.33
4.0
-2.0
1.67
-6.67
1.33
-5.67
2.67
4.33
-1.0
1.33
2.33
2.67
-1.67
10.67
2.0
-5.67
5.33
3.67
4.67
6.33
7.67
4.33
9.0
6.0
-2.0
2.67
-0.67
3.67
9.0
4.67
0.33
3.67
11.0
4.0
-0.33
-2.67
1.0
9.67
-2.0
1.0
3.33
1.33
0.33
1.0
-0.67
3.0
-5.33
1.0
1.33
-2.67
-5.0
1.0
-1.67
4.0
3.33
2.0
3.67
4.67
2.0
7.33
-4.67
1.33
1.33
-1.67
-2.33
-6.0
-2.67
-0.33
1.67
3.33
3.67
-0.33
3.67
1.67
6.67
8.0
2.33
-1.0
6.67
-1.67
3.0
5.0
-5.33
-1.67
-3.33
1.33
0.33
3.33
12.67
-0.33
-0.67
0.0
-2.0
0.67
10.0
-1.0
1.0
-4.67
0.33
8.0
2.67
0.67
2.67
2.0
5.0
-1.33
-2.0
-3.0
1.67
5.0
1.0