File: EDX Back Ups and Old Files/Spectra copy 3.3.23/Samples/Low pH SF 60C 4d/9.25.txt
0.0
-79.33
2.67
104.67
25.0
-72.0
17.0
37.33
-4.33
36.0
-6.67
-5.0
7.0
12.33
-1.0
8.0
1.67
1.33
-2.0
-2.33
-1.33
-1.33
0.67
-1.33
0.67
0.0
0.0
0.0
-0.33
-0.33
-0.67
1.33
-1.0
2.0
0.0
-0.67
-0.67
0.0
1.0
1.0
-1.67
-0.33
0.67
0.0
1.33
-0.33
0.0
0.0
-0.33
1.0
0.33
-0.67
-0.33
-1.67
3.0
2.0
0.67
-0.67
-3.0
9.33
-0.67
-3.33
4.0
5.0
-1.33
-2.33
2.0
-1.67
0.0
6.33
0.67
-0.33
1.33
4.0
1.33
-0.33
-0.67
1.33
2.33
-1.0
9.0
7.67
-3.0
5.0
1.33
-0.33
4.33
3.0
1.0
0.0
-2.0
-3.0
3.0
1.67
1.67
4.33
-3.33
0.0
5.0
2.67
3.0
2.33
-1.33
5.67
-1.0
4.33
-1.67
6.33
-4.33
5.33
-4.0
-0.67
-2.0
0.33
3.33
7.33
0.67
1.67
-0.67
0.0
-5.67
2.67
2.33
-1.0
0.0
-2.33
4.33
-0.67
7.0
-0.33
9.33
4.67
-1.33
0.67
-2.0
0.33
7.33
5.0
5.0
12.33
2.67
0.0
1.33
9.0
0.67
-0.67
1.0
-1.0
-1.67
6.67
1.33
-1.67
2.67
5.0
8.0
3.0
0.33
-0.33
1.67
5.33
5.67
0.0
2.67
4.67
2.33
2.0
5.67
3.33
7.33
4.0
0.67
2.67
-2.0
0.33
-0.33
1.67
0.33
1.0
-0.67
-0.33
7.0
-0.33
-3.67
2.33
-2.0
-1.0
-4.0
0.0
-0.33
1.67
3.33
-0.33
5.33
0.67
-0.33
7.67
-2.67
1.33
3.0
-1.0
4.33
-0.33
5.33
1.67
-0.67
4.0
-3.0
-6.33
-5.33
4.67
-2.0
-0.33
-3.0
3.33
-0.33
3.0
-3.67
-4.0
5.0
4.67
-2.33
2.67
5.33
0.0
0.0
1.0
0.67
4.0
1.67
-1.33
-5.33
-4.33
1.0
4.67
-0.33
-2.0
2.67
6.67
2.67
-2.67
3.33
4.0
0.0
2.0
0.67
-2.0
-2.67
3.33
-5.67
0.33
0.67
1.67
-5.67
-4.33
-4.0
1.33
1.67
-2.0
-0.33
-1.33
6.0
1.0
-3.33
1.67
3.33
4.0
2.0
-0.67
-4.67
1.33
5.0
4.67
0.0
-2.0
2.67
0.33
1.0
2.33
-1.67
1.0
-5.33
0.33
-0.67
5.0
-1.0
-2.67
-2.33
-1.67
-8.33
-3.67
4.0
-2.33
-1.0
1.0
-3.33
0.67
-5.33
3.0
5.0
2.0
0.67
-1.33
-4.33
-2.33
-4.33
0.67
2.0
-2.67
-1.33
-1.67
-1.33
0.67
2.67
-5.33
4.0
-2.33
-1.0
0.33
-4.33
-1.67
1.0
0.33
-3.0
-0.67
-0.33
6.67
-1.33
-0.67
-5.33
2.0
-1.67
0.33
0.0
-5.33
5.33
-4.67
-1.67
-5.33
-5.0
-4.33
-2.67
2.33
2.67
1.67
-2.0
1.0
-1.0
-1.33
3.0
-1.33
3.33
-7.67
-1.0
-0.67
-3.67
-3.33
2.67
-2.33
-5.67
-4.67
0.33
-5.0
1.33
5.33
-2.33
-1.0
-1.67
-1.67
-3.0
-5.0
-0.33
-13.33
-5.33
-3.67
0.0
-1.67
-7.0
-1.0
-4.0
-0.67
2.67
1.67
-3.0
6.0
-6.0
-6.0
-4.33
0.67
1.0
-5.67
-6.67
-5.67
-3.33
-5.0
-2.0
1.33
-3.33
-2.67
-8.0
-7.67
-2.0
-2.67
-4.67
-4.33
-6.33
5.0
-2.33
7.33
4.67
-6.67
0.67
-5.67
-5.0
5.67
1.0
-9.0
-3.0
0.67
5.0
-5.0
-4.0
2.33
-7.33
-4.0
-2.33
-4.33
-4.67
5.33
-4.67
1.0
-3.67
6.0
-1.67
2.67
-2.0
-2.33
-6.67
4.33
-2.67
4.67
-0.67
7.0
-1.67
8.0
-3.67
6.0
-7.0
2.0
8.0
9.33
-7.0
-4.0
-1.33
0.0
0.67
-3.0
-1.67
-3.0
0.0
-6.67
8.67
-4.0
5.0
2.67
11.67
12.33
12.67
24.33
10.67
22.33
27.0
23.0
19.0
13.0
15.67
8.67
4.67
5.67
3.33
-11.33
-5.0
14.33
-4.33
-4.0
4.33
-4.67
0.67
-2.67
5.33
2.0
20.67
22.33
28.67
21.67
31.33
34.33
29.67
37.0
34.0
21.67
13.67
20.33
10.33
-3.67
7.33
3.33
-0.33
2.0
3.0
0.33
0.0
5.33
-5.33
2.67
5.67
6.33
4.0
11.67
4.67
1.33
14.33
14.67
16.67
11.67
12.67
16.33
8.0
17.0
22.33
18.67
27.67
34.0
38.33
46.0
41.0
39.0
23.67
22.67
9.33
19.67
11.0
24.67
6.33
10.33
8.0
15.67
19.0
9.33
10.67
6.33
2.67
17.0
15.33
8.67
9.0
13.33
5.0
4.33
8.67
14.0
9.0
3.33
6.67
14.0
10.33
9.33
5.0
6.67
6.33
9.33
3.67
6.67
16.0
20.67
26.0
24.0
35.0
29.67
38.0
28.67
37.67
18.33
21.0
19.33
9.33
5.0
8.33
5.0
26.0
8.67
12.33
41.0
24.0
34.67
45.67
60.33
36.67
36.33
35.0
38.67
35.0
27.33
28.33
29.67
20.33
26.33
27.67
29.33
12.33
18.33
25.67
21.67
22.67
32.67
23.0
21.67
32.0
59.33
66.67
66.67
90.33
63.0
73.33
52.33
47.0
69.0
72.67
68.67
54.33
68.0
60.0
47.33
31.67
42.0
46.33
21.67
21.33
23.0
26.67
24.33
9.33
14.67
8.0
16.33
3.0
11.67
-0.67
6.33
5.0
2.33
-2.67
2.0
10.33
16.67
9.67
10.33
19.67
13.67
23.33
8.33
19.33
11.67
13.0
7.33
10.0
13.33
10.0
13.33
15.0
6.67
12.0
20.0
13.67
8.33
14.67
5.67
17.0
19.67
16.0
21.33
19.0
10.33
12.33
15.67
13.0
10.0
9.67
15.67
20.0
6.33
11.33
5.33
17.67
15.0
18.0
9.67
4.67
6.67
3.33
-3.33
10.0
7.67
10.33
6.33
17.67
-1.0
20.33
9.33
14.67
14.33
18.67
5.67
8.67
5.67
5.0
5.33
9.33
6.33
-4.0
-0.67
9.0
23.67
8.67
12.67
6.67
6.0
5.33
8.0
-1.0
6.33
4.0
-3.33
10.33
3.0
4.33
7.67
7.67
-8.67
-2.33
0.33
-1.67
15.33
1.33
6.67
5.0
3.0
0.33
-3.0
-10.67
2.33
4.0
14.33
6.33
2.67
-6.0
9.0
0.0
0.67
12.0
4.0
11.0
21.33
17.33
-0.67
6.33
-4.67
4.0
3.0
19.0
9.67
-0.33
13.67
0.0
14.33
15.67
0.0
18.67
7.67
11.33
16.33
18.33
22.67
13.0
8.33
15.0
17.0
13.0
16.0
8.67
7.0
6.67
-0.67
31.33
14.67
-0.33
6.0
10.33
-0.33
6.33
7.33
7.67
14.67
0.0
3.67
-1.0
6.67
9.33
-2.0
9.67
9.67
13.33
-4.0
9.67
20.0
-0.67
0.0
9.0
7.33
0.33
-10.0
-4.0
5.0
-1.33
8.67
19.67
-2.33
3.0
3.67
3.33
3.67
9.0
-1.33
5.67
1.0
6.67
-2.0
-4.33
-7.0
17.67
10.33
8.67
2.0
5.67
-3.0
-9.33
10.0
5.0
4.67
6.67
6.0
-5.0
6.33
2.33
3.33
-2.0
12.0
-0.67
-5.0
5.67
-2.0
-7.0
-6.0
-8.33
0.67
6.33
0.33
6.33
2.67
5.0
3.33
2.67
5.67
5.0
7.67
-4.67
0.0
6.0
7.33
7.33
8.67
7.33
10.0
13.0
11.33
14.33
7.0
3.67
2.0
-4.33
-4.33
5.67
0.33
2.67
-2.33
3.33
10.0
4.33
-2.0
-0.67
-1.33
6.33
2.67
-1.67
-0.33
1.67
1.33
0.0
5.67
4.67
3.67
-1.67
7.33
-5.67
-11.33
-3.0
0.0
5.67
-1.67
3.33
-1.67
1.67
7.33
9.0
4.33
3.33
-1.33
6.33
0.67
0.0
7.33
3.33
1.67
-4.33
7.33
7.67
-2.67
6.0
-3.0
2.0
3.67
7.33
3.67
3.0
4.67
5.33
2.67
14.0
8.0
-0.33
5.33
3.0
9.67
2.0
-1.0
-2.67
-2.67
5.33
0.0
4.33
-1.0
1.67
6.0
6.33
-2.67
7.0
4.0
-0.67
2.0
6.33
4.0
1.67
-1.33
3.0
6.33
3.33
-3.67
3.33
1.33
0.67
4.0
3.33
3.67
5.67
-0.67
6.67
5.67
3.67
6.67
5.67
2.0
5.33
3.0
11.67
3.33
5.0
-1.0
3.67
-1.67
-0.33
-0.67
-0.67
-2.67
2.67
12.67
-0.67
0.0
-2.0
0.67
3.0
6.0
2.0
4.33
8.33
0.0
3.67
1.67
3.67
2.0
-2.0
-0.33
-3.0
-2.0
3.67
-2.0
1.0