File: EDX Back Ups and Old Files/Data round up/.ipynb_checkpoints/LaB6 Ref-checkpoint.txt
LaB6 Ref
*********
#Bins	Energy [keV]	Avg. Background	No Spatial Information
0	-0.144	0	0.0
2	-0.016	0	6247.0
4	0.113	0	7730.0
6	0.242	0	8523.0
8	0.37	0	8584.0
10	0.499	0	7492.0
12	0.627	0	6354.0
14	0.756	0	4630.0
16	0.884	0	3384.0
18	1.013	0	2155.0
20	1.141	0	1365.0
22	1.27	0	870.0
24	1.398	0	527.0
26	1.527	0	329.0
28	1.655	0	202.0
30	1.783	0	119.0
32	1.912	0	58.0
34	2.04	0	26.0
36	2.169	0	18.0
38	2.297	0	7.0
40	2.425	0	7.0
42	2.554	0	3.0
44	2.682	0	1.0
46	2.811	0	1.0
48	2.939	0	3.0
50	3.067	0	2.0
52	3.196	0	3.0
54	3.324	0	1.0
56	3.452	0	1.0
58	3.58	0	3.0
60	3.709	0	1.0
62	3.837	0	2.0
64	3.965	0	3.0
66	4.093	0	1.0
68	4.222	0	3.0
70	4.35	0	2.0
72	4.478	0	5.0
74	4.606	0	1.0
76	4.734	0	2.0
78	4.863	0	6.0
80	4.991	0	4.0
82	5.119	0	5.0
84	5.247	0	2.0
86	5.375	0	5.0
88	5.503	0	5.0
90	5.631	0	2.0
92	5.76	0	10.0
94	5.888	0	14.0
96	6.016	0	9.0
98	6.144	0	6.0
100	6.272	0	15.0
102	6.4	0	14.0
104	6.528	0	21.0
106	6.656	0	22.0
108	6.784	0	25.0
110	6.912	0	25.0
112	7.04	0	29.0
114	7.168	0	25.0
116	7.296	0	31.0
118	7.424	0	32.0
120	7.552	0	41.0
122	7.68	0	39.0
124	7.808	0	58.0
126	7.936	0	54.0
128	8.064	0	66.0
130	8.192	0	72.0
132	8.32	0	75.0
134	8.447	0	75.0
136	8.575	0	81.0
138	8.703	0	87.0
140	8.831	0	82.0
142	8.959	0	101.0
144	9.087	0	99.0
146	9.215	0	121.0
148	9.343	0	114.0
150	9.47	0	114.0
152	9.598	0	102.0
154	9.726	0	113.0
156	9.854	0	126.0
158	9.982	0	108.0
160	10.109	0	119.0
162	10.237	0	109.0
164	10.365	0	120.0
166	10.493	0	97.0
168	10.62	0	123.0
170	10.748	0	102.0
172	10.876	0	99.0
174	11.004	0	116.0
176	11.131	0	123.0
178	11.259	0	118.0
180	11.387	0	110.0
182	11.515	0	114.0
184	11.642	0	98.0
186	11.77	0	127.0
188	11.898	0	103.0
190	12.025	0	127.0
192	12.153	0	108.0
194	12.281	0	108.0
196	12.408	0	102.0
198	12.536	0	122.0
200	12.663	0	113.0
202	12.791	0	84.0
204	12.919	0	104.0
206	13.046	0	106.0
208	13.174	0	94.0
210	13.301	0	124.0
212	13.429	0	108.0
214	13.557	0	111.0
216	13.684	0	112.0
218	13.812	0	98.0
220	13.939	0	94.0
222	14.067	0	113.0
224	14.194	0	113.0
226	14.322	0	114.0
228	14.449	0	91.0
230	14.577	0	99.0
232	14.704	0	119.0
234	14.832	0	105.0
236	14.959	0	93.0
238	15.087	0	81.0
240	15.214	0	88.0
242	15.342	0	102.0
244	15.469	0	97.0
246	15.597	0	105.0
248	15.724	0	95.0
250	15.852	0	100.0
252	15.979	0	92.0
254	16.107	0	95.0
256	16.234	0	83.0
258	16.361	0	74.0
260	16.489	0	90.0
262	16.616	0	81.0
264	16.744	0	98.0
266	16.871	0	87.0
268	16.998	0	76.0
270	17.126	0	72.0
272	17.253	0	84.0
274	17.38	0	66.0
276	17.508	0	67.0
278	17.635	0	79.0
280	17.763	0	75.0
282	17.89	0	62.0
284	18.017	0	84.0
286	18.145	0	56.0
288	18.272	0	72.0
290	18.399	0	77.0
292	18.527	0	63.0
294	18.654	0	66.0
296	18.781	0	73.0
298	18.908	0	73.0
300	19.036	0	83.0
302	19.163	0	53.0
304	19.29	0	78.0
306	19.418	0	71.0
308	19.545	0	62.0
310	19.672	0	68.0
312	19.799	0	56.0
314	19.927	0	66.0
316	20.054	0	67.0
318	20.181	0	70.0
320	20.308	0	64.0
322	20.436	0	69.0
324	20.563	0	54.0
326	20.69	0	55.0
328	20.817	0	65.0
330	20.944	0	74.0
332	21.072	0	67.0
334	21.199	0	56.0
336	21.326	0	53.0
338	21.453	0	41.0
340	21.58	0	42.0
342	21.708	0	50.0
344	21.835	0	46.0
346	21.962	0	44.0
348	22.089	0	43.0
350	22.216	0	38.0
352	22.343	0	54.0
354	22.471	0	46.0
356	22.598	0	51.0
358	22.725	0	44.0
360	22.852	0	57.0
362	22.979	0	43.0
364	23.106	0	39.0
366	23.233	0	40.0
368	23.36	0	41.0
370	23.488	0	46.0
372	23.615	0	41.0
374	23.742	0	52.0
376	23.869	0	37.0
378	23.996	0	34.0
380	24.123	0	49.0
382	24.25	0	39.0
384	24.377	0	44.0
386	24.504	0	44.0
388	24.631	0	42.0
390	24.758	0	39.0
392	24.886	0	37.0
394	25.013	0	29.0
396	25.14	0	32.0
398	25.267	0	35.0
400	25.394	0	32.0
402	25.521	0	46.0
404	25.648	0	26.0
406	25.775	0	39.0
408	25.902	0	42.0
410	26.029	0	22.0
412	26.156	0	30.0
414	26.283	0	34.0
416	26.41	0	39.0
418	26.537	0	17.0
420	26.664	0	30.0
422	26.791	0	30.0
424	26.918	0	39.0
426	27.045	0	34.0
428	27.172	0	33.0
430	27.299	0	37.0
432	27.426	0	29.0
434	27.553	0	32.0
436	27.68	0	24.0
438	27.807	0	18.0
440	27.934	0	40.0
442	28.061	0	31.0
444	28.188	0	31.0
446	28.315	0	26.0
448	28.442	0	27.0
450	28.569	0	22.0
452	28.696	0	26.0
454	28.823	0	21.0
456	28.95	0	21.0
458	29.077	0	34.0
460	29.204	0	31.0
462	29.331	0	24.0
464	29.458	0	29.0
466	29.585	0	27.0
468	29.712	0	29.0
470	29.839	0	32.0
472	29.966	0	40.0
474	30.093	0	35.0
476	30.22	0	36.0
478	30.347	0	30.0
480	30.474	0	39.0
482	30.6	0	21.0
484	30.727	0	30.0
486	30.854	0	28.0
488	30.981	0	29.0
490	31.108	0	22.0
492	31.235	0	37.0
494	31.362	0	30.0
496	31.489	0	20.0
498	31.616	0	29.0
500	31.743	0	29.0
502	31.87	0	26.0
504	31.997	0	32.0
506	32.124	0	40.0
508	32.251	0	36.0
510	32.377	0	32.0
512	32.504	0	37.0
514	32.631	0	62.0
516	32.758	0	82.0
518	32.885	0	115.0
520	33.012	0	159.0
522	33.139	0	175.0
524	33.266	0	204.0
526	33.393	0	237.0
528	33.52	0	186.0
530	33.647	0	135.0
532	33.773	0	94.0
534	33.9	0	48.0
536	34.027	0	50.0
538	34.154	0	37.0
540	34.281	0	28.0
542	34.408	0	31.0
544	34.535	0	31.0
546	34.662	0	21.0
548	34.789	0	31.0
550	34.916	0	33.0
552	35.043	0	39.0
554	35.169	0	33.0
556	35.296	0	26.0
558	35.423	0	33.0
560	35.55	0	34.0
562	35.677	0	30.0
564	35.804	0	40.0
566	35.931	0	33.0
568	36.058	0	27.0
570	36.185	0	37.0
572	36.311	0	34.0
574	36.438	0	38.0
576	36.565	0	37.0
578	36.692	0	50.0
580	36.819	0	35.0
582	36.946	0	37.0
584	37.073	0	49.0
586	37.2	0	52.0
588	37.327	0	49.0
590	37.454	0	67.0
592	37.58	0	79.0
594	37.707	0	115.0
596	37.834	0	80.0
598	37.961	0	85.0
600	38.088	0	60.0
602	38.215	0	64.0
604	38.342	0	60.0
606	38.469	0	49.0
608	38.596	0	65.0
610	38.723	0	60.0
612	38.849	0	65.0
614	38.976	0	67.0
616	39.103	0	57.0
618	39.23	0	57.0
620	39.357	0	64.0
622	39.484	0	81.0
624	39.611	0	66.0
626	39.738	0	68.0
628	39.865	0	76.0
630	39.992	0	60.0
632	40.119	0	71.0
634	40.245	0	72.0
636	40.372	0	71.0
638	40.499	0	71.0
640	40.626	0	63.0
642	40.753	0	72.0
644	40.88	0	86.0
646	41.007	0	74.0
648	41.134	0	75.0
650	41.261	0	78.0
652	41.388	0	89.0
654	41.515	0	83.0
656	41.642	0	81.0
658	41.769	0	86.0
660	41.895	0	89.0
662	42.022	0	100.0
664	42.149	0	78.0
666	42.276	0	82.0
668	42.403	0	91.0
670	42.53	0	94.0
672	42.657	0	99.0
674	42.784	0	98.0
676	42.911	0	78.0
678	43.038	0	109.0
680	43.165	0	117.0
682	43.292	0	131.0
684	43.419	0	105.0
686	43.546	0	126.0
688	43.673	0	109.0
690	43.8	0	124.0
692	43.927	0	109.0
694	44.054	0	127.0
696	44.181	0	125.0
698	44.308	0	148.0
700	44.435	0	136.0
702	44.562	0	159.0
704	44.689	0	167.0
706	44.815	0	132.0
708	44.942	0	168.0
710	45.069	0	155.0
712	45.196	0	153.0
714	45.323	0	172.0
716	45.45	0	188.0
718	45.577	0	147.0
720	45.704	0	181.0
722	45.831	0	200.0
724	45.958	0	192.0
726	46.085	0	199.0
728	46.212	0	205.0
730	46.34	0	198.0
732	46.467	0	245.0
734	46.594	0	190.0
736	46.721	0	196.0
738	46.848	0	205.0
740	46.975	0	216.0
742	47.102	0	226.0
744	47.229	0	213.0
746	47.356	0	206.0
748	47.483	0	229.0
750	47.61	0	204.0
752	47.737	0	243.0
754	47.864	0	224.0
756	47.991	0	255.0
758	48.118	0	232.0
760	48.245	0	244.0
762	48.372	0	216.0
764	48.499	0	213.0
766	48.626	0	216.0
768	48.754	0	246.0
770	48.881	0	248.0
772	49.008	0	235.0
774	49.135	0	205.0
776	49.262	0	239.0
778	49.389	0	247.0
780	49.516	0	278.0
782	49.643	0	280.0
784	49.77	0	237.0
786	49.897	0	266.0
788	50.025	0	269.0
790	50.152	0	253.0
792	50.279	0	277.0
794	50.406	0	278.0
796	50.533	0	277.0
798	50.66	0	282.0
800	50.787	0	267.0
802	50.915	0	294.0
804	51.042	0	303.0
806	51.169	0	280.0
808	51.296	0	283.0
810	51.423	0	307.0
812	51.551	0	311.0
814	51.678	0	298.0
816	51.805	0	282.0
818	51.932	0	312.0
820	52.059	0	323.0
822	52.187	0	326.0
824	52.314	0	320.0
826	52.441	0	324.0
828	52.568	0	304.0
830	52.695	0	318.0
832	52.823	0	317.0
834	52.95	0	302.0
836	53.077	0	292.0
838	53.204	0	309.0
840	53.332	0	329.0
842	53.459	0	324.0
844	53.586	0	308.0
846	53.713	0	304.0
848	53.841	0	304.0
850	53.968	0	347.0
852	54.095	0	364.0
854	54.223	0	316.0
856	54.35	0	369.0
858	54.477	0	313.0
860	54.604	0	329.0
862	54.732	0	358.0
864	54.859	0	329.0
866	54.986	0	304.0
868	55.114	0	355.0
870	55.241	0	342.0
872	55.368	0	341.0
874	55.496	0	333.0
876	55.623	0	322.0
878	55.751	0	305.0
880	55.878	0	319.0
882	56.005	0	341.0
884	56.133	0	309.0
886	56.26	0	335.0
888	56.387	0	351.0
890	56.515	0	322.0
892	56.642	0	334.0
894	56.77	0	339.0
896	56.897	0	340.0
898	57.025	0	338.0
900	57.152	0	353.0
902	57.279	0	345.0
904	57.407	0	336.0
906	57.534	0	337.0
908	57.662	0	343.0
910	57.789	0	364.0
912	57.917	0	410.0
914	58.044	0	350.0
916	58.172	0	335.0
918	58.299	0	339.0
920	58.427	0	358.0
922	58.554	0	366.0
924	58.682	0	335.0
926	58.809	0	365.0
928	58.937	0	378.0
930	59.064	0	350.0
932	59.192	0	387.0
934	59.32	0	404.0
936	59.447	0	403.0
938	59.575	0	379.0
940	59.702	0	374.0
942	59.83	0	394.0
944	59.957	0	356.0
946	60.085	0	352.0
948	60.213	0	352.0
950	60.34	0	361.0
952	60.468	0	359.0
954	60.596	0	337.0
956	60.723	0	344.0
958	60.851	0	358.0
960	60.978	0	314.0
962	61.106	0	357.0
964	61.234	0	377.0
966	61.361	0	357.0
968	61.489	0	322.0
970	61.617	0	343.0
972	61.745	0	375.0
974	61.872	0	396.0
976	62.0	0	408.0
978	62.128	0	357.0
980	62.255	0	365.0
982	62.383	0	356.0
984	62.511	0	360.0
986	62.639	0	384.0
988	62.767	0	370.0
990	62.894	0	335.0
992	63.022	0	400.0
994	63.15	0	380.0
996	63.278	0	338.0
998	63.405	0	361.0
1000	63.533	0	370.0
1002	63.661	0	359.0
1004	63.789	0	348.0
1006	63.917	0	360.0
1008	64.045	0	326.0
1010	64.173	0	341.0
1012	64.3	0	332.0
1014	64.428	0	383.0
1016	64.556	0	368.0
1018	64.684	0	355.0
1020	64.812	0	360.0
1022	64.94	0	326.0
1024	65.068	0	322.0
1026	65.196	0	362.0
1028	65.324	0	376.0
1030	65.452	0	323.0
1032	65.58	0	364.0
1034	65.708	0	347.0
1036	65.836	0	386.0
1038	65.964	0	324.0
1040	66.092	0	350.0
1042	66.22	0	335.0
1044	66.348	0	375.0
1046	66.476	0	372.0
1048	66.604	0	340.0
1050	66.732	0	312.0
1052	66.86	0	369.0
1054	66.988	0	349.0
1056	67.116	0	348.0
1058	67.244	0	377.0
1060	67.372	0	348.0
1062	67.5	0	363.0
1064	67.629	0	359.0
1066	67.757	0	354.0
1068	67.885	0	341.0
1070	68.013	0	339.0
1072	68.141	0	351.0
1074	68.269	0	318.0
1076	68.397	0	333.0
1078	68.526	0	357.0
1080	68.654	0	316.0
1082	68.782	0	360.0
1084	68.91	0	331.0
1086	69.039	0	315.0
1088	69.167	0	345.0
1090	69.295	0	340.0
1092	69.423	0	321.0
1094	69.552	0	314.0
1096	69.68	0	341.0
1098	69.808	0	307.0
1100	69.937	0	322.0
1102	70.065	0	317.0
1104	70.193	0	311.0
1106	70.322	0	340.0
1108	70.45	0	334.0
1110	70.578	0	351.0
1112	70.707	0	328.0
1114	70.835	0	361.0
1116	70.963	0	364.0
1118	71.092	0	349.0
1120	71.22	0	356.0
1122	71.349	0	377.0
1124	71.477	0	387.0
1126	71.606	0	418.0
1128	71.734	0	455.0
1130	71.863	0	375.0
1132	71.991	0	368.0
1134	72.12	0	363.0
1136	72.248	0	329.0
1138	72.377	0	344.0
1140	72.505	0	322.0
1142	72.634	0	335.0
1144	72.762	0	315.0
1146	72.891	0	301.0
1148	73.019	0	320.0
1150	73.148	0	333.0
1152	73.277	0	325.0
1154	73.405	0	318.0
1156	73.534	0	283.0
1158	73.662	0	279.0
1160	73.791	0	308.0
1162	73.92	0	294.0
1164	74.048	0	266.0
1166	74.177	0	285.0
1168	74.306	0	290.0
1170	74.435	0	277.0
1172	74.563	0	288.0
1174	74.692	0	273.0
1176	74.821	0	333.0
1178	74.95	0	302.0
1180	75.078	0	308.0
1182	75.207	0	339.0
1184	75.336	0	293.0
1186	75.465	0	293.0
1188	75.594	0	275.0
1190	75.722	0	262.0
1192	75.851	0	313.0
1194	75.98	0	233.0
1196	76.109	0	249.0
1198	76.238	0	276.0
1200	76.367	0	262.0
1202	76.496	0	236.0
1204	76.625	0	247.0
1206	76.754	0	222.0
1208	76.883	0	248.0
1210	77.011	0	227.0
1212	77.14	0	234.0
1214	77.269	0	213.0
1216	77.398	0	219.0
1218	77.528	0	246.0
1220	77.657	0	229.0
1222	77.786	0	230.0
1224	77.915	0	233.0
1226	78.044	0	241.0
1228	78.173	0	226.0
1230	78.302	0	243.0
1232	78.431	0	234.0
1234	78.56	0	207.0
1236	78.689	0	200.0
1238	78.818	0	222.0
1240	78.948	0	220.0
1242	79.077	0	205.0
1244	79.206	0	197.0
1246	79.335	0	213.0
1248	79.464	0	204.0
1250	79.594	0	187.0
1252	79.723	0	231.0
1254	79.852	0	205.0
1256	79.981	0	223.0
1258	80.111	0	197.0
1260	80.24	0	214.0
1262	80.369	0	209.0
1264	80.499	0	217.0
1266	80.628	0	202.0
1268	80.757	0	197.0
1270	80.887	0	190.0
1272	81.016	0	196.0
1274	81.146	0	191.0
1276	81.275	0	197.0
1278	81.404	0	222.0
1280	81.534	0	180.0
1282	81.663	0	185.0
1284	81.793	0	165.0
1286	81.922	0	214.0
1288	82.052	0	181.0
1290	82.181	0	186.0
1292	82.311	0	184.0
1294	82.441	0	194.0
1296	82.57	0	190.0
1298	82.7	0	169.0
1300	82.829	0	185.0
1302	82.959	0	166.0
1304	83.089	0	164.0
1306	83.218	0	165.0
1308	83.348	0	178.0
1310	83.477	0	186.0
1312	83.607	0	186.0
1314	83.737	0	172.0
1316	83.867	0	168.0
1318	83.996	0	163.0
1320	84.126	0	163.0
1322	84.256	0	182.0
1324	84.386	0	177.0
1326	84.515	0	157.0
1328	84.645	0	186.0
1330	84.775	0	175.0
1332	84.905	0	187.0
1334	85.035	0	168.0
1336	85.165	0	199.0
1338	85.295	0	200.0
1340	85.424	0	173.0
1342	85.554	0	172.0
1344	85.684	0	186.0
1346	85.814	0	165.0
1348	85.944	0	155.0
1350	86.074	0	158.0
1352	86.204	0	149.0
1354	86.334	0	168.0
1356	86.464	0	139.0
1358	86.594	0	139.0
1360	86.724	0	151.0
1362	86.854	0	136.0
1364	86.985	0	129.0
1366	87.115	0	165.0
1368	87.245	0	126.0
1370	87.375	0	137.0
1372	87.505	0	133.0
1374	87.635	0	130.0
1376	87.765	0	142.0
1378	87.896	0	148.0
1380	88.026	0	144.0
1382	88.156	0	109.0
1384	88.286	0	132.0
1386	88.417	0	144.0
1388	88.547	0	121.0
1390	88.677	0	120.0
1392	88.808	0	112.0
1394	88.938	0	111.0
1396	89.068	0	124.0
1398	89.199	0	121.0
1400	89.329	0	102.0
1402	89.46	0	106.0
1404	89.59	0	106.0
1406	89.72	0	81.0
1408	89.851	0	102.0
1410	89.981	0	94.0
1412	90.112	0	112.0
1414	90.242	0	128.0
1416	90.373	0	110.0
1418	90.503	0	86.0
1420	90.634	0	92.0
1422	90.765	0	89.0
1424	90.895	0	104.0
1426	91.026	0	94.0
1428	91.157	0	81.0
1430	91.287	0	104.0
1432	91.418	0	81.0
1434	91.549	0	86.0
1436	91.679	0	107.0
1438	91.81	0	82.0
1440	91.941	0	100.0
1442	92.071	0	85.0
1444	92.202	0	81.0
1446	92.333	0	100.0
1448	92.464	0	79.0
1450	92.595	0	88.0
1452	92.726	0	71.0
1454	92.856	0	93.0
1456	92.987	0	86.0
1458	93.118	0	90.0
1460	93.249	0	80.0
1462	93.38	0	99.0
1464	93.511	0	72.0
1466	93.642	0	82.0
1468	93.773	0	89.0
1470	93.904	0	72.0
1472	94.035	0	93.0
1474	94.166	0	82.0
1476	94.297	0	89.0
1478	94.428	0	95.0
1480	94.559	0	84.0
1482	94.691	0	66.0
1484	94.822	0	82.0
1486	94.953	0	71.0
1488	95.084	0	83.0
1490	95.215	0	66.0
1492	95.346	0	79.0
1494	95.478	0	63.0
1496	95.609	0	76.0
1498	95.74	0	67.0
1500	95.872	0	71.0
1502	96.003	0	67.0
1504	96.134	0	68.0
1506	96.266	0	72.0
1508	96.397	0	50.0
1510	96.528	0	67.0
1512	96.66	0	65.0
1514	96.791	0	69.0
1516	96.923	0	66.0
1518	97.054	0	82.0
1520	97.186	0	76.0
1522	97.317	0	63.0
1524	97.449	0	65.0
1526	97.58	0	63.0
1528	97.712	0	72.0
1530	97.843	0	55.0
1532	97.975	0	55.0
1534	98.107	0	57.0
1536	98.238	0	60.0
1538	98.37	0	63.0
1540	98.502	0	68.0
1542	98.633	0	58.0
1544	98.765	0	70.0
1546	98.897	0	65.0
1548	99.029	0	52.0
1550	99.16	0	55.0
1552	99.292	0	47.0
1554	99.424	0	59.0
1556	99.556	0	73.0
1558	99.688	0	60.0
1560	99.82	0	74.0
1562	99.951	0	54.0
1564	100.083	0	73.0
1566	100.215	0	80.0
1568	100.347	0	67.0
1570	100.479	0	90.0
1572	100.611	0	84.0
1574	100.743	0	101.0
1576	100.875	0	68.0
1578	101.007	0	82.0
1580	101.14	0	68.0
1582	101.272	0	69.0
1584	101.404	0	70.0
1586	101.536	0	67.0
1588	101.668	0	56.0
1590	101.8	0	84.0
1592	101.933	0	72.0
1594	102.065	0	46.0
1596	102.197	0	77.0
1598	102.329	0	59.0
1600	102.462	0	51.0
1602	102.594	0	44.0
1604	102.726	0	53.0
1606	102.859	0	48.0
1608	102.991	0	42.0
1610	103.123	0	52.0
1612	103.256	0	47.0
1614	103.388	0	39.0
1616	103.521	0	44.0
1618	103.653	0	41.0
1620	103.786	0	45.0
1622	103.918	0	58.0
1624	104.051	0	47.0
1626	104.183	0	41.0
1628	104.316	0	43.0
1630	104.449	0	41.0
1632	104.581	0	48.0
1634	104.714	0	41.0
1636	104.847	0	24.0
1638	104.979	0	40.0
1640	105.112	0	41.0
1642	105.245	0	43.0
1644	105.378	0	35.0
1646	105.51	0	34.0
1648	105.643	0	41.0
1650	105.776	0	35.0
1652	105.909	0	37.0
1654	106.042	0	42.0
1656	106.175	0	30.0
1658	106.308	0	27.0
1660	106.441	0	29.0
1662	106.574	0	28.0
1664	106.707	0	33.0
1666	106.84	0	34.0
1668	106.973	0	42.0
1670	107.106	0	33.0
1672	107.239	0	36.0
1674	107.372	0	32.0
1676	107.505	0	36.0
1678	107.638	0	30.0
1680	107.771	0	41.0
1682	107.905	0	32.0
1684	108.038	0	31.0
1686	108.171	0	37.0
1688	108.304	0	36.0
1690	108.438	0	26.0
1692	108.571	0	37.0
1694	108.704	0	24.0
1696	108.838	0	21.0
1698	108.971	0	27.0
1700	109.105	0	29.0
1702	109.238	0	35.0
1704	109.371	0	24.0
1706	109.505	0	25.0
1708	109.638	0	19.0
1710	109.772	0	36.0
1712	109.905	0	29.0
1714	110.039	0	31.0
1716	110.173	0	31.0
1718	110.306	0	27.0
1720	110.44	0	29.0
1722	110.574	0	33.0
1724	110.707	0	30.0
1726	110.841	0	29.0
1728	110.975	0	27.0
1730	111.109	0	25.0
1732	111.242	0	32.0
1734	111.376	0	19.0
1736	111.51	0	28.0
1738	111.644	0	27.0
1740	111.778	0	31.0
1742	111.912	0	23.0
1744	112.046	0	23.0
1746	112.179	0	23.0
1748	112.313	0	24.0
1750	112.447	0	25.0
1752	112.581	0	19.0
1754	112.716	0	28.0
1756	112.85	0	30.0
1758	112.984	0	22.0
1760	113.118	0	31.0
1762	113.252	0	20.0
1764	113.386	0	25.0
1766	113.52	0	16.0
1768	113.655	0	19.0
1770	113.789	0	22.0
1772	113.923	0	23.0
1774	114.057	0	32.0
1776	114.192	0	27.0
1778	114.326	0	24.0
1780	114.46	0	32.0
1782	114.595	0	25.0
1784	114.729	0	29.0
1786	114.864	0	23.0
1788	114.998	0	31.0
1790	115.133	0	20.0
1792	115.267	0	19.0
1794	115.402	0	28.0
1796	115.536	0	23.0
1798	115.671	0	23.0
1800	115.805	0	22.0
1802	115.94	0	13.0
1804	116.075	0	20.0
1806	116.209	0	28.0
1808	116.344	0	18.0
1810	116.479	0	21.0
1812	116.614	0	14.0
1814	116.749	0	21.0
1816	116.883	0	20.0
1818	117.018	0	14.0
1820	117.153	0	27.0
1822	117.288	0	20.0
1824	117.423	0	30.0
1826	117.558	0	18.0
1828	117.693	0	22.0
1830	117.828	0	25.0
1832	117.963	0	25.0
1834	118.098	0	30.0
1836	118.233	0	24.0
1838	118.368	0	17.0
1840	118.503	0	32.0
1842	118.638	0	21.0
1844	118.774	0	16.0
1846	118.909	0	20.0
1848	119.044	0	27.0
1850	119.179	0	17.0
1852	119.315	0	14.0
1854	119.45	0	17.0
1856	119.585	0	28.0
1858	119.721	0	22.0
1860	119.856	0	19.0
1862	119.991	0	20.0
1864	120.127	0	19.0
1866	120.262	0	18.0
1868	120.398	0	16.0
1870	120.533	0	17.0
1872	120.669	0	21.0
1874	120.805	0	22.0
1876	120.94	0	18.0
1878	121.076	0	15.0
1880	121.211	0	29.0
1882	121.347	0	16.0
1884	121.483	0	16.0
1886	121.619	0	22.0
1888	121.754	0	21.0
1890	121.89	0	25.0
1892	122.026	0	28.0
1894	122.162	0	20.0
1896	122.298	0	19.0
1898	122.434	0	13.0
1900	122.57	0	21.0
1902	122.706	0	23.0
1904	122.841	0	28.0
1906	122.978	0	14.0
1908	123.114	0	9.0
1910	123.25	0	13.0
1912	123.386	0	24.0
1914	123.522	0	15.0
1916	123.658	0	22.0
1918	123.794	0	23.0
1920	123.93	0	13.0
1922	124.067	0	16.0
1924	124.203	0	21.0
1926	124.339	0	15.0
1928	124.476	0	20.0
1930	124.612	0	25.0
1932	124.748	0	9.0
1934	124.885	0	22.0
1936	125.021	0	17.0
1938	125.158	0	24.0
1940	125.294	0	17.0
1942	125.431	0	21.0
1944	125.567	0	21.0
1946	125.704	0	16.0
1948	125.84	0	20.0
1950	125.977	0	16.0
1952	126.114	0	17.0
1954	126.25	0	20.0
1956	126.387	0	23.0
1958	126.524	0	16.0
1960	126.66	0	25.0
1962	126.797	0	30.0
1964	126.934	0	24.0
1966	127.071	0	24.0
1968	127.208	0	8.0
1970	127.345	0	13.0
1972	127.482	0	12.0
1974	127.619	0	21.0
1976	127.756	0	23.0
1978	127.893	0	15.0
1980	128.03	0	12.0
1982	128.167	0	15.0
1984	128.304	0	22.0
1986	128.441	0	15.0
1988	128.578	0	14.0
1990	128.715	0	14.0
1992	128.853	0	12.0
1994	128.99	0	10.0
1996	129.127	0	11.0
1998	129.265	0	16.0
2000	129.402	0	21.0
2002	129.539	0	10.0
2004	129.677	0	18.0
2006	129.814	0	9.0
2008	129.952	0	14.0
2010	130.089	0	22.0
2012	130.227	0	12.0
2014	130.364	0	17.0
2016	130.502	0	16.0
2018	130.639	0	10.0
2020	130.777	0	13.0
2022	130.915	0	14.0
2024	131.052	0	12.0
2026	131.19	0	17.0
2028	131.328	0	14.0
2030	131.466	0	14.0
2032	131.604	0	17.0
2034	131.741	0	16.0
2036	131.879	0	15.0
2038	132.017	0	12.0
2040	132.155	0	12.0
2042	132.293	0	12.0
2044	132.431	0	11.0
2046	132.569	0	14.0
2047	132.638	0	8.0