File: EDX Back Ups and Old Files/EDX Processed Data/High pH SF 25C 9d.txt
Name: High pH SF 25C 9d
Number of Scans: 29
Positions: [-13.0, -12.75, -12.5, -12.25, -12.0, -11.75, -11.5, -11.25, -11.0, -10.75, -10.5, -10.25, -10.0, -9.75, -9.5, -9.25, -9.0, -8.75, -8.5, -8.25, -8.0, -7.75, -7.5, -7.25, -7.0, -6.75, -6.5, -6.25, -6.0]
Points per Scan: 2048
Sample Edge: 3
Scans Off Sample: [0, 1, 2]
Conversion Features: [(275, 17444.3), (309, 19608.3), (913, 57981.7), (934, 59318.24), (1058, 67244.3)]
Degree of Fit: 3
Fit Coeffecients: [ 8.59183e-07 -0.001482  64.3003 -144.207]
pH: High
Steel Fiber: True
Aging Temp.: 25
Aging Atm.: 100% CO2
Aging Humidity: None
Aging Time: 9

*********
#Bins	Energy [keV]	Avg. Background	-12.25	-12.0	-11.75	-11.5	-11.25	-11.0	-10.75	-10.5	-10.25	-10.0	-9.75	-9.5	-9.25	-9.0	-8.75	-8.5	-8.25	-8.0	-7.75	-7.5	-7.25	-7.0	-6.75	-6.5	-6.25	-6.0
6	0.242	1860.33	-8.33	-61.33	-68.33	-35.33	21.67	17.67	-35.33	-94.33	-68.33	-107.33	4.67	13.67	14.67	-69.33	21.67	3.67	74.67	78.67	57.67	-33.33	-60.33	33.67	-22.33	111.67	-8.33	26.67
13	0.691	1236.33	77.67	-1.33	-5.33	-17.33	-21.33	8.67	-38.33	-104.33	-51.33	-2.33	40.67	22.67	20.67	-35.33	-67.33	56.67	43.67	67.67	51.67	21.67	-1.33	35.67	23.67	-26.33	6.67	0.67
20	1.141	322.0	16.0	-26.0	-34.0	-1.0	-39.0	0.0	-24.0	-30.0	-19.0	-28.0	-17.0	33.0	-24.0	-23.0	-21.0	-8.0	-7.0	-12.0	24.0	-50.0	-40.0	-35.0	26.0	9.0	9.0	8.0
27	1.591	53.0	-13.0	-3.0	13.0	10.0	-12.0	13.0	1.0	1.0	-9.0	-6.0	6.0	-6.0	-12.0	0.0	6.0	3.0	4.0	7.0	4.0	-1.0	-13.0	1.0	-1.0	13.0	1.0	5.0
34	2.04	7.67	-4.67	-0.67	1.33	0.33	-1.67	-0.67	-0.67	-2.67	-3.67	2.33	-1.67	-1.67	0.33	1.33	-3.67	-5.67	2.33	0.33	2.33	-0.67	-6.67	2.33	2.33	1.33	0.33	-1.67
41	2.49	0.67	0.33	1.33	0.33	-0.67	0.33	0.33	0.33	0.33	-0.67	-0.67	0.33	-0.67	0.33	0.33	-0.67	0.33	-0.67	-0.67	-0.67	0.33	0.33	0.33	1.33	-0.67	1.33	-0.67
48	2.939	0.0	0.0	2.0	0.0	1.0	1.0	0.0	0.0	1.0	0.0	0.0	0.0	0.0	0.0	3.0	0.0	0.0	0.0	0.0	0.0	2.0	0.0	2.0	0.0	0.0	0.0	0.0
55	3.388	0.0	0.0	0.0	1.0	0.0	0.0	0.0	0.0	1.0	0.0	1.0	0.0	2.0	0.0	1.0	0.0	1.0	0.0	0.0	0.0	1.0	0.0	0.0	0.0	0.0	0.0	2.0
62	3.837	0.33	-0.33	-0.33	0.67	-0.33	0.67	-0.33	-0.33	-0.33	-0.33	-0.33	-0.33	-0.33	0.67	-0.33	-0.33	0.67	-0.33	0.67	-0.33	0.67	-0.33	0.67	-0.33	-0.33	0.67	-0.33
69	4.286	0.0	1.0	0.0	0.0	0.0	0.0	0.0	1.0	0.0	0.0	0.0	0.0	0.0	2.0	0.0	0.0	2.0	0.0	1.0	0.0	1.0	0.0	0.0	0.0	0.0	0.0	0.0
76	4.734	0.33	-0.33	-0.33	-0.33	0.67	-0.33	-0.33	1.67	0.67	-0.33	-0.33	-0.33	-0.33	-0.33	-0.33	-0.33	-0.33	-0.33	-0.33	-0.33	-0.33	-0.33	-0.33	0.67	-0.33	0.67	0.67
83	5.183	0.33	-0.33	0.67	0.67	-0.33	-0.33	-0.33	0.67	-0.33	-0.33	0.67	-0.33	0.67	1.67	0.67	0.67	-0.33	-0.33	0.67	-0.33	-0.33	-0.33	-0.33	0.67	2.67	-0.33	0.67
90	5.631	0.67	-0.67	-0.67	-0.67	-0.67	-0.67	0.33	0.33	-0.67	0.33	0.33	1.33	-0.67	0.33	-0.67	-0.67	-0.67	0.33	1.33	-0.67	-0.67	-0.67	-0.67	0.33	1.33	0.33	-0.67
97	6.08	1.0	1.0	-1.0	-1.0	-1.0	-1.0	-1.0	0.0	-1.0	-1.0	-1.0	0.0	-1.0	1.0	1.0	-1.0	0.0	-1.0	0.0	1.0	0.0	-1.0	-1.0	0.0	-1.0	-1.0	-1.0
104	6.528	1.0	-1.0	0.0	-1.0	1.0	1.0	3.0	0.0	0.0	3.0	1.0	2.0	2.0	1.0	1.0	1.0	1.0	2.0	1.0	1.0	0.0	-1.0	0.0	-1.0	0.0	0.0	0.0
111	6.976	1.67	3.33	3.33	-0.67	0.33	1.33	-0.67	3.33	5.33	1.33	0.33	1.33	0.33	2.33	0.33	1.33	5.33	-0.67	-0.67	0.33	-1.67	-0.67	0.33	1.33	5.33	3.33	0.33
118	7.424	3.33	1.67	-1.33	-2.33	-1.33	2.67	2.67	-1.33	0.67	-1.33	-1.33	-0.33	-2.33	-2.33	0.67	1.67	-2.33	-2.33	-1.33	-0.33	1.67	-0.33	-2.33	1.67	2.67	1.67	-1.33
125	7.872	4.0	0.0	-2.0	0.0	3.0	1.0	-1.0	2.0	5.0	6.0	0.0	0.0	-2.0	-2.0	1.0	-1.0	0.0	0.0	-1.0	2.0	2.0	-2.0	0.0	1.0	1.0	0.0	1.0
132	8.32	5.33	-0.33	-2.33	0.67	6.67	-0.33	-0.33	-0.33	1.67	6.67	-2.33	0.67	1.67	0.67	1.67	2.67	7.67	3.67	0.67	-2.33	-0.33	-0.33	4.67	-1.33	3.67	4.67	4.67
139	8.767	7.0	-2.0	1.0	1.0	3.0	-2.0	1.0	2.0	2.0	7.0	-3.0	-3.0	1.0	-2.0	0.0	-2.0	6.0	0.0	-1.0	6.0	1.0	5.0	0.0	2.0	-2.0	-2.0	-1.0
146	9.215	7.0	-4.0	6.0	0.0	4.0	5.0	3.0	1.0	9.0	-3.0	4.0	-1.0	2.0	4.0	5.0	0.0	2.0	6.0	6.0	3.0	8.0	9.0	3.0	1.0	4.0	3.0	7.0
153	9.662	9.67	-3.67	4.33	-1.67	4.33	-0.67	-2.67	2.33	-1.67	1.33	3.33	5.33	-1.67	7.33	-3.67	3.33	-2.67	-5.67	3.33	-1.67	-7.67	-1.67	6.33	0.33	3.33	1.33	0.33
160	10.109	8.67	3.33	1.33	6.33	-1.67	0.33	3.33	0.33	4.33	-1.67	5.33	-4.67	2.33	6.33	6.33	8.33	5.33	7.33	2.33	-1.67	-2.67	2.33	4.33	7.33	5.33	2.33	11.33
167	10.557	6.67	1.33	-0.67	5.33	5.33	3.33	10.33	1.33	7.33	3.33	4.33	5.33	3.33	3.33	11.33	3.33	6.33	2.33	6.33	4.33	4.33	8.33	3.33	4.33	6.33	6.33	7.33
174	11.004	10.0	6.0	1.0	6.0	1.0	0.0	1.0	5.0	-4.0	-2.0	3.0	5.0	5.0	-2.0	2.0	4.0	4.0	5.0	-2.0	4.0	8.0	-4.0	-1.0	0.0	2.0	-1.0	5.0
181	11.451	11.33	6.67	-0.33	0.67	3.67	-2.33	1.67	-3.33	-4.33	-1.33	-4.33	2.67	1.67	1.67	2.67	-1.33	1.67	4.67	2.67	0.67	6.67	5.67	0.67	-4.33	-2.33	0.67	3.67
188	11.898	9.33	1.67	2.67	-4.33	0.67	4.67	1.67	4.67	2.67	-1.33	-0.33	8.67	3.67	2.67	4.67	-0.33	-0.33	2.67	2.67	0.67	2.67	0.67	3.67	1.67	2.67	5.67	5.67
195	12.344	11.67	7.33	-2.67	-0.67	-1.67	1.33	-5.67	5.33	-0.67	-3.67	0.33	-2.67	2.33	0.33	-0.67	-5.67	-2.67	5.33	-1.67	5.33	-5.67	0.33	0.33	5.33	3.33	-1.67	3.33
202	12.791	10.67	4.33	2.33	0.33	-2.67	4.33	2.33	4.33	1.33	-1.67	1.33	2.33	1.33	-1.67	3.33	0.33	1.33	0.33	-3.67	3.33	-0.67	0.33	0.33	2.33	5.33	2.33	5.33
209	13.238	7.33	1.67	-0.33	0.67	-2.33	6.67	5.67	3.67	1.67	0.67	1.67	5.67	6.67	8.67	10.67	4.67	3.67	2.67	0.67	5.67	4.67	2.67	6.67	2.67	8.67	3.67	5.67
216	13.684	12.67	-1.67	-1.67	-1.67	-3.67	-2.67	2.33	-0.67	1.33	-7.67	2.33	-2.67	-0.67	0.33	-3.67	4.33	0.33	0.33	-1.67	1.33	-1.67	-2.67	0.33	-1.67	-3.67	1.33	4.33
223	14.131	9.67	2.33	2.33	-0.67	9.33	-1.67	0.33	-1.67	3.33	-4.67	1.33	3.33	-3.67	-1.67	5.33	1.33	3.33	6.33	0.33	-1.67	4.33	3.33	-2.67	3.33	4.33	7.33	-2.67
230	14.577	5.33	6.67	4.67	10.67	-0.33	1.67	9.67	9.67	6.67	5.67	8.67	7.67	6.67	10.67	7.67	2.67	7.67	3.67	1.67	2.67	4.67	9.67	6.67	8.67	8.67	9.67	9.67
237	15.023	9.0	-1.0	-2.0	4.0	3.0	2.0	3.0	6.0	1.0	1.0	4.0	4.0	4.0	-3.0	4.0	-1.0	5.0	2.0	1.0	8.0	5.0	5.0	3.0	3.0	1.0	-1.0	2.0
244	15.469	8.0	3.0	-1.0	2.0	9.0	0.0	-1.0	1.0	4.0	-5.0	9.0	0.0	1.0	2.0	4.0	6.0	6.0	4.0	2.0	9.0	-1.0	6.0	3.0	3.0	7.0	5.0	6.0
251	15.915	11.0	-3.0	3.0	0.0	0.0	-4.0	3.0	-2.0	2.0	1.0	3.0	4.0	1.0	3.0	-1.0	-1.0	1.0	3.0	-1.0	-3.0	-2.0	2.0	-2.0	-4.0	1.0	3.0	5.0
258	16.361	9.67	2.33	-3.67	-0.67	-2.67	3.33	-2.67	8.33	8.33	1.33	5.33	2.33	2.33	4.33	6.33	5.33	-3.67	-3.67	0.33	4.33	1.33	3.33	2.33	11.33	-1.67	5.33	7.33
265	16.807	10.0	2.0	0.0	6.0	1.0	3.0	0.0	-3.0	0.0	3.0	5.0	-2.0	1.0	6.0	5.0	-1.0	1.0	7.0	-1.0	10.0	2.0	1.0	-5.0	-3.0	-1.0	7.0	1.0
272	17.253	10.33	0.67	4.67	0.67	0.67	-3.33	2.67	-2.33	4.67	1.67	6.67	4.67	1.67	4.67	0.67	5.67	0.67	1.67	5.67	2.67	-1.33	3.67	0.67	-0.33	2.67	8.67	6.67
279	17.699	9.67	0.33	-0.67	0.33	4.33	0.33	2.33	4.33	-4.67	-0.67	-3.67	2.33	2.33	5.33	5.33	3.33	3.33	6.33	1.33	-0.67	4.33	6.33	3.33	4.33	1.33	5.33	3.33
286	18.145	5.67	1.33	7.33	-1.67	8.33	11.33	2.33	3.33	6.33	10.33	9.33	5.33	1.33	6.33	4.33	-1.67	6.33	8.33	3.33	6.33	7.33	6.33	8.33	8.33	-0.67	3.33	10.33
293	18.59	10.33	-4.33	3.67	-2.33	1.67	-2.33	3.67	1.67	0.67	5.67	0.67	2.67	1.67	-2.33	2.67	-2.33	-4.33	-1.33	-2.33	3.67	1.67	3.67	-0.33	-1.33	2.67	2.67	8.67
300	19.036	9.67	0.33	1.33	5.33	-2.67	4.33	-0.67	7.33	-3.67	-0.67	-0.67	1.33	-3.67	-3.67	1.33	-1.67	0.33	7.33	5.33	0.33	7.33	3.33	1.33	10.33	3.33	6.33	3.33
307	19.481	9.33	-0.33	-4.33	9.67	0.67	0.67	8.67	-3.33	0.67	4.67	-1.33	-5.33	-1.33	-2.33	6.67	0.67	5.67	-1.33	12.67	8.67	5.67	4.67	7.67	10.67	9.67	-3.33	0.67
314	19.927	8.0	2.0	1.0	8.0	-1.0	-1.0	9.0	-1.0	2.0	3.0	13.0	3.0	9.0	7.0	8.0	5.0	7.0	0.0	1.0	0.0	10.0	2.0	1.0	-3.0	10.0	1.0	-2.0
321	20.372	5.67	2.33	5.33	9.33	7.33	4.33	6.33	6.33	9.33	5.33	3.33	3.33	7.33	5.33	2.33	7.33	4.33	6.33	3.33	4.33	-0.67	12.33	10.33	9.33	10.33	4.33	10.33
328	20.817	9.67	5.33	0.33	-2.67	-1.67	1.33	3.33	3.33	-4.67	-2.67	0.33	-1.67	2.33	-2.67	5.33	4.33	1.33	1.33	-4.67	5.33	2.33	4.33	4.33	4.33	2.33	1.33	8.33
335	21.262	12.0	-6.0	1.0	-3.0	-6.0	1.0	0.0	0.0	-1.0	0.0	-2.0	-2.0	0.0	6.0	-4.0	-5.0	-1.0	-4.0	-5.0	2.0	2.0	-1.0	-3.0	1.0	0.0	-2.0	-2.0
342	21.708	7.67	-1.67	2.33	-1.67	2.33	7.33	-2.67	0.33	4.33	-1.67	3.33	4.33	5.33	6.33	-3.67	2.33	-1.67	5.33	3.33	-1.67	4.33	8.33	5.33	0.33	6.33	0.33	6.33
349	22.153	11.33	-2.33	1.67	3.67	-5.33	-3.33	-0.33	-2.33	1.67	1.67	-1.33	0.67	-3.33	4.67	-3.33	-1.33	-0.33	-3.33	3.67	-0.33	0.67	7.67	-3.33	2.67	-1.33	0.67	-1.33
356	22.598	6.0	9.0	1.0	9.0	3.0	6.0	7.0	13.0	10.0	4.0	-2.0	9.0	10.0	2.0	6.0	10.0	10.0	1.0	7.0	3.0	6.0	2.0	3.0	4.0	11.0	4.0	3.0
363	23.043	10.67	-1.67	1.33	0.33	-5.67	1.33	1.33	2.33	-7.67	-2.67	1.33	-0.67	3.33	-3.67	-2.67	-3.67	-2.67	3.33	-2.67	-4.67	-0.67	1.33	5.33	-4.67	0.33	2.33	2.33
370	23.488	9.0	4.0	-1.0	-1.0	1.0	-2.0	-3.0	1.0	7.0	-2.0	0.0	-1.0	-2.0	-1.0	2.0	3.0	-5.0	1.0	2.0	2.0	0.0	11.0	-2.0	2.0	4.0	5.0	-6.0
377	23.932	8.0	2.0	4.0	0.0	1.0	1.0	-1.0	0.0	6.0	0.0	1.0	5.0	0.0	1.0	-2.0	-1.0	-1.0	1.0	1.0	2.0	2.0	2.0	4.0	-2.0	4.0	-6.0	-3.0
384	24.377	7.33	0.67	-2.33	-1.33	2.67	8.67	5.67	9.67	0.67	0.67	13.67	0.67	3.67	-0.33	0.67	1.67	3.67	1.67	-2.33	6.67	0.67	1.67	3.67	-1.33	9.67	4.67	0.67
391	24.822	8.0	-5.0	-2.0	0.0	6.0	5.0	0.0	0.0	-2.0	2.0	-2.0	3.0	1.0	5.0	-2.0	0.0	4.0	-3.0	1.0	-1.0	4.0	6.0	1.0	-2.0	3.0	2.0	3.0
398	25.267	9.33	-6.33	5.67	-3.33	-4.33	-0.33	-8.33	-0.33	-2.33	-4.33	-1.33	1.67	3.67	-1.33	-2.33	-2.33	-0.33	-4.33	-2.33	-2.33	1.67	-1.33	-5.33	-1.33	3.67	-1.33	-4.33
405	25.711	10.67	-3.67	1.33	-6.67	-3.67	-3.67	0.33	-5.67	-0.67	-0.67	-2.67	-0.67	3.33	-1.67	-1.67	4.33	-3.67	-4.67	0.33	-5.67	-1.67	-5.67	-4.67	2.33	-0.67	-0.67	2.33
412	26.156	7.33	-2.33	-2.33	-3.33	-1.33	-1.33	4.67	1.67	0.67	2.67	6.67	-0.33	-0.33	3.67	-4.33	-0.33	2.67	-0.33	4.67	2.67	-0.33	-1.33	-0.33	3.67	-1.33	-0.33	1.67
419	26.601	6.33	-0.33	5.67	-0.33	2.67	1.67	4.67	3.67	-0.33	1.67	7.67	-2.33	1.67	2.67	-0.33	-2.33	0.67	3.67	0.67	4.67	0.67	1.67	-1.33	4.67	-2.33	4.67	-2.33
426	27.045	6.33	3.67	-1.33	0.67	-0.33	4.67	1.67	-4.33	0.67	-2.33	-0.33	1.67	-1.33	0.67	3.67	-1.33	3.67	9.67	0.67	4.67	1.67	5.67	2.67	2.67	-1.33	1.67	-0.33
433	27.49	8.0	0.0	1.0	-3.0	-3.0	-2.0	2.0	0.0	0.0	-3.0	1.0	-2.0	-2.0	4.0	-1.0	-4.0	1.0	-2.0	-5.0	4.0	4.0	4.0	0.0	0.0	2.0	-3.0	0.0
440	27.934	6.33	-0.33	-0.33	8.67	-1.33	-3.33	2.67	2.67	2.67	0.67	1.67	-0.33	0.67	1.67	-1.33	6.67	-0.33	1.67	4.67	-2.33	-0.33	2.67	-1.33	6.67	0.67	0.67	1.67
447	28.379	9.67	-1.67	-2.67	-5.67	-5.67	-1.67	-4.67	1.33	-6.67	-3.67	-2.67	-4.67	-2.67	0.33	-2.67	2.33	2.33	-4.67	3.33	-2.67	-2.67	-2.67	0.33	-7.67	-4.67	-3.67	4.33
454	28.823	4.67	6.33	3.33	-0.67	5.33	6.33	5.33	4.33	5.33	3.33	0.33	-1.67	2.33	4.33	4.33	2.33	7.33	1.33	4.33	0.33	1.33	6.33	1.33	6.33	3.33	8.33	0.33
461	29.267	6.0	0.0	-2.0	1.0	1.0	2.0	2.0	4.0	0.0	2.0	6.0	2.0	2.0	0.0	-2.0	2.0	-1.0	5.0	3.0	1.0	1.0	-4.0	1.0	1.0	-3.0	4.0	-2.0
468	29.712	6.33	2.67	-1.33	1.67	5.67	3.67	1.67	1.67	4.67	1.67	0.67	0.67	3.67	4.67	-2.33	0.67	2.67	1.67	2.67	3.67	0.67	0.67	2.67	-2.33	-2.33	0.67	2.67
475	30.156	5.67	-1.67	1.33	0.33	0.33	2.33	8.33	-0.67	3.33	1.33	-0.67	5.33	-3.67	0.33	5.33	-2.67	-0.67	-3.67	6.33	-1.67	3.33	1.33	4.33	7.33	-0.67	3.33	1.33
482	30.6	6.67	3.33	1.33	-2.67	-1.67	-0.67	-4.67	-2.67	-1.67	1.33	0.33	-0.67	0.33	-0.67	-0.67	4.33	-1.67	-1.67	3.33	-0.67	1.33	1.33	-1.67	-1.67	6.33	1.33	1.33
489	31.045	7.0	3.0	5.0	4.0	0.0	4.0	-1.0	-1.0	-4.0	-2.0	3.0	4.0	0.0	-3.0	3.0	-3.0	1.0	-6.0	2.0	1.0	-2.0	-3.0	0.0	-1.0	-2.0	-1.0	3.0
496	31.489	6.33	0.67	3.67	0.67	-5.33	-0.33	1.67	1.67	-2.33	2.67	-2.33	-0.33	-1.33	0.67	3.67	1.67	5.67	-2.33	-0.33	5.67	-2.33	-1.33	-2.33	0.67	-0.33	6.67	-1.33
503	31.933	5.33	-0.33	1.67	-0.33	0.67	6.67	3.67	-1.33	4.67	4.67	1.67	-0.33	-0.33	1.67	1.67	6.67	-1.33	-1.33	-0.33	2.67	4.67	-1.33	-3.33	3.67	3.67	-0.33	-0.33
510	32.377	5.67	3.33	4.33	1.33	0.33	0.33	7.33	-1.67	-1.67	0.33	-2.67	0.33	-1.67	-1.67	0.33	-0.67	0.33	3.33	0.33	7.33	1.33	0.33	0.33	-0.67	1.33	0.33	0.33
517	32.822	4.33	-0.33	0.67	-1.33	3.67	-0.33	2.67	2.67	2.67	-1.33	4.67	2.67	0.67	-0.33	1.67	1.67	3.67	2.67	-1.33	0.67	4.67	4.67	2.67	2.67	7.67	4.67	5.67
524	33.266	7.0	3.0	-2.0	-3.0	1.0	-6.0	-2.0	-2.0	0.0	-2.0	-5.0	-4.0	-7.0	3.0	2.0	1.0	-6.0	0.0	2.0	2.0	-2.0	2.0	-3.0	-2.0	-3.0	-1.0	0.0
531	33.71	5.0	1.0	1.0	4.0	5.0	2.0	1.0	2.0	0.0	-1.0	1.0	-1.0	1.0	-1.0	2.0	2.0	4.0	0.0	2.0	-2.0	2.0	1.0	1.0	5.0	4.0	0.0	2.0
538	34.154	5.67	-2.67	-0.67	0.33	0.33	-1.67	-1.67	1.33	2.33	1.33	2.33	-0.67	0.33	0.33	1.33	2.33	-1.67	-2.67	-0.67	2.33	1.33	3.33	1.33	-2.67	4.33	1.33	-1.67
545	34.598	4.33	-1.33	0.67	3.67	0.67	2.67	2.67	-0.33	1.67	1.67	4.67	-1.33	3.67	-0.33	-2.33	1.67	-0.33	0.67	-2.33	-1.33	-0.33	2.67	5.67	-0.33	4.67	2.67	-2.33
552	35.043	4.33	-1.33	5.67	2.67	-2.33	-2.33	-2.33	0.67	2.67	-1.33	2.67	-1.33	4.67	1.67	-0.33	0.67	-0.33	6.67	-0.33	2.67	6.67	0.67	0.67	0.67	0.67	4.67	-0.33
559	35.487	5.0	0.0	1.0	0.0	-4.0	0.0	1.0	-4.0	1.0	2.0	-1.0	0.0	0.0	2.0	3.0	-3.0	1.0	1.0	-2.0	1.0	-1.0	2.0	5.0	4.0	0.0	2.0	-2.0
566	35.931	6.33	-2.33	-0.33	-1.33	0.67	-1.33	3.67	1.67	0.67	1.67	-5.33	0.67	-0.33	1.67	3.67	-0.33	-0.33	4.67	1.67	-1.33	-0.33	-0.33	-1.33	-0.33	-2.33	-5.33	-0.33
573	36.375	4.0	1.0	-4.0	4.0	2.0	3.0	0.0	-1.0	-3.0	3.0	-2.0	5.0	2.0	0.0	3.0	3.0	2.0	2.0	-1.0	3.0	0.0	7.0	2.0	6.0	6.0	1.0	5.0
580	36.819	4.33	0.67	-3.33	-0.33	-0.33	-3.33	0.67	2.67	-1.33	-1.33	0.67	-0.33	1.67	3.67	2.67	2.67	4.67	0.67	0.67	2.67	1.67	-1.33	-0.33	0.67	1.67	3.67	1.67
587	37.263	5.0	0.0	2.0	-1.0	3.0	-2.0	-2.0	2.0	-1.0	-1.0	-2.0	2.0	1.0	-2.0	0.0	-2.0	3.0	3.0	3.0	-3.0	1.0	2.0	-4.0	-1.0	4.0	2.0	-1.0
594	37.707	7.33	-4.33	1.67	2.67	-2.33	-5.33	-3.33	-2.33	-3.33	-4.33	-4.33	-0.33	-3.33	0.67	4.67	-1.33	-5.33	-1.33	-0.33	-2.33	-2.33	-1.33	-1.33	-1.33	-1.33	-1.33	-1.33
601	38.152	7.0	1.0	-2.0	-3.0	-3.0	2.0	0.0	-2.0	-3.0	-6.0	-1.0	-5.0	-3.0	-4.0	-2.0	-7.0	-2.0	-1.0	-2.0	-3.0	-1.0	-5.0	-3.0	1.0	0.0	-3.0	-3.0
608	38.596	6.67	-1.67	-2.67	-4.67	-2.67	-1.67	-2.67	-1.67	-0.67	-2.67	-3.67	-0.67	-2.67	-4.67	-0.67	4.33	-1.67	-4.67	-2.67	-2.67	-2.67	-2.67	0.33	-3.67	3.33	5.33	-3.67
615	39.04	3.0	1.0	2.0	-2.0	5.0	2.0	4.0	9.0	3.0	3.0	2.0	4.0	4.0	-1.0	9.0	8.0	0.0	6.0	3.0	3.0	5.0	2.0	3.0	1.0	2.0	2.0	-1.0
622	39.484	6.33	-4.33	2.67	1.67	-0.33	-4.33	-2.33	-2.33	-4.33	1.67	-4.33	-1.33	-0.33	-0.33	-3.33	-1.33	-2.33	-1.33	-1.33	-0.33	2.67	-1.33	-0.33	0.67	-0.33	1.67	-4.33
629	39.928	4.33	-0.33	-0.33	-0.33	3.67	-1.33	0.67	3.67	-0.33	-1.33	3.67	5.67	2.67	5.67	-0.33	-2.33	-1.33	0.67	-1.33	1.67	1.67	-0.33	-0.33	2.67	6.67	5.67	1.67
636	40.372	3.33	-0.33	-1.33	1.67	2.67	-0.33	0.67	0.67	2.67	3.67	4.67	3.67	6.67	-0.33	1.67	5.67	5.67	-0.33	0.67	0.67	1.67	6.67	0.67	-0.33	1.67	0.67	4.67
643	40.817	3.67	6.33	4.33	2.33	0.33	0.33	1.33	0.33	-0.67	1.33	0.33	7.33	1.33	-1.67	3.33	3.33	1.33	0.33	4.33	0.33	3.33	2.33	1.33	1.33	3.33	1.33	0.33
650	41.261	5.67	-5.67	0.33	0.33	4.33	4.33	1.33	1.33	0.33	-3.67	0.33	1.33	2.33	-3.67	-2.67	2.33	1.33	3.33	-2.67	-1.67	1.33	-1.67	-3.67	0.33	1.33	-2.67	0.33
657	41.705	6.33	-3.33	-2.33	-1.33	-1.33	-3.33	0.67	-1.33	-1.33	-1.33	-0.33	0.67	7.67	2.67	3.67	-1.33	1.67	-3.33	-0.33	-4.33	-1.33	-2.33	-1.33	1.67	-3.33	-1.33	-3.33
664	42.149	4.0	1.0	0.0	0.0	1.0	0.0	1.0	5.0	2.0	2.0	1.0	1.0	-2.0	-1.0	3.0	-4.0	2.0	3.0	2.0	4.0	1.0	5.0	1.0	5.0	4.0	3.0	7.0
671	42.594	4.0	1.0	2.0	-1.0	4.0	-1.0	2.0	1.0	1.0	6.0	1.0	5.0	7.0	3.0	0.0	1.0	3.0	5.0	4.0	0.0	2.0	4.0	3.0	-1.0	4.0	2.0	0.0
678	43.038	5.67	1.33	-1.67	3.33	1.33	2.33	3.33	-2.67	1.33	0.33	2.33	1.33	-0.67	0.33	0.33	1.33	-1.67	-3.67	5.33	-2.67	-2.67	0.33	-2.67	-1.67	4.33	0.33	1.33
685	43.482	5.33	-1.33	-1.33	1.67	-5.33	-0.33	2.67	-3.33	1.67	-2.33	-3.33	2.67	-1.33	0.67	-1.33	3.67	1.67	-3.33	0.67	1.67	1.67	-2.33	1.67	-2.33	2.67	-0.33	-1.33
692	43.927	7.67	-0.67	-3.67	0.33	-1.67	-2.67	-2.67	-2.67	-4.67	1.33	-2.67	-4.67	0.33	1.33	-0.67	-2.67	-5.67	-5.67	0.33	-2.67	0.33	-1.67	1.33	-4.67	-1.67	-5.67	1.33
699	44.371	7.33	1.67	2.67	2.67	-2.33	-4.33	2.67	4.67	-1.33	-3.33	1.67	1.67	-2.33	-1.33	4.67	-2.33	4.67	4.67	-0.33	2.67	-0.33	1.67	-2.33	-2.33	-1.33	-3.33	-2.33
706	44.815	4.0	8.0	4.0	2.0	2.0	6.0	4.0	1.0	2.0	1.0	0.0	5.0	5.0	1.0	0.0	2.0	3.0	9.0	-1.0	6.0	2.0	9.0	0.0	-1.0	3.0	7.0	3.0
713	45.26	5.0	0.0	-2.0	10.0	-1.0	4.0	3.0	5.0	4.0	2.0	9.0	8.0	2.0	4.0	1.0	3.0	5.0	8.0	0.0	1.0	5.0	3.0	2.0	-1.0	2.0	5.0	1.0
720	45.704	7.67	-1.67	1.33	-0.67	3.33	1.33	1.33	8.33	1.33	-1.67	3.33	-0.67	3.33	3.33	6.33	3.33	-3.67	-1.67	1.33	-2.67	-1.67	-0.67	5.33	5.33	-0.67	0.33	1.33
727	46.149	7.67	-3.67	0.33	-1.67	-3.67	-3.67	-2.67	-2.67	-3.67	1.33	3.33	0.33	-2.67	-3.67	2.33	-2.67	0.33	-1.67	-2.67	-3.67	4.33	-0.67	0.33	4.33	-0.67	-0.67	5.33
734	46.594	8.33	-2.33	-0.33	-4.33	2.67	-5.33	-3.33	-2.33	-2.33	-3.33	-0.33	-4.33	-2.33	-0.33	-3.33	0.67	4.67	0.67	-2.33	-0.33	-4.33	0.67	-0.33	-1.33	-1.33	1.67	0.67
741	47.038	7.67	0.33	0.33	-0.67	4.33	-1.67	3.33	-1.67	2.33	1.33	-3.67	-1.67	-1.67	0.33	-1.67	-1.67	5.33	-1.67	4.33	-0.67	-4.67	-5.67	5.33	3.33	0.33	-0.67	1.33
748	47.483	7.67	2.33	5.33	-2.67	0.33	6.33	2.33	3.33	0.33	-5.67	0.33	1.33	2.33	0.33	0.33	-2.67	3.33	2.33	4.33	5.33	-2.67	-3.67	-0.67	-0.67	-1.67	1.33	-2.67
755	47.928	8.67	-0.67	-0.67	-2.67	-0.67	-2.67	-3.67	-3.67	-1.67	-1.67	1.33	0.33	4.33	2.33	0.33	2.33	3.33	-0.67	-1.67	1.33	-3.67	-2.67	-6.67	-0.67	2.33	0.33	-0.67
762	48.372	8.33	1.67	1.67	-2.33	-3.33	2.67	0.67	1.67	-0.33	-1.33	-3.33	-0.33	1.67	1.67	-2.33	2.67	1.67	1.67	-1.33	-1.33	-1.33	4.67	-2.33	-2.33	2.67	4.67	0.67
769	48.817	8.0	3.0	-1.0	-2.0	-1.0	2.0	1.0	6.0	-1.0	3.0	1.0	1.0	3.0	3.0	2.0	-2.0	4.0	1.0	0.0	3.0	0.0	4.0	-1.0	2.0	0.0	2.0	0.0
776	49.262	11.33	-0.33	-2.33	-6.33	3.67	-0.33	-2.33	-2.33	1.67	-1.33	2.67	-4.33	-3.33	-4.33	4.67	-2.33	-5.33	-0.33	-5.33	-5.33	-0.33	-4.33	-0.33	6.67	1.67	-8.33	-8.33
783	49.707	9.33	2.67	5.67	0.67	-0.33	5.67	-4.33	1.67	-3.33	4.67	0.67	3.67	-2.33	-5.33	2.67	1.67	1.67	2.67	-1.33	-4.33	0.67	0.67	0.67	2.67	-1.33	6.67	-1.33
790	50.152	9.0	1.0	3.0	4.0	0.0	-2.0	-3.0	-1.0	9.0	1.0	1.0	-2.0	9.0	5.0	7.0	0.0	8.0	1.0	1.0	0.0	4.0	1.0	1.0	6.0	1.0	5.0	8.0
797	50.597	11.33	1.67	5.67	-1.33	-4.33	3.67	0.67	2.67	6.67	1.67	3.67	3.67	4.67	1.67	10.67	1.67	2.67	-1.33	-1.33	-2.33	5.67	12.67	-0.33	1.67	-1.33	4.67	0.67
804	51.042	10.0	1.0	-1.0	4.0	0.0	2.0	4.0	5.0	15.0	8.0	15.0	10.0	18.0	17.0	11.0	17.0	20.0	15.0	16.0	13.0	10.0	10.0	10.0	9.0	9.0	13.0	15.0
811	51.487	7.67	3.33	7.33	6.33	5.33	7.33	12.33	13.33	17.33	28.33	21.33	39.33	27.33	23.33	34.33	29.33	35.33	29.33	27.33	29.33	25.33	26.33	23.33	24.33	22.33	28.33	25.33
818	51.932	11.33	5.67	-3.33	1.67	3.67	5.67	7.67	8.67	2.67	18.67	28.67	17.67	27.67	31.67	13.67	31.67	24.67	8.67	16.67	21.67	19.67	17.67	10.67	14.67	13.67	17.67	6.67
825	52.377	9.67	0.33	4.33	1.33	-4.67	5.33	6.33	7.33	4.33	9.33	11.33	10.33	2.33	10.33	9.33	13.33	15.33	15.33	18.33	15.33	10.33	6.33	15.33	2.33	7.33	13.33	5.33
832	52.823	12.33	-6.33	-0.33	-4.33	-3.33	-2.33	-2.33	0.67	-0.33	-0.33	4.67	3.67	2.67	1.67	0.67	-3.33	1.67	5.67	1.67	-0.33	-0.33	-0.33	5.67	6.67	3.67	1.67	0.67
839	53.268	9.67	0.33	-3.67	0.33	0.33	1.33	1.33	-2.67	4.33	9.33	6.33	6.33	3.33	5.33	7.33	3.33	5.33	8.33	1.33	6.33	5.33	2.33	3.33	-0.67	9.33	-2.67	5.33
846	53.713	7.0	3.0	9.0	6.0	1.0	6.0	5.0	7.0	4.0	8.0	4.0	2.0	7.0	6.0	9.0	17.0	13.0	2.0	2.0	6.0	-2.0	5.0	6.0	2.0	3.0	9.0	11.0
853	54.159	8.33	5.67	2.67	5.67	0.67	-1.33	6.67	7.67	6.67	11.67	1.67	2.67	6.67	6.67	11.67	7.67	9.67	3.67	3.67	4.67	4.67	6.67	4.67	7.67	7.67	-4.33	7.67
860	54.604	11.0	-7.0	5.0	8.0	3.0	-3.0	5.0	4.0	5.0	4.0	10.0	6.0	11.0	-1.0	0.0	0.0	8.0	7.0	2.0	7.0	-5.0	-6.0	8.0	4.0	0.0	0.0	4.0
867	55.05	11.0	2.0	4.0	-3.0	3.0	6.0	-2.0	-3.0	-1.0	-1.0	1.0	-2.0	3.0	2.0	1.0	4.0	5.0	5.0	3.0	1.0	-2.0	-6.0	0.0	5.0	3.0	-4.0	6.0
874	55.496	12.0	-7.0	-5.0	4.0	2.0	-1.0	1.0	4.0	2.0	-2.0	2.0	4.0	3.0	-5.0	2.0	2.0	-4.0	-1.0	-3.0	3.0	-2.0	-1.0	-7.0	-2.0	-2.0	2.0	6.0
881	55.942	9.67	-5.67	1.33	0.33	4.33	2.33	6.33	1.33	1.33	-0.67	11.33	2.33	11.33	3.33	0.33	7.33	1.33	-0.67	2.33	2.33	7.33	2.33	-0.67	7.33	4.33	3.33	14.33
888	56.387	13.33	6.67	-3.33	-0.33	1.67	6.67	3.67	-4.33	-4.33	3.67	3.67	-1.33	-1.33	-3.33	-7.33	-1.33	-8.33	1.67	-0.33	-6.33	4.67	-3.33	3.67	-3.33	-1.33	-4.33	-2.33
895	56.833	13.33	-9.33	-2.33	0.67	-3.33	-0.33	2.67	-2.33	-0.33	-4.33	1.67	-1.33	4.67	3.67	-5.33	3.67	-2.33	5.67	8.67	-6.33	-3.33	-1.33	4.67	0.67	-5.33	-1.33	-3.33
902	57.279	10.33	-2.33	1.67	7.67	4.67	6.67	8.67	5.67	0.67	4.67	5.67	9.67	4.67	5.67	0.67	3.67	1.67	7.67	-0.33	3.67	-1.33	0.67	0.67	-0.33	10.67	1.67	6.67
909	57.726	14.33	-7.33	-1.33	9.67	6.67	-0.33	-2.33	3.67	-2.33	-0.33	-4.33	0.67	1.67	1.67	-4.33	-3.33	4.67	4.67	5.67	-6.33	1.67	9.67	-0.33	3.67	0.67	1.67	7.67
916	58.172	13.33	2.67	0.67	1.67	5.67	3.67	-2.33	-1.33	4.67	0.67	11.67	-2.33	0.67	0.67	5.67	4.67	4.67	2.67	4.67	4.67	1.67	-1.33	10.67	5.67	5.67	13.67	-1.33
923	58.618	13.67	2.33	6.33	-1.67	2.33	2.33	1.33	-2.67	-3.67	-5.67	-3.67	0.33	-1.67	6.33	-5.67	2.33	3.33	-2.67	0.33	5.33	-7.67	-2.67	-2.67	4.33	7.33	0.33	-0.67
930	59.064	16.33	-2.33	1.67	2.67	4.67	0.67	3.67	-2.33	0.67	4.67	0.67	3.67	-3.33	-1.33	1.67	4.67	2.67	4.67	-5.33	6.67	-3.33	0.67	3.67	2.67	-2.33	5.67	0.67
937	59.511	21.0	-3.0	5.0	7.0	7.0	-5.0	6.0	-8.0	-3.0	-5.0	1.0	3.0	-4.0	-7.0	7.0	4.0	-7.0	-3.0	6.0	3.0	-1.0	-5.0	-5.0	-1.0	-6.0	-9.0	1.0
944	59.957	16.67	3.33	0.33	0.33	1.33	-3.67	-1.67	-0.67	-3.67	4.33	6.33	-1.67	-4.67	-3.67	-2.67	-3.67	-7.67	-1.67	-1.67	-3.67	1.33	2.33	-4.67	-4.67	-7.67	-0.67	-4.67
951	60.404	11.67	-0.67	-1.67	9.33	6.33	1.33	1.33	7.33	2.33	-0.67	-1.67	1.33	-0.67	0.33	3.33	1.33	8.33	0.33	5.33	-0.67	14.33	-1.67	3.33	-0.67	13.33	8.33	3.33
958	60.851	12.33	-0.33	8.67	-3.33	2.67	9.67	8.67	4.67	1.67	4.67	2.67	-3.33	10.67	3.67	2.67	14.67	0.67	-2.33	-0.33	-1.33	-3.33	4.67	10.67	2.67	4.67	3.67	-1.33
965	61.298	9.0	8.0	11.0	9.0	10.0	6.0	15.0	8.0	5.0	9.0	3.0	4.0	8.0	0.0	7.0	3.0	3.0	5.0	10.0	2.0	5.0	17.0	3.0	8.0	8.0	4.0	8.0
972	61.745	15.0	-1.0	2.0	3.0	1.0	1.0	3.0	-2.0	-1.0	5.0	-4.0	0.0	3.0	-5.0	-3.0	1.0	0.0	2.0	-3.0	1.0	0.0	-1.0	6.0	3.0	-8.0	-2.0	-1.0
979	62.192	10.33	-2.33	1.67	5.67	1.67	9.67	4.67	7.67	1.67	9.67	2.67	5.67	5.67	2.67	-5.33	6.67	3.67	-1.33	0.67	3.67	0.67	5.67	7.67	6.67	4.67	2.67	1.67
986	62.639	11.33	1.67	9.67	2.67	4.67	7.67	6.67	2.67	8.67	2.67	7.67	11.67	6.67	2.67	4.67	0.67	4.67	1.67	4.67	5.67	9.67	-0.33	3.67	6.67	0.67	9.67	-2.33
993	63.086	15.33	-7.33	1.67	-5.33	-2.33	-4.33	4.67	3.67	3.67	4.67	3.67	-2.33	1.67	-0.33	0.67	1.67	-2.33	1.67	2.67	3.67	5.67	5.67	5.67	-3.33	-1.33	-2.33	-6.33
1000	63.533	18.0	-6.0	2.0	7.0	-5.0	-6.0	5.0	-6.0	-5.0	6.0	2.0	0.0	-3.0	4.0	-2.0	-3.0	1.0	3.0	-9.0	6.0	-1.0	-1.0	-1.0	-2.0	-2.0	-3.0	0.0
1007	63.981	13.67	-0.67	0.33	5.33	13.33	1.33	7.33	3.33	7.33	0.33	4.33	0.33	6.33	3.33	1.33	12.33	-0.67	8.33	1.33	1.33	3.33	5.33	5.33	10.33	1.33	-0.67	-0.67
1014	64.428	11.33	1.67	8.67	10.67	14.67	9.67	12.67	9.67	11.67	8.67	4.67	5.67	7.67	11.67	10.67	1.67	9.67	2.67	11.67	8.67	11.67	11.67	3.67	4.67	3.67	0.67	5.67
1021	64.876	13.33	2.67	15.67	23.67	21.67	16.67	16.67	16.67	20.67	8.67	12.67	8.67	4.67	16.67	7.67	9.67	8.67	7.67	11.67	1.67	1.67	10.67	-3.33	8.67	14.67	13.67	9.67
1028	65.324	15.0	19.0	21.0	24.0	35.0	26.0	33.0	20.0	16.0	18.0	15.0	11.0	30.0	18.0	17.0	19.0	23.0	15.0	15.0	9.0	14.0	16.0	10.0	15.0	14.0	11.0	5.0
1035	65.772	16.33	22.67	29.67	34.67	34.67	42.67	20.67	31.67	29.67	19.67	18.67	29.67	26.67	19.67	37.67	20.67	16.67	17.67	24.67	26.67	9.67	15.67	21.67	15.67	19.67	19.67	13.67
1042	66.22	14.67	19.33	28.33	32.33	30.33	34.33	33.33	23.33	20.33	21.33	26.33	23.33	19.33	26.33	9.33	33.33	14.33	8.33	14.33	12.33	12.33	8.33	17.33	9.33	13.33	26.33	17.33
1049	66.668	16.67	1.33	16.33	10.33	15.33	6.33	4.33	14.33	13.33	13.33	13.33	1.33	2.33	8.33	7.33	7.33	18.33	15.33	4.33	12.33	4.33	7.33	10.33	10.33	4.33	5.33	4.33
1056	67.116	19.33	-6.33	3.67	-0.33	6.67	6.67	4.67	-1.33	13.67	5.67	5.67	2.67	4.67	5.67	-0.33	-3.33	6.67	-1.33	-2.33	-0.33	-0.33	-1.33	-0.33	-3.33	5.67	1.67	-0.33
1063	67.564	14.33	8.67	8.67	5.67	4.67	-8.33	6.67	8.67	12.67	9.67	9.67	3.67	1.67	5.67	7.67	5.67	5.67	13.67	10.67	4.67	7.67	8.67	3.67	-0.33	11.67	3.67	5.67
1070	68.013	14.33	-1.33	3.67	8.67	5.67	-0.33	9.67	0.67	11.67	3.67	7.67	11.67	5.67	4.67	6.67	8.67	2.67	0.67	2.67	5.67	-0.33	8.67	0.67	5.67	10.67	4.67	2.67
1077	68.462	9.0	8.0	8.0	14.0	15.0	13.0	19.0	17.0	6.0	12.0	3.0	8.0	18.0	14.0	5.0	8.0	7.0	7.0	8.0	17.0	11.0	5.0	9.0	7.0	5.0	9.0	12.0
1084	68.91	11.0	-4.0	11.0	10.0	7.0	5.0	14.0	4.0	9.0	8.0	3.0	11.0	9.0	7.0	16.0	10.0	12.0	12.0	5.0	14.0	9.0	17.0	12.0	7.0	10.0	3.0	13.0
1091	69.359	10.0	-2.0	15.0	17.0	9.0	7.0	12.0	12.0	3.0	15.0	11.0	18.0	14.0	16.0	16.0	7.0	10.0	1.0	7.0	10.0	8.0	8.0	10.0	10.0	17.0	8.0	6.0
1098	69.808	12.67	-2.67	-3.67	6.33	3.33	3.33	0.33	1.33	13.33	0.33	8.33	9.33	9.33	5.33	9.33	7.33	3.33	13.33	4.33	8.33	7.33	5.33	6.33	4.33	5.33	4.33	8.33
1105	70.257	13.0	-7.0	2.0	8.0	10.0	4.0	5.0	6.0	3.0	-5.0	7.0	11.0	11.0	4.0	4.0	0.0	7.0	5.0	14.0	4.0	-3.0	1.0	5.0	10.0	10.0	9.0	6.0
1112	70.707	10.0	8.0	7.0	18.0	14.0	14.0	19.0	7.0	14.0	12.0	20.0	4.0	12.0	9.0	10.0	7.0	13.0	5.0	5.0	0.0	6.0	17.0	4.0	1.0	2.0	13.0	9.0
1119	71.156	14.33	3.67	8.67	4.67	9.67	6.67	7.67	0.67	-0.33	3.67	5.67	2.67	8.67	-0.33	4.67	0.67	12.67	2.67	2.67	9.67	6.67	3.67	6.67	2.67	8.67	1.67	5.67
1126	71.606	11.67	4.33	15.33	8.33	5.33	10.33	2.33	7.33	6.33	9.33	5.33	10.33	13.33	10.33	4.33	6.33	12.33	5.33	2.33	3.33	7.33	7.33	6.33	1.33	5.33	7.33	10.33
1133	72.055	17.0	-1.0	0.0	-1.0	5.0	6.0	1.0	3.0	5.0	4.0	0.0	4.0	2.0	5.0	2.0	8.0	6.0	2.0	2.0	5.0	0.0	1.0	-3.0	10.0	2.0	-2.0	0.0
1140	72.505	12.67	9.33	13.33	19.33	13.33	9.33	8.33	8.33	19.33	9.33	11.33	13.33	13.33	12.33	19.33	16.33	12.33	18.33	5.33	6.33	10.33	15.33	6.33	14.33	19.33	9.33	14.33
1147	72.955	25.67	7.33	16.33	-0.67	0.33	4.33	21.33	2.33	9.33	12.33	11.33	1.33	8.33	5.33	11.33	5.33	2.33	4.33	3.33	10.33	10.33	14.33	9.33	8.33	16.33	21.33	3.33
1154	73.405	16.33	1.67	13.67	12.67	13.67	12.67	10.67	15.67	10.67	14.67	20.67	5.67	8.67	7.67	15.67	19.67	15.67	18.67	16.67	4.67	19.67	14.67	14.67	14.67	12.67	13.67	8.67
1161	73.855	14.67	-1.67	10.33	2.33	3.33	13.33	1.33	1.33	7.33	0.33	10.33	6.33	5.33	3.33	2.33	18.33	5.33	-0.67	10.33	8.33	7.33	2.33	-1.67	-0.67	8.33	4.33	8.33
1168	74.306	14.0	7.0	9.0	9.0	9.0	7.0	7.0	13.0	13.0	8.0	13.0	10.0	7.0	11.0	8.0	13.0	-1.0	9.0	5.0	13.0	4.0	-1.0	6.0	15.0	5.0	0.0	9.0
1175	74.756	25.0	0.0	-4.0	7.0	6.0	3.0	3.0	-3.0	1.0	6.0	6.0	2.0	9.0	-4.0	8.0	5.0	12.0	4.0	-2.0	5.0	4.0	6.0	6.0	11.0	2.0	5.0	6.0
1182	75.207	37.67	-1.67	6.33	9.33	4.33	12.33	11.33	11.33	19.33	3.33	16.33	15.33	2.33	13.33	9.33	21.33	8.33	16.33	10.33	6.33	8.33	13.33	19.33	15.33	7.33	11.33	23.33
1189	75.658	19.33	14.67	11.67	16.67	12.67	18.67	17.67	19.67	16.67	8.67	17.67	12.67	16.67	15.67	17.67	16.67	2.67	14.67	16.67	23.67	11.67	8.67	25.67	13.67	18.67	12.67	13.67
1196	76.109	14.33	0.67	6.67	1.67	11.67	5.67	10.67	3.67	7.67	7.67	-0.33	8.67	7.67	9.67	11.67	9.67	7.67	9.67	1.67	9.67	10.67	9.67	8.67	9.67	3.67	16.67	3.67
1203	76.56	12.33	4.67	4.67	12.67	10.67	4.67	1.67	20.67	7.67	14.67	3.67	4.67	14.67	10.67	9.67	5.67	6.67	3.67	2.67	14.67	3.67	8.67	5.67	11.67	9.67	6.67	8.67
1210	77.011	8.67	3.33	7.33	17.33	16.33	7.33	7.33	12.33	9.33	9.33	16.33	5.33	19.33	6.33	15.33	4.33	12.33	10.33	13.33	10.33	0.33	8.33	14.33	15.33	11.33	16.33	11.33
1217	77.463	10.0	4.0	13.0	5.0	12.0	9.0	14.0	18.0	17.0	14.0	12.0	14.0	9.0	8.0	13.0	15.0	13.0	10.0	9.0	11.0	12.0	14.0	8.0	16.0	9.0	5.0	10.0
1224	77.915	11.0	4.0	9.0	8.0	22.0	8.0	19.0	16.0	9.0	8.0	9.0	10.0	13.0	12.0	18.0	15.0	14.0	13.0	11.0	5.0	6.0	4.0	12.0	6.0	10.0	5.0	8.0
1231	78.366	15.67	9.33	6.33	14.33	2.33	15.33	1.33	5.33	4.33	13.33	8.33	11.33	13.33	9.33	4.33	3.33	7.33	9.33	8.33	1.33	11.33	-0.67	6.33	0.33	12.33	7.33	8.33
1238	78.818	15.67	-1.67	11.33	6.33	3.33	8.33	14.33	2.33	4.33	5.33	9.33	7.33	4.33	12.33	3.33	2.33	11.33	4.33	4.33	7.33	5.33	6.33	4.33	6.33	0.33	1.33	-0.67
1245	79.271	12.0	2.0	11.0	24.0	4.0	13.0	20.0	9.0	10.0	16.0	6.0	5.0	10.0	6.0	10.0	15.0	11.0	9.0	10.0	8.0	7.0	8.0	13.0	9.0	7.0	14.0	15.0
1252	79.723	10.67	14.33	17.33	13.33	16.33	12.33	12.33	9.33	13.33	13.33	15.33	25.33	11.33	11.33	18.33	12.33	10.33	9.33	21.33	17.33	7.33	12.33	8.33	11.33	0.33	7.33	11.33
1259	80.175	15.33	5.67	12.67	1.67	8.67	5.67	5.67	7.67	11.67	7.67	14.67	16.67	12.67	-0.33	6.67	4.67	3.67	10.67	14.67	5.67	9.67	11.67	10.67	7.67	3.67	15.67	8.67
1266	80.628	13.67	8.33	10.33	8.33	9.33	12.33	6.33	17.33	14.33	11.33	16.33	7.33	10.33	15.33	21.33	15.33	6.33	15.33	12.33	9.33	6.33	13.33	10.33	2.33	10.33	18.33	13.33
1273	81.081	16.0	4.0	6.0	6.0	13.0	13.0	8.0	12.0	4.0	12.0	11.0	14.0	17.0	12.0	10.0	10.0	3.0	-2.0	14.0	12.0	7.0	19.0	3.0	12.0	14.0	17.0	11.0
1280	81.534	14.67	0.33	9.33	9.33	14.33	9.33	24.33	4.33	22.33	16.33	13.33	24.33	14.33	13.33	22.33	18.33	11.33	21.33	19.33	17.33	21.33	20.33	25.33	6.33	25.33	8.33	25.33
1287	81.987	19.67	10.33	17.33	18.33	8.33	14.33	20.33	13.33	7.33	13.33	21.33	12.33	13.33	11.33	11.33	8.33	21.33	17.33	11.33	10.33	19.33	21.33	18.33	7.33	22.33	15.33	5.33
1294	82.441	14.0	25.0	50.0	46.0	33.0	40.0	41.0	27.0	33.0	34.0	30.0	20.0	22.0	30.0	25.0	24.0	21.0	27.0	43.0	35.0	37.0	20.0	16.0	28.0	23.0	21.0	22.0
1301	82.894	11.33	82.67	164.67	131.67	101.67	107.67	86.67	99.67	65.67	71.67	63.67	68.67	71.67	50.67	45.67	54.67	56.67	42.67	41.67	46.67	38.67	41.67	37.67	41.67	38.67	47.67	39.67
1308	83.348	22.67	158.33	228.33	221.33	196.33	185.33	148.33	140.33	119.33	99.33	108.33	85.33	99.33	93.33	64.33	74.33	67.33	76.33	58.33	51.33	48.33	50.33	59.33	41.33	43.33	41.33	61.33
1315	83.802	19.33	187.67	342.67	319.67	267.67	245.67	194.67	181.67	189.67	130.67	119.67	150.67	136.67	98.67	123.67	105.67	77.67	72.67	76.67	82.67	78.67	69.67	87.67	64.67	66.67	80.67	64.67
1322	84.256	20.67	157.33	304.33	290.33	230.33	188.33	179.33	172.33	142.33	124.33	144.33	134.33	100.33	109.33	96.33	85.33	75.33	70.33	80.33	73.33	80.33	65.33	78.33	74.33	71.33	65.33	43.33
1329	84.71	20.67	90.33	146.33	165.33	131.33	103.33	111.33	75.33	72.33	82.33	92.33	89.33	78.33	74.33	57.33	51.33	58.33	52.33	46.33	52.33	35.33	69.33	56.33	34.33	46.33	55.33	50.33
1336	85.165	32.33	20.67	52.67	34.67	24.67	26.67	27.67	25.67	24.67	12.67	29.67	34.67	24.67	36.67	8.67	15.67	14.67	18.67	23.67	14.67	10.67	7.67	20.67	11.67	15.67	16.67	9.67
1343	85.619	27.0	11.0	4.0	22.0	20.0	13.0	14.0	25.0	13.0	12.0	12.0	15.0	24.0	9.0	6.0	10.0	1.0	3.0	13.0	17.0	17.0	9.0	1.0	1.0	8.0	14.0	10.0
1350	86.074	24.67	1.33	11.33	7.33	2.33	6.33	9.33	6.33	10.33	4.33	13.33	10.33	10.33	1.33	3.33	3.33	8.33	-0.67	3.33	15.33	-0.67	13.33	6.33	15.33	10.33	10.33	3.33
1357	86.529	21.0	-2.0	10.0	-2.0	2.0	17.0	9.0	7.0	9.0	17.0	4.0	19.0	13.0	9.0	14.0	20.0	10.0	10.0	-2.0	12.0	6.0	17.0	9.0	16.0	5.0	9.0	6.0
1364	86.985	18.67	1.33	11.33	9.33	11.33	16.33	15.33	12.33	23.33	9.33	8.33	1.33	12.33	14.33	13.33	13.33	17.33	15.33	14.33	3.33	8.33	10.33	7.33	16.33	17.33	8.33	5.33
1371	87.44	20.33	9.67	12.67	18.67	4.67	20.67	10.67	17.67	14.67	-0.33	2.67	18.67	9.67	17.67	11.67	10.67	16.67	5.67	10.67	5.67	11.67	9.67	7.67	22.67	12.67	8.67	18.67
1378	87.896	25.67	2.33	7.33	1.33	12.33	13.33	17.33	-3.67	3.33	10.33	6.33	7.33	-1.67	8.33	7.33	4.33	2.33	9.33	8.33	7.33	10.33	6.33	8.33	1.33	22.33	4.33	5.33
1385	88.352	19.0	7.0	10.0	26.0	11.0	25.0	17.0	16.0	4.0	8.0	16.0	6.0	11.0	14.0	16.0	11.0	12.0	14.0	15.0	16.0	12.0	14.0	18.0	15.0	4.0	15.0	9.0
1392	88.808	21.67	11.33	14.33	11.33	12.33	18.33	3.33	18.33	2.33	9.33	14.33	18.33	9.33	9.33	7.33	17.33	21.33	0.33	2.33	11.33	13.33	4.33	16.33	12.33	8.33	-2.67	11.33
1399	89.264	22.67	15.33	14.33	10.33	5.33	12.33	5.33	14.33	8.33	5.33	6.33	10.33	8.33	6.33	4.33	10.33	5.33	0.33	7.33	11.33	10.33	5.33	4.33	15.33	15.33	11.33	5.33
1406	89.72	22.0	12.0	7.0	17.0	12.0	8.0	22.0	2.0	8.0	10.0	10.0	3.0	19.0	6.0	8.0	16.0	9.0	4.0	8.0	-4.0	0.0	6.0	13.0	0.0	17.0	9.0	10.0
1413	90.177	24.67	2.33	6.33	10.33	4.33	14.33	8.33	9.33	5.33	4.33	5.33	-5.67	6.33	10.33	14.33	-3.67	13.33	11.33	3.33	19.33	9.33	4.33	17.33	9.33	8.33	11.33	6.33
1420	90.634	22.0	5.0	1.0	9.0	17.0	8.0	8.0	24.0	10.0	8.0	22.0	8.0	9.0	9.0	4.0	1.0	10.0	8.0	10.0	11.0	12.0	2.0	9.0	25.0	9.0	10.0	16.0
1427	91.091	23.0	11.0	10.0	6.0	3.0	-1.0	11.0	19.0	15.0	11.0	0.0	12.0	13.0	8.0	10.0	17.0	19.0	21.0	15.0	16.0	20.0	6.0	14.0	6.0	7.0	5.0	8.0
1434	91.549	27.0	-2.0	9.0	1.0	7.0	4.0	8.0	7.0	11.0	9.0	14.0	13.0	11.0	8.0	12.0	8.0	3.0	10.0	16.0	3.0	16.0	12.0	5.0	15.0	-2.0	12.0	10.0
1441	92.006	25.0	-5.0	2.0	8.0	-1.0	9.0	4.0	3.0	15.0	-1.0	3.0	14.0	5.0	11.0	5.0	18.0	5.0	17.0	5.0	-2.0	17.0	17.0	19.0	17.0	19.0	4.0	7.0
1448	92.464	18.67	7.33	17.33	16.33	15.33	13.33	17.33	19.33	15.33	16.33	22.33	7.33	12.33	20.33	15.33	18.33	15.33	12.33	20.33	11.33	16.33	4.33	13.33	16.33	22.33	21.33	24.33
1455	92.922	25.0	-1.0	-2.0	5.0	-4.0	14.0	10.0	8.0	3.0	8.0	6.0	12.0	2.0	19.0	1.0	11.0	12.0	10.0	3.0	17.0	12.0	8.0	1.0	16.0	12.0	22.0	10.0
1462	93.38	27.67	2.33	-5.67	0.33	-1.67	8.33	12.33	-0.67	10.33	4.33	2.33	12.33	0.33	-3.67	11.33	6.33	8.33	-0.67	2.33	10.33	4.33	12.33	-4.67	3.33	2.33	-2.67	15.33
1469	93.839	29.0	0.0	-5.0	-9.0	-2.0	1.0	17.0	21.0	0.0	-1.0	-1.0	13.0	5.0	-2.0	0.0	5.0	16.0	0.0	-1.0	-1.0	-3.0	-3.0	4.0	16.0	-1.0	5.0	-1.0
1476	94.297	23.0	6.0	11.0	18.0	1.0	7.0	14.0	25.0	-1.0	16.0	6.0	9.0	12.0	5.0	12.0	12.0	15.0	18.0	10.0	11.0	15.0	13.0	8.0	9.0	4.0	10.0	9.0
1483	94.756	28.33	7.67	10.67	-4.33	-0.33	-3.33	2.67	2.67	2.67	0.67	0.67	10.67	-1.33	14.67	6.67	11.67	-6.33	1.67	7.67	18.67	2.67	0.67	1.67	14.67	8.67	8.67	5.67
1490	95.215	24.33	1.67	3.67	-1.33	11.67	7.67	6.67	15.67	5.67	19.67	8.67	7.67	19.67	10.67	16.67	4.67	9.67	-2.33	1.67	10.67	0.67	10.67	13.67	13.67	10.67	14.67	18.67
1497	95.675	31.0	-4.0	3.0	-3.0	12.0	4.0	11.0	8.0	1.0	6.0	1.0	9.0	13.0	14.0	9.0	4.0	12.0	3.0	5.0	15.0	6.0	13.0	6.0	0.0	8.0	5.0	17.0
1504	96.134	26.0	11.0	-1.0	7.0	3.0	10.0	12.0	8.0	8.0	11.0	15.0	22.0	39.0	15.0	12.0	12.0	11.0	3.0	19.0	18.0	5.0	19.0	22.0	29.0	7.0	15.0	11.0
1511	96.594	24.0	22.0	12.0	6.0	7.0	18.0	13.0	11.0	22.0	21.0	20.0	27.0	34.0	25.0	28.0	26.0	19.0	17.0	34.0	23.0	32.0	26.0	18.0	33.0	23.0	39.0	21.0
1518	97.054	24.0	19.0	19.0	12.0	7.0	14.0	6.0	17.0	15.0	24.0	39.0	31.0	44.0	43.0	31.0	26.0	37.0	26.0	25.0	39.0	21.0	18.0	35.0	26.0	44.0	31.0	36.0
1525	97.514	28.67	13.33	1.33	6.33	10.33	-0.67	14.33	12.33	20.33	38.33	19.33	33.33	44.33	40.33	29.33	27.33	18.33	39.33	35.33	25.33	18.33	23.33	23.33	13.33	21.33	40.33	33.33
1532	97.975	26.0	7.0	5.0	18.0	15.0	1.0	10.0	16.0	27.0	19.0	28.0	19.0	18.0	30.0	26.0	25.0	19.0	23.0	29.0	26.0	29.0	14.0	23.0	20.0	24.0	36.0	10.0
1539	98.436	26.33	12.67	8.67	4.67	10.67	8.67	10.67	10.67	8.67	13.67	18.67	5.67	17.67	18.67	32.67	7.67	17.67	17.67	6.67	23.67	16.67	8.67	23.67	20.67	18.67	8.67	11.67
1546	98.897	22.67	4.33	20.33	0.33	7.33	16.33	11.33	25.33	4.33	12.33	19.33	10.33	9.33	19.33	9.33	6.33	23.33	10.33	15.33	10.33	13.33	8.33	16.33	8.33	16.33	19.33	26.33
1553	99.358	30.0	-2.0	10.0	6.0	-1.0	12.0	1.0	1.0	19.0	16.0	7.0	7.0	11.0	8.0	6.0	15.0	11.0	8.0	0.0	5.0	10.0	6.0	10.0	7.0	-1.0	9.0	16.0
1560	99.82	33.0	-9.0	-4.0	4.0	-2.0	0.0	6.0	3.0	3.0	10.0	2.0	1.0	-1.0	8.0	2.0	-3.0	4.0	1.0	16.0	5.0	0.0	-3.0	13.0	2.0	5.0	0.0	14.0
1567	100.281	24.0	5.0	8.0	7.0	15.0	6.0	23.0	16.0	8.0	8.0	10.0	12.0	14.0	14.0	0.0	13.0	11.0	11.0	20.0	14.0	17.0	15.0	16.0	20.0	8.0	10.0	8.0
1574	100.743	28.67	-0.67	4.33	-3.67	8.33	10.33	9.33	10.33	7.33	4.33	-1.67	-7.67	2.33	7.33	5.33	7.33	14.33	4.33	-1.67	14.33	-2.67	-7.67	0.33	5.33	6.33	-2.67	7.33
1581	101.206	26.67	9.33	2.33	4.33	10.33	3.33	7.33	8.33	15.33	15.33	13.33	11.33	4.33	13.33	5.33	13.33	-0.67	9.33	22.33	2.33	-1.67	22.33	17.33	10.33	2.33	8.33	18.33
1588	101.668	32.33	6.67	3.67	0.67	11.67	2.67	-2.33	7.67	-3.33	13.67	1.67	-1.33	-1.33	1.67	5.67	2.67	-3.33	7.67	6.67	7.67	3.67	5.67	3.67	5.67	-1.33	0.67	2.67
1595	102.131	30.67	5.33	9.33	9.33	-4.67	15.33	14.33	10.33	12.33	7.33	10.33	3.33	11.33	5.33	2.33	3.33	16.33	7.33	9.33	20.33	-2.67	10.33	3.33	12.33	8.33	10.33	8.33
1602	102.594	24.67	17.33	15.33	22.33	11.33	15.33	20.33	15.33	2.33	10.33	12.33	17.33	10.33	16.33	15.33	10.33	10.33	9.33	9.33	30.33	2.33	6.33	9.33	20.33	13.33	7.33	10.33
1609	103.057	27.67	17.33	20.33	20.33	17.33	0.33	3.33	8.33	11.33	17.33	11.33	18.33	4.33	10.33	0.33	15.33	3.33	10.33	8.33	12.33	14.33	9.33	18.33	11.33	0.33	3.33	15.33
1616	103.521	26.67	-1.67	5.33	7.33	4.33	4.33	8.33	5.33	2.33	17.33	15.33	16.33	6.33	8.33	4.33	4.33	6.33	1.33	2.33	8.33	3.33	8.33	0.33	4.33	8.33	21.33	-1.67
1623	103.985	22.67	8.33	2.33	9.33	-2.67	5.33	3.33	16.33	0.33	14.33	3.33	8.33	18.33	-0.67	16.33	-0.67	4.33	17.33	13.33	14.33	9.33	20.33	19.33	17.33	13.33	5.33	9.33
1630	104.449	26.67	-9.67	8.33	0.33	8.33	8.33	-4.67	4.33	6.33	6.33	1.33	7.33	-8.67	4.33	-2.67	-4.67	5.33	9.33	10.33	7.33	8.33	7.33	4.33	6.33	-3.67	16.33	9.33
1637	104.913	26.67	-1.67	3.33	-4.67	0.33	-2.67	-0.67	3.33	-6.67	20.33	3.33	11.33	-1.67	2.33	-3.67	1.33	5.33	10.33	12.33	2.33	8.33	3.33	5.33	7.33	5.33	5.33	4.33
1644	105.378	31.0	-10.0	-8.0	-6.0	-2.0	-1.0	-10.0	-6.0	-2.0	-1.0	-3.0	-3.0	0.0	7.0	-7.0	1.0	-2.0	1.0	5.0	1.0	-1.0	10.0	-1.0	-3.0	0.0	2.0	4.0
1651	105.843	24.0	-5.0	6.0	12.0	0.0	4.0	4.0	8.0	-1.0	4.0	10.0	3.0	8.0	16.0	1.0	9.0	10.0	3.0	4.0	-2.0	12.0	9.0	-4.0	4.0	2.0	13.0	9.0
1658	106.308	30.67	-4.67	-10.67	-2.67	-6.67	1.33	8.33	-8.67	-3.67	-3.67	-5.67	-6.67	-4.67	-3.67	-9.67	-2.67	-1.67	6.33	-12.67	6.33	-9.67	-5.67	-5.67	-0.67	9.33	-0.67	0.33
1665	106.773	24.0	-5.0	4.0	12.0	2.0	-3.0	4.0	-4.0	8.0	-5.0	2.0	7.0	-3.0	-10.0	5.0	4.0	3.0	-3.0	5.0	3.0	-8.0	0.0	4.0	1.0	0.0	6.0	5.0
1672	107.239	27.0	5.0	-7.0	-2.0	2.0	-1.0	7.0	-2.0	4.0	-9.0	5.0	-3.0	1.0	-2.0	-5.0	-7.0	6.0	5.0	8.0	6.0	13.0	-3.0	-3.0	0.0	-5.0	1.0	2.0
1679	107.705	21.33	7.67	-5.33	9.67	6.67	-1.33	-0.33	4.67	-3.33	0.67	4.67	1.67	1.67	9.67	7.67	-1.33	-9.33	7.67	5.67	7.67	1.67	9.67	2.67	4.67	10.67	3.67	-2.33
1686	108.171	17.0	8.0	5.0	15.0	9.0	11.0	10.0	10.0	8.0	7.0	10.0	10.0	13.0	17.0	12.0	14.0	10.0	8.0	8.0	2.0	16.0	11.0	3.0	11.0	12.0	14.0	8.0
1693	108.638	20.67	16.33	6.33	-2.67	-1.67	-6.67	4.33	3.33	2.33	7.33	10.33	-2.67	5.33	4.33	7.33	5.33	-0.67	4.33	-0.67	6.33	10.33	-4.67	13.33	-2.67	3.33	3.33	0.33
1700	109.105	20.67	9.33	5.33	-5.67	1.33	14.33	4.33	10.33	-3.67	11.33	4.33	8.33	2.33	3.33	8.33	9.33	11.33	4.33	3.33	9.33	-1.67	11.33	10.33	2.33	5.33	2.33	20.33
1707	109.572	16.33	8.67	12.67	3.67	9.67	11.67	12.67	-1.33	2.67	9.67	-0.33	2.67	6.67	-2.33	7.67	13.67	3.67	7.67	0.67	9.67	14.67	9.67	5.67	1.67	10.67	4.67	8.67
1714	110.039	21.67	1.33	0.33	-3.67	8.33	3.33	5.33	0.33	10.33	5.33	0.33	8.33	0.33	5.33	-5.67	-1.67	-8.67	-3.67	9.33	1.33	0.33	-4.67	1.33	11.33	-1.67	1.33	4.33
1721	110.507	23.33	1.67	0.67	2.67	-6.33	-5.33	3.67	-4.33	-0.33	-2.33	7.67	-1.33	-1.33	-4.33	-1.33	7.67	-0.33	-1.33	-5.33	-2.33	3.67	7.67	9.67	-1.33	-3.33	0.67	0.67
1728	110.975	21.0	-3.0	6.0	7.0	-3.0	0.0	7.0	8.0	4.0	0.0	12.0	7.0	-4.0	7.0	-2.0	3.0	3.0	3.0	-1.0	0.0	-1.0	16.0	-1.0	-1.0	7.0	8.0	5.0
1735	111.443	20.33	4.67	8.67	0.67	-3.33	5.67	-1.33	10.67	6.67	2.67	6.67	5.67	5.67	-0.33	-1.33	8.67	6.67	9.67	6.67	-5.33	4.67	3.67	5.67	13.67	-1.33	6.67	0.67
1742	111.912	20.67	3.33	16.33	6.33	15.33	17.33	5.33	1.33	8.33	9.33	1.33	7.33	7.33	1.33	5.33	-1.67	1.33	-0.67	-0.67	8.33	9.33	3.33	9.33	8.33	7.33	2.33	3.33
1749	112.38	16.33	1.67	8.67	15.67	6.67	15.67	15.67	12.67	12.67	17.67	14.67	13.67	11.67	3.67	-0.33	4.67	11.67	9.67	14.67	0.67	0.67	-2.33	18.67	3.67	13.67	14.67	12.67
1756	112.85	18.0	9.0	4.0	4.0	7.0	6.0	8.0	15.0	13.0	6.0	1.0	5.0	7.0	6.0	8.0	13.0	0.0	7.0	6.0	3.0	6.0	4.0	8.0	3.0	11.0	9.0	8.0
1763	113.319	21.0	-9.0	9.0	8.0	3.0	6.0	4.0	1.0	7.0	-1.0	2.0	5.0	-3.0	3.0	3.0	0.0	1.0	7.0	8.0	7.0	5.0	2.0	8.0	0.0	-2.0	2.0	1.0
1770	113.789	20.67	-7.67	3.33	-0.67	-0.67	-5.67	3.33	3.33	-2.67	-1.67	3.33	4.33	0.33	-5.67	-7.67	-0.67	1.33	1.33	-2.67	-0.67	7.33	6.33	4.33	2.33	-0.67	8.33	-2.67
1777	114.259	19.67	-6.67	-4.67	0.33	-5.67	-1.67	2.33	-1.67	5.33	0.33	17.33	4.33	-5.67	-7.67	-1.67	-2.67	9.33	1.33	-7.67	4.33	-8.67	4.33	6.33	-1.67	-1.67	-1.67	5.33
1784	114.729	16.67	1.33	9.33	-3.67	-2.67	0.33	-2.67	-4.67	1.33	5.33	-0.67	2.33	-3.67	4.33	-1.67	-0.67	1.33	8.33	0.33	1.33	-5.67	10.33	1.33	4.33	12.33	2.33	-4.67
1791	115.2	12.67	11.33	1.33	2.33	6.33	11.33	6.33	8.33	11.33	-0.67	17.33	4.33	7.33	8.33	8.33	6.33	8.33	8.33	9.33	-1.67	10.33	8.33	1.33	1.33	11.33	16.33	3.33
1798	115.671	13.67	9.33	3.33	6.33	0.33	4.33	0.33	4.33	6.33	7.33	6.33	10.33	5.33	9.33	1.33	5.33	10.33	3.33	7.33	6.33	3.33	8.33	11.33	5.33	1.33	-0.67	9.33
1805	116.142	10.67	0.33	4.33	4.33	9.33	11.33	10.33	4.33	7.33	5.33	3.33	13.33	6.33	7.33	5.33	6.33	6.33	12.33	9.33	5.33	6.33	11.33	6.33	9.33	0.33	2.33	6.33
1812	116.614	16.0	-2.0	-2.0	-5.0	0.0	2.0	6.0	5.0	-5.0	-1.0	-1.0	0.0	-1.0	8.0	-7.0	10.0	0.0	3.0	5.0	2.0	3.0	4.0	-2.0	-3.0	3.0	2.0	-2.0
1819	117.086	15.0	-6.0	-3.0	-2.0	2.0	3.0	2.0	6.0	-1.0	-1.0	-3.0	3.0	1.0	10.0	4.0	2.0	6.0	3.0	-4.0	-1.0	0.0	2.0	0.0	0.0	11.0	7.0	5.0
1826	117.558	16.0	-4.0	4.0	3.0	-4.0	2.0	1.0	-4.0	1.0	-1.0	-1.0	-2.0	0.0	-8.0	-4.0	0.0	-6.0	7.0	-3.0	-2.0	6.0	2.0	3.0	3.0	0.0	2.0	10.0
1833	118.03	15.0	1.0	0.0	-6.0	-3.0	-1.0	-2.0	-1.0	-3.0	-2.0	11.0	2.0	6.0	4.0	0.0	-2.0	8.0	5.0	-4.0	-1.0	6.0	0.0	4.0	5.0	-6.0	2.0	8.0
1840	118.503	9.67	7.33	10.33	9.33	8.33	12.33	7.33	2.33	2.33	0.33	8.33	9.33	4.33	5.33	5.33	4.33	2.33	0.33	9.33	4.33	3.33	10.33	4.33	2.33	0.33	7.33	5.33
1847	118.976	11.33	5.67	-1.33	0.67	6.67	6.67	3.67	0.67	3.67	8.67	3.67	4.67	7.67	8.67	0.67	-1.33	-2.33	-0.33	-3.33	6.67	3.67	-1.33	4.67	3.67	8.67	13.67	-3.33
1854	119.45	13.0	6.0	5.0	1.0	6.0	1.0	5.0	-3.0	2.0	7.0	6.0	2.0	8.0	-4.0	0.0	0.0	7.0	3.0	3.0	-3.0	3.0	2.0	1.0	5.0	-2.0	7.0	-1.0
1861	119.924	12.33	1.67	-4.33	1.67	5.67	-5.33	4.67	3.67	13.67	-0.33	1.67	-5.33	6.67	-1.33	3.67	4.67	-0.33	0.67	4.67	-0.33	6.67	-6.33	1.67	5.67	-2.33	7.67	2.67
1868	120.398	9.33	6.67	-0.33	6.67	-0.33	9.67	9.67	3.67	6.67	3.67	9.67	-1.33	1.67	-4.33	3.67	5.67	6.67	7.67	5.67	3.67	6.67	4.67	0.67	9.67	3.67	8.67	9.67
1875	120.872	13.33	-3.33	2.67	-1.33	-1.33	-1.33	2.67	-4.33	-0.33	0.67	8.67	-1.33	-3.33	-0.33	6.67	4.67	1.67	-2.33	-5.33	4.67	6.67	-2.33	-1.33	-1.33	4.67	-4.33	5.67
1882	121.347	13.67	-3.67	-2.67	-4.67	0.33	-3.67	5.33	-0.67	-4.67	3.33	-7.67	1.33	1.33	-1.67	7.33	-4.67	-1.67	-0.67	6.33	-5.67	1.33	-1.67	1.33	-1.67	-0.67	2.33	1.33
1889	121.822	6.0	10.0	8.0	10.0	6.0	6.0	7.0	12.0	7.0	2.0	3.0	6.0	6.0	11.0	4.0	8.0	4.0	2.0	12.0	7.0	3.0	10.0	6.0	8.0	10.0	6.0	7.0
1896	122.298	11.0	10.0	0.0	7.0	2.0	2.0	2.0	5.0	6.0	2.0	-5.0	7.0	-3.0	-1.0	6.0	4.0	4.0	4.0	3.0	0.0	3.0	6.0	0.0	-1.0	0.0	6.0	0.0
1903	122.773	7.33	6.67	5.67	5.67	7.67	13.67	12.67	7.67	13.67	6.67	9.67	5.67	9.67	3.67	7.67	-1.33	9.67	7.67	4.67	7.67	7.67	4.67	7.67	4.67	11.67	11.67	7.67
1910	123.25	12.67	0.33	-1.67	3.33	-1.67	0.33	-2.67	4.33	5.33	-0.67	-1.67	2.33	0.33	-3.67	-0.67	10.33	-0.67	-1.67	13.33	0.33	8.33	-2.67	4.33	6.33	-0.67	10.33	4.33
1917	123.726	13.0	3.0	8.0	2.0	9.0	5.0	5.0	8.0	3.0	9.0	1.0	-6.0	-6.0	1.0	1.0	3.0	-3.0	2.0	3.0	3.0	0.0	3.0	2.0	-6.0	-1.0	-5.0	5.0
1924	124.203	7.0	7.0	10.0	7.0	10.0	7.0	1.0	13.0	4.0	8.0	0.0	4.0	3.0	1.0	3.0	13.0	13.0	5.0	2.0	6.0	5.0	12.0	8.0	7.0	3.0	1.0	8.0
1931	124.68	11.33	3.67	1.67	6.67	-3.33	7.67	4.67	-1.33	4.67	2.67	4.67	-5.33	-2.33	-2.33	2.67	-2.33	0.67	4.67	2.67	-0.33	4.67	-3.33	-1.33	4.67	5.67	5.67	-2.33
1938	125.158	8.67	-1.67	8.33	4.33	4.33	1.33	-1.67	1.33	1.33	-2.67	7.33	1.33	5.33	7.33	2.33	-1.67	2.33	8.33	3.33	3.33	-2.67	2.33	0.33	4.33	12.33	4.33	1.33
1945	125.635	11.0	-1.0	-2.0	2.0	-4.0	1.0	-4.0	5.0	-4.0	-1.0	-2.0	-2.0	-1.0	6.0	1.0	-5.0	-2.0	1.0	0.0	-4.0	-2.0	10.0	5.0	-2.0	1.0	5.0	4.0
1952	126.114	10.0	6.0	3.0	3.0	1.0	3.0	-2.0	4.0	1.0	1.0	-6.0	2.0	6.0	-3.0	2.0	3.0	3.0	0.0	0.0	14.0	10.0	3.0	5.0	3.0	4.0	-7.0	0.0
1959	126.592	8.0	-7.0	0.0	-4.0	-1.0	-1.0	1.0	4.0	1.0	1.0	4.0	4.0	10.0	1.0	5.0	9.0	4.0	2.0	1.0	10.0	8.0	-3.0	8.0	1.0	3.0	6.0	1.0
1966	127.071	9.67	-2.67	0.33	6.33	-2.67	0.33	2.33	-3.67	-3.67	2.33	0.33	-2.67	6.33	-0.67	-0.67	4.33	3.33	-4.67	3.33	1.33	3.33	2.33	0.33	-2.67	2.33	-1.67	4.33
1973	127.55	6.0	1.0	12.0	2.0	5.0	6.0	4.0	2.0	3.0	3.0	7.0	1.0	3.0	1.0	3.0	4.0	12.0	5.0	7.0	2.0	1.0	6.0	8.0	5.0	11.0	9.0	2.0
1980	128.03	9.33	4.67	-0.33	-6.33	-0.33	-0.33	-2.33	2.67	3.67	-0.33	-0.33	3.67	3.67	4.67	-0.33	-2.33	-3.33	-2.33	4.67	6.67	-0.33	-2.33	-0.33	-2.33	2.67	2.67	1.67
1987	128.51	10.33	-3.33	-4.33	-1.33	2.67	1.67	-1.33	-4.33	-5.33	-4.33	-2.33	1.67	-0.33	-2.33	-3.33	-0.33	0.67	1.67	3.67	-1.33	-3.33	4.67	5.67	-5.33	-0.33	1.67	1.67
1994	128.99	8.33	1.67	3.67	1.67	4.67	-4.33	4.67	3.67	-2.33	-3.33	2.67	1.67	2.67	1.67	1.67	0.67	-0.33	5.67	-0.33	2.67	7.67	1.67	-1.33	-0.33	0.67	1.67	0.67
2001	129.471	10.33	-1.33	-3.33	0.67	-5.33	-1.33	-1.33	-7.33	-2.33	-1.33	-3.33	1.67	5.67	-6.33	-5.33	-2.33	-0.33	0.67	2.67	-1.33	3.67	-0.33	-1.33	5.67	0.67	3.67	-0.33
2008	129.952	12.0	-4.0	-7.0	0.0	-3.0	0.0	1.0	-4.0	-1.0	0.0	-3.0	-4.0	-2.0	-5.0	-7.0	-2.0	-5.0	-3.0	-2.0	-2.0	1.0	-1.0	-5.0	-6.0	2.0	-5.0	-2.0
2015	130.433	11.67	-1.67	-4.67	-0.67	0.33	-2.67	-9.67	2.33	1.33	-4.67	-4.67	-2.67	-3.67	-5.67	-2.67	-1.67	-2.67	-5.67	2.33	-3.67	-2.67	2.33	-0.67	0.33	4.33	4.33	-2.67
2022	130.915	8.67	-0.67	3.33	5.33	0.33	8.33	5.33	-2.67	2.33	-1.67	-0.67	1.33	-1.67	-2.67	-3.67	3.33	1.33	0.33	5.33	1.33	-3.67	4.33	3.33	3.33	-0.67	-0.67	-2.67
2029	131.397	7.67	-3.67	-4.67	0.33	7.33	1.33	-2.67	-1.67	-2.67	-0.67	2.33	6.33	2.33	-0.67	1.33	-0.67	6.33	-1.67	-3.67	3.33	-0.67	5.33	1.33	0.33	0.33	1.33	0.33
2036	131.879	10.33	-4.33	-4.33	-0.33	0.67	-4.33	0.67	4.67	-4.33	-2.33	-4.33	-2.33	-1.33	-3.33	1.67	0.67	3.67	-1.33	0.67	-3.33	-1.33	-0.33	-3.33	-7.33	-1.33	-2.33	-1.33
2043	132.362	8.0	-1.0	-1.0	-2.0	0.0	-1.0	1.0	2.0	-3.0	-3.0	2.0	0.0	-4.0	7.0	0.0	-3.0	2.0	6.0	0.0	0.0	-1.0	8.0	-1.0	-1.0	1.0	-5.0	-2.0
2047	132.638	7.33	2.67	5.67	0.67	-2.33	0.67	5.67	4.67	2.67	-0.33	6.67	2.67	2.67	4.67	1.67	-1.33	-0.33	1.67	5.67	4.67	6.67	2.67	-1.33	3.67	0.67	6.67	-0.33