File: EDX Back Ups and Old Files/EDX Processed Data/High pH BL Ref.txt
Name: High pH BL Ref
Number of Scans: 29
Positions: [-13.0, -12.75, -12.5, -12.25, -12.0, -11.75, -11.5, -11.25, -11.0, -10.75, -10.5, -10.25, -10.0, -9.75, -9.5, -9.25, -9.0, -8.75, -8.5, -8.25, -8.0, -7.75, -7.5, -7.25, -7.0, -6.75, -6.5, -6.25, -6.0]
Points per Scan: 2048
Sample Edge: 3
Scans Off Sample: [0, 1, 2]
Conversion Features: [(275, 17444.3), (309, 19608.3), (913, 57981.7), (934, 59318.24), (1058, 67244.3)]
Degree of Fit: 3
Fit Coeffecients: [ 8.59183e-07 -0.001482  64.3003 -144.207]
pH: High
Steel Fiber: False
Aging Temp.: 25
Aging Atm.: 100% CO2
Aging Humidity: None
Aging Time: 0

*********
#Bins	Energy [keV]	Avg. Background	-12.25	-12.0	-11.75	-11.5	-11.25	-11.0	-10.75	-10.5	-10.25	-10.0	-9.75	-9.5	-9.25	-9.0	-8.75	-8.5	-8.25	-8.0	-7.75	-7.5	-7.25	-7.0	-6.75	-6.5	-6.25	-6.0
6	0.242	1864.67	61.33	19.33	-13.67	123.33	0.33	22.33	5.33	-57.67	148.33	144.33	62.33	11.33	73.33	30.33	127.33	83.33	19.33	-44.67	63.33	2.33	110.33	51.33	-25.67	19.33	-24.67	88.33
13	0.691	1250.33	-14.33	11.67	101.67	131.67	60.67	62.67	59.67	76.67	135.67	128.67	29.67	123.67	41.67	55.67	138.67	85.67	-24.33	72.67	18.67	53.67	55.67	97.67	58.67	22.67	44.67	126.67
20	1.141	328.0	21.0	19.0	6.0	-33.0	18.0	13.0	22.0	-4.0	21.0	8.0	12.0	18.0	-22.0	49.0	18.0	29.0	30.0	29.0	27.0	30.0	6.0	48.0	18.0	-32.0	-9.0	-6.0
27	1.591	57.33	-4.33	-2.33	-16.33	-10.33	-3.33	-0.33	-5.33	3.67	-11.33	-4.33	3.67	1.67	3.67	-6.33	-0.33	-2.33	-9.33	12.67	-1.33	6.67	1.67	2.67	-11.33	0.67	-1.33	-1.33
34	2.04	6.67	-3.67	-1.67	-1.67	-1.67	-1.67	-3.67	3.33	-0.67	-1.67	-2.67	6.33	3.33	0.33	2.33	0.33	5.33	-0.67	0.33	2.33	-0.67	1.33	0.33	-2.67	-1.67	1.33	0.33
41	2.49	0.33	1.67	1.67	-0.33	-0.33	1.67	2.67	-0.33	-0.33	0.67	0.67	-0.33	-0.33	-0.33	-0.33	-0.33	0.67	0.67	-0.33	0.67	0.67	0.67	0.67	0.67	-0.33	1.67	-0.33
48	2.939	1.0	-1.0	-1.0	-1.0	-1.0	-1.0	0.0	1.0	-1.0	-1.0	0.0	-1.0	1.0	-1.0	0.0	-1.0	-1.0	0.0	-1.0	-1.0	-1.0	-1.0	0.0	-1.0	-1.0	-1.0	-1.0
55	3.388	0.0	0.0	0.0	0.0	0.0	1.0	0.0	0.0	0.0	0.0	0.0	1.0	1.0	0.0	0.0	0.0	0.0	0.0	0.0	1.0	0.0	0.0	1.0	0.0	0.0	0.0	0.0
62	3.837	0.0	2.0	1.0	0.0	2.0	0.0	0.0	0.0	0.0	0.0	0.0	1.0	1.0	1.0	0.0	2.0	1.0	1.0	1.0	1.0	1.0	0.0	0.0	1.0	0.0	0.0	0.0
69	4.286	0.33	0.67	-0.33	-0.33	-0.33	-0.33	1.67	1.67	-0.33	-0.33	-0.33	0.67	0.67	-0.33	-0.33	-0.33	-0.33	0.67	0.67	-0.33	-0.33	0.67	-0.33	-0.33	0.67	0.67	-0.33
76	4.734	0.0	0.0	0.0	0.0	1.0	0.0	0.0	0.0	3.0	0.0	0.0	0.0	0.0	0.0	1.0	0.0	2.0	0.0	1.0	0.0	0.0	1.0	1.0	0.0	1.0	0.0	1.0
83	5.183	0.67	0.33	-0.67	-0.67	-0.67	-0.67	-0.67	-0.67	0.33	-0.67	-0.67	-0.67	-0.67	0.33	0.33	0.33	1.33	-0.67	-0.67	-0.67	-0.67	-0.67	-0.67	-0.67	-0.67	0.33	0.33
90	5.631	0.67	-0.67	-0.67	0.33	0.33	0.33	1.33	1.33	0.33	1.33	0.33	0.33	-0.67	-0.67	0.33	0.33	-0.67	1.33	0.33	-0.67	-0.67	0.33	-0.67	1.33	-0.67	0.33	-0.67
97	6.08	1.33	0.67	-0.33	-1.33	-1.33	0.67	0.67	-1.33	0.67	-1.33	-0.33	-0.33	-1.33	-1.33	-1.33	-1.33	0.67	0.67	-1.33	-0.33	-0.33	0.67	-1.33	-0.33	0.67	-1.33	-0.33
104	6.528	0.33	2.67	0.67	0.67	-0.33	0.67	0.67	1.67	1.67	-0.33	0.67	0.67	-0.33	2.67	1.67	0.67	-0.33	2.67	1.67	1.67	0.67	2.67	0.67	0.67	-0.33	0.67	1.67
111	6.976	2.33	-0.33	-1.33	1.67	-0.33	-0.33	-1.33	-0.33	2.67	-0.33	0.67	-1.33	-1.33	-0.33	1.67	1.67	-0.33	1.67	-0.33	-0.33	0.67	0.67	-1.33	0.67	0.67	-2.33	-0.33
118	7.424	3.0	1.0	-2.0	-2.0	-2.0	-1.0	3.0	0.0	1.0	-2.0	4.0	-1.0	-3.0	-1.0	2.0	0.0	3.0	2.0	-2.0	0.0	1.0	1.0	0.0	-2.0	2.0	2.0	0.0
125	7.872	2.33	7.67	2.67	1.67	0.67	2.67	0.67	3.67	3.67	-2.33	4.67	1.67	1.67	4.67	1.67	0.67	0.67	4.67	-0.33	6.67	1.67	8.67	2.67	5.67	4.67	5.67	3.67
132	8.32	7.67	-2.67	-0.67	-1.67	-2.67	-1.67	-0.67	1.33	-1.67	-2.67	-0.67	-2.67	4.33	-1.67	-2.67	3.33	1.33	-0.67	4.33	-3.67	2.33	0.33	0.33	1.33	3.33	-1.67	1.33
139	8.767	5.0	3.0	-2.0	2.0	4.0	3.0	3.0	2.0	5.0	2.0	4.0	1.0	3.0	4.0	6.0	8.0	10.0	2.0	6.0	0.0	1.0	5.0	2.0	4.0	4.0	-2.0	9.0
146	9.215	10.33	0.67	-0.33	1.67	-5.33	4.67	-4.33	5.67	-4.33	-1.33	-1.33	-2.33	-3.33	3.67	3.67	3.67	1.67	0.67	-5.33	-3.33	-2.33	0.67	8.67	0.67	0.67	8.67	-0.33
153	9.662	10.33	2.67	3.67	-0.33	-1.33	-6.33	0.67	-2.33	-6.33	-0.33	-4.33	-1.33	3.67	-0.33	-0.33	6.67	-0.33	2.67	-4.33	-0.33	-4.33	-0.33	4.67	-0.33	-0.33	1.67	1.67
160	10.109	11.33	2.67	-0.33	-5.33	-4.33	1.67	4.67	3.67	4.67	-0.33	3.67	1.67	-1.33	-3.33	3.67	2.67	1.67	-3.33	-1.33	3.67	1.67	0.67	-1.33	-0.33	3.67	2.67	-3.33
167	10.557	12.33	-0.33	-4.33	-2.33	-4.33	0.67	-1.33	-5.33	-3.33	-3.33	0.67	4.67	-2.33	-2.33	-0.33	-1.33	-8.33	0.67	2.67	-1.33	0.67	-5.33	-2.33	-7.33	5.67	0.67	0.67
174	11.004	9.67	0.33	4.33	3.33	4.33	-1.67	5.33	4.33	2.33	5.33	1.33	1.33	-1.67	-2.67	3.33	7.33	3.33	1.33	-2.67	5.33	-0.67	0.33	1.33	3.33	0.33	-0.67	9.33
181	11.451	10.0	-4.0	2.0	6.0	10.0	2.0	-1.0	1.0	9.0	0.0	-1.0	-2.0	6.0	-3.0	1.0	-1.0	3.0	8.0	10.0	3.0	1.0	2.0	-4.0	6.0	-4.0	0.0	-6.0
188	11.898	17.33	-3.33	-5.33	-6.33	0.67	-8.33	1.67	-12.33	-8.33	-2.33	-13.33	-6.33	0.67	2.67	-6.33	-8.33	-7.33	-6.33	-6.33	-5.33	-2.33	-3.33	-10.33	7.67	-6.33	-4.33	-6.33
195	12.344	11.33	-1.33	0.67	0.67	2.67	-3.33	2.67	-0.33	-3.33	9.67	8.67	-2.33	-1.33	-0.33	-1.33	-1.33	2.67	-3.33	-5.33	2.67	1.67	2.67	-3.33	-1.33	-1.33	0.67	1.67
202	12.791	5.67	4.33	5.33	7.33	5.33	1.33	2.33	4.33	9.33	5.33	12.33	11.33	5.33	14.33	6.33	7.33	10.33	10.33	10.33	3.33	6.33	16.33	1.33	8.33	5.33	8.33	10.33
209	13.238	10.33	-3.33	-1.33	1.67	-3.33	4.67	-0.33	-2.33	4.67	1.67	-3.33	4.67	3.67	-3.33	0.67	-1.33	2.67	4.67	-0.33	5.67	2.67	-0.33	1.67	2.67	-1.33	4.67	5.67
216	13.684	10.33	0.67	-2.33	2.67	-0.33	2.67	-5.33	0.67	2.67	0.67	2.67	4.67	-2.33	-3.33	5.67	-3.33	-0.33	1.67	0.67	3.67	0.67	-1.33	3.67	1.67	11.67	0.67	0.67
223	14.131	9.33	2.67	6.67	1.67	6.67	-1.33	0.67	-1.33	4.67	-4.33	4.67	1.67	6.67	5.67	0.67	-0.33	2.67	-0.33	5.67	3.67	9.67	-1.33	1.67	4.67	-2.33	4.67	1.67
230	14.577	9.67	6.33	6.33	-2.67	2.33	-4.67	-2.67	1.33	8.33	-1.67	-1.67	5.33	-3.67	5.33	-3.67	3.33	7.33	0.33	3.33	3.33	2.33	0.33	1.33	3.33	2.33	-0.67	-0.67
237	15.023	10.33	-2.33	-1.33	-2.33	4.67	0.67	0.67	3.67	0.67	-1.33	3.67	3.67	8.67	-5.33	-4.33	-0.33	1.67	-1.33	-0.33	-0.33	3.67	3.67	7.67	3.67	2.67	3.67	7.67
244	15.469	11.33	-0.33	2.67	-0.33	0.67	2.67	-4.33	6.67	-4.33	5.67	-1.33	2.67	2.67	-1.33	3.67	1.67	3.67	-4.33	2.67	3.67	8.67	-1.33	-1.33	1.67	0.67	7.67	-0.33
251	15.915	8.0	-1.0	3.0	6.0	2.0	4.0	0.0	9.0	1.0	1.0	4.0	4.0	5.0	1.0	2.0	1.0	3.0	10.0	3.0	4.0	7.0	7.0	15.0	3.0	-1.0	6.0	3.0
258	16.361	9.0	1.0	0.0	10.0	5.0	11.0	5.0	-1.0	1.0	-2.0	6.0	2.0	-2.0	3.0	2.0	3.0	7.0	7.0	-1.0	-3.0	6.0	4.0	-1.0	-1.0	5.0	1.0	1.0
265	16.807	10.33	-1.33	1.67	2.67	-5.33	4.67	-1.33	3.67	4.67	0.67	-2.33	1.67	3.67	3.67	-4.33	0.67	5.67	-0.33	1.67	5.67	-1.33	-2.33	6.67	-3.33	-3.33	8.67	5.67
272	17.253	10.67	1.33	-4.67	-2.67	2.33	0.33	-5.67	2.33	4.33	0.33	-0.67	-1.67	-0.67	4.33	-3.67	3.33	-0.67	1.33	2.33	2.33	2.33	-1.67	0.33	4.33	-0.67	-1.67	3.33
279	17.699	9.67	0.33	2.33	-1.67	-2.67	3.33	-0.67	-1.67	2.33	7.33	3.33	-2.67	8.33	9.33	3.33	-0.67	-1.67	2.33	1.33	7.33	-1.67	4.33	4.33	5.33	3.33	-4.67	1.33
286	18.145	7.67	2.33	4.33	3.33	5.33	6.33	2.33	7.33	4.33	-0.67	3.33	1.33	9.33	2.33	5.33	3.33	3.33	4.33	8.33	2.33	1.33	0.33	2.33	7.33	7.33	3.33	11.33
293	18.59	10.0	-1.0	-5.0	2.0	3.0	5.0	0.0	1.0	2.0	0.0	1.0	2.0	0.0	4.0	1.0	5.0	3.0	4.0	3.0	8.0	8.0	0.0	6.0	1.0	-1.0	-3.0	3.0
300	19.036	11.67	-2.67	-1.67	0.33	-5.67	-6.67	-1.67	-0.67	4.33	0.33	0.33	-4.67	-2.67	-1.67	-4.67	-5.67	3.33	-0.67	0.33	6.33	2.33	2.33	1.33	-2.67	-3.67	-3.67	5.33
307	19.481	7.0	2.0	8.0	4.0	4.0	0.0	4.0	2.0	3.0	-1.0	10.0	0.0	7.0	1.0	5.0	8.0	2.0	2.0	6.0	4.0	6.0	3.0	1.0	1.0	-1.0	7.0	2.0
314	19.927	7.67	2.33	3.33	3.33	2.33	7.33	5.33	4.33	3.33	7.33	4.33	2.33	-0.67	10.33	-0.67	2.33	0.33	1.33	0.33	8.33	8.33	-0.67	-0.67	2.33	6.33	3.33	4.33
321	20.372	8.67	1.33	-1.67	2.33	6.33	-4.67	-3.67	0.33	-2.67	10.33	4.33	2.33	-1.67	1.33	2.33	6.33	1.33	0.33	3.33	0.33	0.33	2.33	8.33	9.33	1.33	1.33	4.33
328	20.817	9.33	-0.33	-1.33	-6.33	-5.33	-0.33	1.67	-3.33	2.67	-0.33	1.67	3.67	3.67	-1.33	-1.33	0.67	-1.33	1.67	5.67	-2.33	0.67	4.67	4.67	2.67	2.67	6.67	-0.33
335	21.262	7.67	12.33	3.33	13.33	3.33	-1.67	1.33	2.33	3.33	-0.67	-1.67	4.33	1.33	7.33	3.33	-1.67	2.33	-2.67	4.33	3.33	4.33	12.33	12.33	6.33	3.33	-3.67	4.33
342	21.708	3.33	0.67	5.67	3.67	11.67	5.67	3.67	6.67	7.67	3.67	4.67	1.67	3.67	12.67	6.67	2.67	5.67	9.67	8.67	3.67	3.67	10.67	6.67	6.67	7.67	13.67	1.67
349	22.153	9.0	0.0	0.0	-3.0	-1.0	6.0	0.0	-1.0	1.0	2.0	2.0	-3.0	2.0	1.0	3.0	0.0	-1.0	5.0	2.0	9.0	4.0	0.0	7.0	2.0	4.0	5.0	2.0
356	22.598	9.33	0.67	5.67	0.67	5.67	-0.33	-1.33	-2.33	2.67	2.67	6.67	1.67	-1.33	0.67	-0.33	4.67	6.67	2.67	5.67	2.67	3.67	0.67	6.67	-0.33	2.67	-3.33	4.67
363	23.043	5.67	-0.67	10.33	2.33	3.33	5.33	0.33	4.33	2.33	6.33	3.33	4.33	3.33	6.33	1.33	0.33	4.33	2.33	2.33	5.33	4.33	1.33	7.33	5.33	2.33	8.33	1.33
370	23.488	6.67	0.33	2.33	-4.67	1.33	-2.67	2.33	5.33	5.33	6.33	2.33	-1.67	10.33	1.33	5.33	5.33	3.33	3.33	1.33	8.33	3.33	1.33	2.33	6.33	4.33	1.33	2.33
377	23.932	9.0	0.0	3.0	6.0	0.0	1.0	3.0	-2.0	3.0	-4.0	1.0	5.0	-4.0	1.0	5.0	1.0	3.0	2.0	-1.0	6.0	7.0	0.0	-3.0	-3.0	2.0	4.0	1.0
384	24.377	8.33	-0.33	0.67	-2.33	-0.33	-2.33	2.67	-6.33	0.67	0.67	-5.33	2.67	3.67	3.67	1.67	9.67	1.67	3.67	3.67	-2.33	3.67	5.67	4.67	10.67	4.67	3.67	1.67
391	24.822	9.0	2.0	0.0	-1.0	-1.0	-2.0	-1.0	1.0	6.0	4.0	0.0	-5.0	-1.0	-3.0	0.0	-4.0	5.0	-3.0	5.0	4.0	3.0	0.0	2.0	0.0	-1.0	-6.0	4.0
398	25.267	9.33	-2.33	-1.33	1.67	2.67	0.67	0.67	-0.33	-1.33	-2.33	-3.33	-0.33	-0.33	-0.33	-4.33	0.67	-3.33	-6.33	-3.33	-1.33	5.67	3.67	-2.33	-4.33	0.67	3.67	4.67
405	25.711	8.67	-3.67	0.33	-1.67	-0.67	-1.67	4.33	3.33	2.33	-1.67	3.33	-1.67	2.33	2.33	-0.67	-1.67	3.33	-1.67	1.33	4.33	3.33	-1.67	1.33	3.33	2.33	6.33	-0.67
412	26.156	7.0	-3.0	2.0	3.0	-1.0	4.0	3.0	-3.0	0.0	5.0	3.0	5.0	5.0	3.0	0.0	3.0	3.0	4.0	-1.0	-1.0	2.0	6.0	7.0	-2.0	3.0	-1.0	8.0
419	26.601	4.0	4.0	9.0	6.0	5.0	2.0	1.0	4.0	3.0	5.0	2.0	10.0	4.0	1.0	6.0	10.0	3.0	8.0	5.0	5.0	6.0	5.0	1.0	3.0	11.0	6.0	0.0
426	27.045	5.33	2.67	-0.33	-1.33	5.67	4.67	3.67	2.67	0.67	1.67	4.67	8.67	3.67	1.67	7.67	4.67	8.67	4.67	7.67	3.67	4.67	-0.33	-0.33	4.67	9.67	4.67	3.67
433	27.49	6.0	-4.0	-3.0	0.0	-1.0	-3.0	7.0	2.0	1.0	4.0	-3.0	1.0	7.0	7.0	4.0	5.0	0.0	-2.0	-4.0	3.0	4.0	-2.0	2.0	4.0	8.0	3.0	3.0
440	27.934	6.0	2.0	6.0	2.0	5.0	-1.0	0.0	0.0	3.0	3.0	6.0	1.0	2.0	1.0	2.0	2.0	4.0	3.0	-1.0	1.0	-2.0	6.0	1.0	-2.0	5.0	4.0	-2.0
447	28.379	8.0	-3.0	-1.0	-5.0	0.0	0.0	1.0	-2.0	-3.0	-2.0	3.0	0.0	3.0	-3.0	-4.0	2.0	-1.0	3.0	1.0	-4.0	-4.0	0.0	2.0	0.0	-3.0	4.0	0.0
454	28.823	6.67	0.33	0.33	-1.67	1.33	-0.67	-1.67	3.33	4.33	2.33	-0.67	-1.67	-1.67	1.33	-0.67	2.33	5.33	5.33	0.33	0.33	2.33	-1.67	0.33	3.33	-0.67	-0.67	2.33
461	29.267	8.67	-3.67	-2.67	-4.67	0.33	-0.67	0.33	-2.67	-2.67	-1.67	-3.67	-2.67	-1.67	8.33	-0.67	-1.67	2.33	0.33	2.33	-2.67	1.33	0.33	-2.67	-5.67	-2.67	-0.67	-2.67
468	29.712	5.67	0.33	-0.67	0.33	1.33	-1.67	0.33	2.33	2.33	3.33	-0.67	1.33	-0.67	3.33	0.33	7.33	6.33	-1.67	-2.67	-3.67	0.33	0.33	1.33	2.33	3.33	3.33	1.33
475	30.156	6.33	-1.33	2.67	-0.33	0.67	6.67	-4.33	3.67	-5.33	5.67	3.67	1.67	0.67	-1.33	-0.33	-2.33	1.67	-4.33	1.67	-0.33	4.67	-2.33	4.67	3.67	4.67	2.67	1.67
482	30.6	4.33	-1.33	1.67	1.67	0.67	4.67	6.67	-1.33	2.67	1.67	1.67	3.67	1.67	-0.33	5.67	4.67	1.67	-1.33	2.67	2.67	1.67	5.67	2.67	-2.33	1.67	5.67	-0.33
489	31.045	6.0	2.0	-4.0	3.0	-2.0	3.0	1.0	-1.0	3.0	4.0	1.0	0.0	2.0	2.0	2.0	2.0	5.0	0.0	5.0	3.0	0.0	1.0	1.0	1.0	2.0	-1.0	-2.0
496	31.489	4.67	4.33	5.33	5.33	2.33	0.33	0.33	-1.67	2.33	-0.67	3.33	6.33	1.33	4.33	0.33	5.33	-0.67	0.33	2.33	2.33	-2.67	1.33	6.33	8.33	3.33	-0.67	5.33
503	31.933	4.67	-0.67	2.33	3.33	1.33	2.33	5.33	2.33	5.33	1.33	-1.67	2.33	-3.67	6.33	3.33	4.33	0.33	1.33	7.33	4.33	5.33	1.33	-0.67	-2.67	1.33	3.33	4.33
510	32.377	7.0	0.0	-1.0	1.0	-3.0	-3.0	2.0	-1.0	0.0	0.0	0.0	-1.0	-4.0	-1.0	-3.0	-1.0	3.0	0.0	-2.0	0.0	6.0	-4.0	-2.0	-5.0	1.0	-2.0	-1.0
517	32.822	5.0	1.0	4.0	1.0	-3.0	0.0	0.0	0.0	3.0	-1.0	3.0	1.0	-1.0	8.0	0.0	-2.0	4.0	5.0	2.0	-1.0	2.0	-1.0	6.0	-1.0	-2.0	0.0	-2.0
524	33.266	4.0	5.0	1.0	6.0	4.0	-1.0	0.0	3.0	2.0	3.0	2.0	7.0	0.0	2.0	-1.0	4.0	5.0	-3.0	4.0	5.0	9.0	7.0	1.0	5.0	2.0	1.0	1.0
531	33.71	3.67	1.33	3.33	0.33	4.33	-0.67	0.33	6.33	2.33	1.33	2.33	7.33	3.33	-0.67	3.33	2.33	2.33	2.33	4.33	4.33	1.33	-0.67	0.33	1.33	2.33	10.33	4.33
538	34.154	6.0	-1.0	-2.0	0.0	-2.0	3.0	-1.0	2.0	-2.0	-1.0	-2.0	-1.0	0.0	2.0	4.0	-2.0	3.0	0.0	0.0	-1.0	2.0	-1.0	0.0	-1.0	9.0	-1.0	3.0
545	34.598	7.33	-4.33	-5.33	-1.33	-3.33	-2.33	-5.33	-1.33	-2.33	-2.33	-5.33	-0.33	-3.33	0.67	1.67	-1.33	-3.33	-5.33	0.67	-4.33	-3.33	1.67	-2.33	-1.33	1.67	3.67	-0.33
552	35.043	5.33	-2.33	0.67	0.67	1.67	0.67	-1.33	-3.33	-0.33	3.67	-2.33	1.67	-2.33	3.67	0.67	-1.33	-0.33	0.67	0.67	-2.33	0.67	1.67	0.67	-1.33	-1.33	4.67	-1.33
559	35.487	5.33	-3.33	2.67	-3.33	1.67	1.67	0.67	2.67	1.67	-1.33	2.67	-2.33	-0.33	1.67	-1.33	-2.33	-0.33	1.67	1.67	0.67	-0.33	-1.33	-0.33	-0.33	1.67	-4.33	-0.33
566	35.931	3.67	5.33	0.33	0.33	3.33	4.33	-0.67	2.33	4.33	-1.67	2.33	3.33	-1.67	2.33	0.33	9.33	-1.67	2.33	2.33	5.33	3.33	4.33	-0.67	0.33	-0.67	2.33	2.33
573	36.375	5.0	-3.0	-1.0	0.0	-1.0	0.0	-2.0	0.0	-1.0	4.0	-2.0	3.0	7.0	-5.0	6.0	3.0	4.0	-1.0	1.0	6.0	0.0	-2.0	3.0	0.0	-1.0	0.0	-1.0
580	36.819	6.0	-3.0	0.0	-2.0	0.0	0.0	1.0	-1.0	4.0	-3.0	1.0	-1.0	1.0	-1.0	-2.0	-2.0	-2.0	-2.0	0.0	1.0	-1.0	-4.0	-1.0	1.0	3.0	1.0	5.0
587	37.263	6.0	-2.0	1.0	3.0	0.0	-2.0	-2.0	-2.0	-1.0	-1.0	-2.0	2.0	-2.0	-2.0	4.0	-4.0	-1.0	-1.0	5.0	-2.0	3.0	-4.0	3.0	0.0	-2.0	-2.0	-4.0
594	37.707	6.0	-5.0	-2.0	0.0	-3.0	-1.0	-1.0	0.0	0.0	-2.0	-1.0	3.0	1.0	-2.0	4.0	-3.0	-2.0	-3.0	-2.0	-3.0	3.0	-2.0	-1.0	2.0	3.0	1.0	-1.0
601	38.152	6.0	-1.0	1.0	-2.0	-2.0	0.0	-1.0	1.0	0.0	-3.0	1.0	-2.0	0.0	-3.0	3.0	0.0	-2.0	-1.0	2.0	-2.0	-2.0	-2.0	1.0	2.0	-2.0	1.0	1.0
608	38.596	4.0	4.0	3.0	4.0	-1.0	2.0	1.0	-1.0	2.0	0.0	3.0	1.0	-2.0	4.0	2.0	0.0	3.0	-1.0	0.0	4.0	0.0	2.0	0.0	2.0	-3.0	7.0	-4.0
615	39.04	5.0	5.0	3.0	1.0	2.0	2.0	2.0	0.0	0.0	1.0	-1.0	-5.0	2.0	0.0	3.0	4.0	1.0	1.0	1.0	1.0	8.0	3.0	2.0	0.0	0.0	1.0	2.0
622	39.484	6.33	-1.33	-2.33	-0.33	0.67	0.67	-5.33	-2.33	-1.33	-3.33	-2.33	3.67	0.67	-0.33	-0.33	0.67	1.67	-3.33	-2.33	-3.33	1.67	-2.33	-4.33	-2.33	-4.33	-4.33	-4.33
629	39.928	4.67	3.33	2.33	0.33	1.33	-3.67	-0.67	0.33	0.33	-0.67	1.33	0.33	-2.67	-0.67	-0.67	-1.67	-1.67	0.33	1.33	-0.67	3.33	3.33	2.33	0.33	1.33	-0.67	0.33
636	40.372	6.0	2.0	1.0	-1.0	0.0	0.0	-3.0	-1.0	-4.0	1.0	-1.0	1.0	-4.0	-4.0	3.0	0.0	-5.0	2.0	-1.0	6.0	-3.0	2.0	-1.0	1.0	-2.0	-3.0	-1.0
643	40.817	6.33	0.67	-3.33	2.67	-3.33	-0.33	5.67	-2.33	-0.33	-0.33	-3.33	0.67	0.67	2.67	-1.33	2.67	-2.33	-2.33	-2.33	-0.33	-1.33	1.67	-1.33	1.67	1.67	0.67	-4.33
650	41.261	4.67	-0.67	2.33	0.33	4.33	0.33	-0.67	0.33	3.33	0.33	5.33	3.33	1.33	1.33	1.33	2.33	1.33	4.33	1.33	0.33	2.33	5.33	3.33	0.33	-1.67	-0.67	-0.67
657	41.705	9.67	-3.67	0.33	0.33	0.33	-2.67	-3.67	-6.67	1.33	-1.67	-7.67	-4.67	-0.67	-1.67	-3.67	0.33	-4.67	-2.67	-2.67	-5.67	-4.67	-5.67	-2.67	-5.67	-3.67	-4.67	-5.67
664	42.149	5.33	-0.33	-0.33	0.67	1.67	-1.33	0.67	-1.33	0.67	3.67	-1.33	4.67	0.67	4.67	1.67	-1.33	8.67	-1.33	0.67	-1.33	-3.33	-2.33	-3.33	0.67	0.67	-0.33	3.67
671	42.594	9.0	-3.0	-3.0	1.0	0.0	-5.0	-4.0	0.0	-5.0	-6.0	-6.0	-3.0	-8.0	-4.0	-6.0	-1.0	-2.0	-7.0	-5.0	0.0	-1.0	0.0	-3.0	-5.0	-5.0	-5.0	-3.0
678	43.038	6.33	-2.33	0.67	4.67	1.67	-4.33	-0.33	-2.33	1.67	-0.33	-0.33	-3.33	-2.33	-0.33	-0.33	1.67	-0.33	-1.33	1.67	0.67	-1.33	1.67	-0.33	-3.33	0.67	3.67	0.67
685	43.482	6.33	-5.33	-3.33	1.67	-2.33	-1.33	0.67	-2.33	3.67	-1.33	-0.33	1.67	2.67	0.67	0.67	1.67	-2.33	-0.33	-0.33	-0.33	-0.33	3.67	0.67	1.67	1.67	-5.33	1.67
692	43.927	6.33	2.67	-1.33	3.67	-4.33	-1.33	-0.33	4.67	-4.33	3.67	7.67	0.67	-1.33	1.67	7.67	1.67	-1.33	-0.33	3.67	-1.33	1.67	-1.33	-2.33	-0.33	1.67	-1.33	-0.33
699	44.371	10.33	-3.33	-8.33	-4.33	-4.33	-2.33	-6.33	1.67	1.67	-7.33	-0.33	-6.33	-2.33	-4.33	-0.33	-4.33	-1.33	-4.33	-4.33	-0.33	-2.33	-2.33	-6.33	-6.33	-4.33	-5.33	-7.33
706	44.815	8.0	2.0	1.0	2.0	4.0	-1.0	-2.0	2.0	-1.0	1.0	3.0	1.0	-1.0	-4.0	0.0	-3.0	-2.0	4.0	-1.0	-2.0	-4.0	-1.0	-2.0	-1.0	0.0	-3.0	1.0
713	45.26	8.67	6.33	-0.67	-0.67	0.33	3.33	-6.67	-4.67	4.33	3.33	0.33	-2.67	4.33	0.33	1.33	2.33	-1.67	-1.67	-2.67	-5.67	4.33	-4.67	-0.67	-0.67	-2.67	-7.67	-0.67
720	45.704	10.33	0.67	-0.33	-0.33	-2.33	-2.33	-5.33	-6.33	2.67	-5.33	-1.33	-6.33	-3.33	-2.33	-1.33	3.67	-4.33	-1.33	-5.33	-7.33	-1.33	2.67	-4.33	4.67	-0.33	-3.33	0.67
727	46.149	10.0	-6.0	1.0	-4.0	-4.0	-4.0	-5.0	-3.0	-3.0	-3.0	-5.0	-9.0	-2.0	-4.0	-2.0	-1.0	-3.0	-5.0	0.0	-4.0	-6.0	2.0	0.0	-6.0	-3.0	-1.0	-5.0
734	46.594	8.0	2.0	1.0	1.0	1.0	-1.0	2.0	1.0	-1.0	-2.0	1.0	-1.0	-3.0	-3.0	4.0	1.0	0.0	-1.0	-3.0	-3.0	2.0	5.0	3.0	-4.0	-2.0	6.0	-1.0
741	47.038	8.0	-3.0	-1.0	6.0	0.0	3.0	-2.0	1.0	2.0	-2.0	-3.0	2.0	-5.0	-2.0	3.0	-1.0	0.0	-5.0	0.0	-1.0	0.0	1.0	2.0	-3.0	-4.0	2.0	2.0
748	47.483	9.33	1.67	1.67	-0.33	-4.33	-0.33	-4.33	-4.33	-2.33	-3.33	3.67	-6.33	0.67	-3.33	-1.33	-0.33	-0.33	-4.33	-3.33	-0.33	-0.33	1.67	1.67	0.67	-4.33	-0.33	-5.33
755	47.928	10.67	5.33	-2.67	-3.67	-4.67	-3.67	-4.67	-2.67	1.33	1.33	-6.67	-6.67	-2.67	0.33	-3.67	1.33	-6.67	-4.67	-7.67	-2.67	3.33	-1.67	-5.67	-0.67	-2.67	-6.67	-1.67
762	48.372	10.33	-2.33	-2.33	-6.33	-5.33	1.67	1.67	-3.33	3.67	-4.33	3.67	0.67	-0.33	-5.33	-2.33	-3.33	-2.33	-2.33	-1.33	-4.33	-0.33	-0.33	-5.33	-0.33	-3.33	4.67	-0.33
769	48.817	10.67	2.33	-0.67	-0.67	-4.67	0.33	-0.67	2.33	2.33	-2.67	-4.67	3.33	-5.67	-5.67	-2.67	-5.67	5.33	-2.67	-0.67	-0.67	-2.67	-3.67	5.33	-4.67	-1.67	2.33	-2.67
776	49.262	14.33	-1.33	-6.33	-8.33	-3.33	-2.33	-6.33	-2.33	-4.33	-4.33	-7.33	-9.33	-9.33	-7.33	-6.33	-4.33	-6.33	-4.33	-1.33	-4.33	-0.33	-5.33	-5.33	-1.33	-8.33	-6.33	-9.33
783	49.707	12.67	-4.67	-3.67	2.33	1.33	-3.67	3.33	3.33	-2.67	-1.67	-7.67	-2.67	-1.67	-0.67	2.33	-1.67	-7.67	-8.67	-2.67	-1.67	-3.67	-5.67	-3.67	3.33	-9.67	5.33	-3.67
790	50.152	12.0	5.0	3.0	2.0	2.0	0.0	1.0	-3.0	4.0	-2.0	1.0	2.0	-5.0	-2.0	0.0	-4.0	0.0	4.0	0.0	2.0	-1.0	2.0	-1.0	-7.0	-4.0	0.0	-2.0
797	50.597	11.0	-2.0	12.0	9.0	15.0	1.0	11.0	11.0	3.0	6.0	4.0	2.0	0.0	8.0	1.0	0.0	6.0	0.0	12.0	3.0	6.0	6.0	1.0	1.0	5.0	-1.0	4.0
804	51.042	15.33	22.67	25.67	11.67	22.67	27.67	23.67	14.67	8.67	18.67	18.67	7.67	4.67	8.67	8.67	16.67	22.67	8.67	2.67	6.67	6.67	7.67	1.67	8.67	6.67	9.67	9.67
811	51.487	11.67	58.33	47.33	48.33	53.33	44.33	47.33	44.33	44.33	39.33	34.33	34.33	31.33	24.33	37.33	22.33	15.33	31.33	31.33	18.33	16.33	16.33	22.33	13.33	12.33	21.33	17.33
818	51.932	13.33	71.67	34.67	37.67	25.67	31.67	20.67	24.67	30.67	31.67	23.67	20.67	19.67	15.67	17.67	29.67	14.67	23.67	10.67	7.67	13.67	18.67	19.67	17.67	11.67	14.67	14.67
825	52.377	13.67	12.33	14.33	15.33	7.33	16.33	17.33	2.33	9.33	17.33	10.33	13.33	4.33	-2.67	1.33	4.33	12.33	8.33	5.33	5.33	-3.67	3.33	5.33	9.33	1.33	8.33	4.33
832	52.823	10.67	2.33	0.33	4.33	13.33	2.33	2.33	3.33	-3.67	2.33	-0.67	3.33	7.33	6.33	5.33	4.33	10.33	2.33	0.33	-1.67	-5.67	2.33	1.33	1.33	6.33	3.33	6.33
839	53.268	14.0	-6.0	-9.0	-5.0	0.0	3.0	4.0	-5.0	3.0	3.0	-2.0	-1.0	0.0	-2.0	-8.0	-6.0	3.0	4.0	-4.0	4.0	-1.0	5.0	3.0	-1.0	-4.0	0.0	-1.0
846	53.713	12.33	-0.33	-0.33	8.67	3.67	0.67	-0.33	3.67	-1.33	-0.33	8.67	4.67	2.67	-2.33	-5.33	-0.33	8.67	1.67	-0.33	-1.33	1.67	-1.33	1.67	7.67	-2.33	1.67	0.67
853	54.159	15.67	0.33	-4.67	-0.67	0.33	1.33	7.33	3.33	-6.67	-3.67	-3.67	5.33	-0.67	-0.67	-5.67	-4.67	-1.67	1.33	-7.67	-3.67	-1.67	2.33	-0.67	0.33	3.33	-0.67	0.33
860	54.604	13.67	11.33	-5.67	3.33	1.33	-2.67	-2.67	0.33	6.33	1.33	3.33	3.33	-1.67	1.33	2.33	-2.67	-6.67	2.33	-1.67	-2.67	1.33	0.33	2.33	-4.67	0.33	-0.67	1.33
867	55.05	17.33	-0.33	-3.33	-3.33	-5.33	1.67	-7.33	-4.33	-9.33	0.67	-2.33	-7.33	-5.33	-8.33	-4.33	1.67	-6.33	-5.33	-7.33	-9.33	-8.33	-7.33	-9.33	-6.33	-4.33	-3.33	-4.33
874	55.496	14.33	-5.33	5.67	-0.33	1.67	5.67	-2.33	1.67	-1.33	-0.33	2.67	-9.33	-6.33	-5.33	-3.33	3.67	-7.33	-4.33	4.67	-2.33	-4.33	-4.33	-0.33	2.67	3.67	-3.33	7.67
881	55.942	17.33	-1.33	-8.33	-4.33	-2.33	0.67	-2.33	-3.33	-1.33	-8.33	-2.33	3.67	-8.33	-3.33	-3.33	-6.33	-5.33	-10.33	-6.33	-7.33	-5.33	-10.33	4.67	-3.33	-0.33	-7.33	-5.33
888	56.387	19.0	-1.0	-5.0	-10.0	-7.0	1.0	-5.0	-13.0	-4.0	-6.0	-2.0	-6.0	0.0	-13.0	-7.0	-2.0	-10.0	-7.0	-9.0	-3.0	-10.0	-4.0	-5.0	-8.0	-2.0	-5.0	-3.0
895	56.833	9.67	4.33	10.33	5.33	7.33	7.33	9.33	5.33	6.33	-1.67	2.33	6.33	5.33	10.33	2.33	1.33	-1.67	3.33	3.33	6.33	2.33	-1.67	8.33	-1.67	3.33	1.33	10.33
902	57.279	16.33	5.67	-0.33	1.67	0.67	0.67	0.67	-3.33	-4.33	-4.33	-1.33	-3.33	-3.33	0.67	-4.33	-2.33	8.67	-3.33	-1.33	2.67	-4.33	-2.33	2.67	-2.33	-3.33	-1.33	-1.33
909	57.726	17.33	-0.33	-2.33	-4.33	-2.33	7.67	0.67	-0.33	0.67	-1.33	-10.33	-1.33	-9.33	-6.33	-2.33	-2.33	-7.33	3.67	0.67	-0.33	-5.33	-6.33	-7.33	-3.33	3.67	-3.33	-4.33
916	58.172	22.0	-4.0	-10.0	-11.0	-6.0	-8.0	-6.0	-1.0	0.0	-7.0	-8.0	-11.0	-12.0	-11.0	-8.0	-6.0	-14.0	-2.0	0.0	-6.0	-10.0	-9.0	-9.0	-1.0	-8.0	-6.0	-5.0
923	58.618	12.33	6.67	-2.33	7.67	-2.33	-5.33	6.67	-2.33	-0.33	-0.33	1.67	1.67	6.67	3.67	2.67	1.67	2.67	0.67	3.67	5.67	2.67	-3.33	-1.33	-4.33	0.67	1.67	4.67
930	59.064	21.67	-2.67	-1.67	1.33	5.33	-1.67	-2.67	-3.67	-1.67	1.33	-1.67	-4.67	-9.67	-5.67	-5.67	-4.67	-2.67	-6.67	-5.67	2.33	-1.67	-2.67	-5.67	-0.67	-8.67	-1.67	-10.67
937	59.511	17.67	0.33	-2.67	-3.67	-0.67	-1.67	-0.67	-6.67	-5.67	3.33	12.33	0.33	-3.67	-3.67	-5.67	2.33	-0.67	8.33	5.33	-1.67	5.33	3.33	1.33	1.33	7.33	1.33	0.33
944	59.957	15.67	-2.67	8.33	1.33	4.33	-1.67	1.33	-0.67	2.33	3.33	-1.67	-3.67	3.33	2.33	-3.67	2.33	-6.67	5.33	0.33	-0.67	5.33	0.33	-6.67	1.33	0.33	-2.67	-8.67
951	60.404	16.67	5.33	-2.67	1.33	-3.67	-3.67	-5.67	7.33	5.33	5.33	-0.67	-2.67	-6.67	-5.67	-1.67	-6.67	-3.67	1.33	-1.67	-3.67	-3.67	-0.67	2.33	0.33	-2.67	-7.67	2.33
958	60.851	17.0	-2.0	-6.0	-7.0	-1.0	0.0	-5.0	1.0	-1.0	7.0	-6.0	-3.0	-3.0	-4.0	-7.0	3.0	1.0	-2.0	-4.0	-7.0	-5.0	-3.0	-1.0	1.0	0.0	-4.0	3.0
965	61.298	14.67	4.33	3.33	3.33	-2.67	-5.67	-3.67	-3.67	-4.67	11.33	4.33	1.33	-4.67	3.33	7.33	-2.67	1.33	2.33	-5.67	-2.67	-8.67	-2.67	0.33	-3.67	3.33	-0.67	-6.67
972	61.745	12.67	11.33	-2.67	-3.67	6.33	4.33	4.33	2.33	1.33	0.33	6.33	7.33	1.33	-0.67	-2.67	4.33	-2.67	5.33	7.33	-0.67	-5.67	4.33	4.33	5.33	3.33	4.33	2.33
979	62.192	18.0	0.0	3.0	5.0	5.0	-12.0	-6.0	-4.0	-3.0	-5.0	-12.0	2.0	-5.0	-4.0	-6.0	-6.0	-2.0	-6.0	0.0	-6.0	-1.0	-9.0	-8.0	-2.0	-6.0	-11.0	-1.0
986	62.639	16.67	3.33	7.33	-1.67	-2.67	1.33	-0.67	-1.67	0.33	1.33	-4.67	-5.67	2.33	-3.67	5.33	1.33	-4.67	-5.67	-4.67	-0.67	-4.67	3.33	4.33	0.33	1.33	-4.67	2.33
993	63.086	16.33	13.67	7.67	4.67	-1.33	-1.33	-2.33	-3.33	1.67	-4.33	4.67	-4.33	-1.33	0.67	-3.33	-1.33	0.67	-4.33	2.67	5.67	-0.33	-1.33	2.67	-2.33	8.67	-2.33	-0.33
1000	63.533	17.67	8.33	-0.67	5.33	-1.67	3.33	3.33	-5.67	1.33	1.33	-0.67	0.33	-2.67	-4.67	-3.67	-3.67	-2.67	0.33	-1.67	3.33	2.33	-6.67	-7.67	4.33	0.33	-1.67	-12.67
1007	63.981	13.67	12.33	-1.67	5.33	-0.67	7.33	6.33	1.33	-1.67	-1.67	10.33	2.33	3.33	12.33	-1.67	6.33	-2.67	-4.67	-3.67	-0.67	5.33	2.33	3.33	-3.67	7.33	1.33	8.33
1014	64.428	17.0	4.0	-2.0	1.0	2.0	6.0	0.0	-2.0	-2.0	-5.0	-4.0	-2.0	0.0	5.0	0.0	-2.0	4.0	1.0	-3.0	-2.0	5.0	-8.0	6.0	-3.0	-2.0	5.0	3.0
1021	64.876	19.67	17.33	9.33	10.33	0.33	5.33	18.33	-2.67	-1.67	-4.67	-4.67	7.33	5.33	-5.67	7.33	-6.67	-1.67	-5.67	6.33	-7.67	-0.67	-0.67	-0.67	-0.67	0.33	-2.67	0.33
1028	65.324	14.67	14.33	15.33	15.33	26.33	12.33	27.33	18.33	19.33	17.33	12.33	7.33	8.33	22.33	18.33	17.33	21.33	18.33	19.33	12.33	16.33	21.33	11.33	9.33	21.33	15.33	6.33
1035	65.772	20.0	19.0	28.0	14.0	22.0	12.0	32.0	17.0	17.0	23.0	26.0	15.0	16.0	5.0	13.0	17.0	14.0	24.0	12.0	7.0	17.0	15.0	13.0	6.0	5.0	8.0	12.0
1042	66.22	19.33	8.67	22.67	21.67	19.67	10.67	19.67	14.67	14.67	25.67	13.67	5.67	23.67	3.67	18.67	8.67	5.67	13.67	5.67	4.67	7.67	7.67	5.67	20.67	13.67	14.67	10.67
1049	66.668	13.33	13.67	4.67	14.67	10.67	10.67	16.67	16.67	21.67	10.67	12.67	12.67	7.67	7.67	10.67	17.67	4.67	19.67	1.67	3.67	12.67	4.67	17.67	0.67	12.67	17.67	11.67
1056	67.116	18.67	9.33	11.33	-5.67	9.33	-1.67	8.33	5.33	1.33	0.33	7.33	3.33	2.33	-0.67	8.33	8.33	-0.67	6.33	8.33	-1.67	-4.67	-0.67	11.33	8.33	12.33	-0.67	-4.67
1063	67.564	13.0	4.0	11.0	7.0	17.0	15.0	14.0	4.0	13.0	2.0	10.0	3.0	14.0	5.0	12.0	5.0	6.0	3.0	2.0	15.0	4.0	8.0	6.0	6.0	7.0	13.0	-4.0
1070	68.013	14.33	9.67	4.67	2.67	10.67	7.67	1.67	11.67	-1.33	6.67	5.67	2.67	-1.33	2.67	2.67	0.67	8.67	5.67	3.67	6.67	16.67	5.67	3.67	1.67	2.67	4.67	-2.33
1077	68.462	13.67	13.33	7.33	8.33	4.33	4.33	9.33	3.33	6.33	4.33	7.33	10.33	4.33	1.33	-0.67	-0.67	11.33	1.33	6.33	8.33	-2.67	5.33	5.33	7.33	-0.67	2.33	2.33
1084	68.91	17.67	6.33	-1.67	0.33	-3.67	-2.67	-0.67	2.33	7.33	13.33	-4.67	1.33	4.33	-7.67	0.33	5.33	0.33	6.33	0.33	7.33	2.33	2.33	0.33	1.33	2.33	6.33	6.33
1091	69.359	16.33	11.67	6.67	6.67	1.67	4.67	-1.33	-1.33	6.67	8.67	10.67	0.67	1.67	-4.33	5.67	4.67	5.67	-0.33	4.67	2.67	3.67	6.67	1.67	-0.33	4.67	1.67	-2.33
1098	69.808	8.33	10.67	10.67	7.67	7.67	6.67	12.67	11.67	17.67	8.67	17.67	13.67	1.67	11.67	9.67	3.67	15.67	5.67	6.67	11.67	10.67	8.67	5.67	9.67	7.67	10.67	11.67
1105	70.257	11.67	9.33	11.33	11.33	5.33	1.33	7.33	-1.67	9.33	8.33	5.33	9.33	3.33	8.33	7.33	1.33	13.33	5.33	1.33	8.33	12.33	11.33	10.33	0.33	10.33	5.33	13.33
1112	70.707	9.67	9.33	7.33	3.33	8.33	13.33	9.33	4.33	12.33	15.33	16.33	10.33	9.33	8.33	8.33	0.33	3.33	1.33	10.33	16.33	0.33	3.33	4.33	12.33	8.33	11.33	7.33
1119	71.156	13.33	3.67	-0.33	5.67	11.67	3.67	6.67	0.67	9.67	3.67	13.67	4.67	2.67	13.67	9.67	12.67	9.67	5.67	10.67	12.67	5.67	6.67	9.67	5.67	6.67	9.67	8.67
1126	71.606	13.67	1.33	5.33	11.33	7.33	8.33	2.33	-2.67	12.33	1.33	9.33	5.33	-2.67	10.33	0.33	10.33	7.33	-1.67	10.33	5.33	3.33	3.33	8.33	12.33	10.33	2.33	11.33
1133	72.055	15.67	4.33	0.33	6.33	6.33	4.33	4.33	14.33	2.33	1.33	1.33	-1.67	9.33	7.33	0.33	4.33	5.33	7.33	1.33	7.33	12.33	4.33	8.33	-2.67	3.33	0.33	14.33
1140	72.505	20.33	7.67	3.67	-0.33	0.67	6.67	1.67	5.67	7.67	-3.33	15.67	6.67	5.67	-1.33	8.67	-1.33	8.67	2.67	-5.33	5.67	12.67	1.67	-7.33	4.67	-3.33	13.67	5.67
1147	72.955	25.0	1.0	4.0	0.0	8.0	11.0	6.0	1.0	6.0	10.0	7.0	13.0	10.0	8.0	10.0	21.0	2.0	13.0	12.0	15.0	15.0	19.0	7.0	15.0	12.0	4.0	2.0
1154	73.405	20.67	0.33	8.33	2.33	7.33	10.33	7.33	11.33	-2.67	9.33	17.33	-7.67	7.33	8.33	7.33	4.33	6.33	-0.67	9.33	0.33	12.33	6.33	7.33	7.33	10.33	13.33	6.33
1161	73.855	15.67	4.33	9.33	4.33	5.33	7.33	3.33	4.33	3.33	-0.67	12.33	1.33	6.33	-2.67	14.33	8.33	6.33	9.33	2.33	11.33	7.33	4.33	10.33	9.33	5.33	1.33	6.33
1168	74.306	13.33	6.67	17.67	5.67	7.67	11.67	9.67	7.67	11.67	6.67	3.67	13.67	9.67	16.67	2.67	7.67	8.67	9.67	3.67	1.67	3.67	8.67	22.67	9.67	6.67	13.67	8.67
1175	74.756	26.33	0.67	10.67	-6.33	8.67	0.67	-3.33	11.67	1.67	10.67	8.67	2.67	8.67	1.67	6.67	0.67	9.67	5.67	11.67	-4.33	-0.33	-7.33	9.67	-1.33	5.67	11.67	4.67
1182	75.207	38.33	4.67	3.67	16.67	-1.33	7.67	14.67	0.67	9.67	21.67	-0.33	1.67	4.67	14.67	1.67	-0.33	10.67	8.67	1.67	-0.33	11.67	15.67	14.67	2.67	14.67	13.67	18.67
1189	75.658	25.0	5.0	9.0	5.0	-2.0	7.0	8.0	3.0	2.0	14.0	5.0	0.0	7.0	12.0	2.0	11.0	14.0	24.0	27.0	2.0	8.0	13.0	0.0	6.0	16.0	13.0	15.0
1196	76.109	16.0	12.0	10.0	9.0	11.0	4.0	-4.0	-3.0	13.0	3.0	2.0	2.0	7.0	3.0	1.0	21.0	5.0	11.0	-8.0	11.0	5.0	-1.0	6.0	13.0	13.0	12.0	2.0
1203	76.56	14.33	-2.33	6.67	7.67	-0.33	-10.33	4.67	5.67	4.67	11.67	4.67	3.67	14.67	6.67	2.67	1.67	11.67	1.67	8.67	6.67	-1.33	-0.33	6.67	1.67	-1.33	4.67	14.67
1210	77.011	12.0	4.0	11.0	10.0	8.0	3.0	7.0	10.0	6.0	10.0	3.0	3.0	6.0	10.0	2.0	9.0	14.0	-1.0	11.0	1.0	13.0	19.0	16.0	-3.0	9.0	7.0	9.0
1217	77.463	17.33	-7.33	3.67	1.67	0.67	6.67	-0.33	7.67	0.67	-3.33	1.67	14.67	3.67	7.67	5.67	2.67	-0.33	10.67	-2.33	9.67	-0.33	4.67	8.67	3.67	4.67	2.67	4.67
1224	77.915	16.33	-3.33	5.67	0.67	3.67	6.67	11.67	2.67	0.67	-1.33	11.67	2.67	-1.33	-0.33	0.67	-0.33	3.67	9.67	-0.33	1.67	2.67	11.67	6.67	6.67	2.67	5.67	7.67
1231	78.366	12.33	11.67	14.67	2.67	1.67	8.67	8.67	15.67	8.67	8.67	10.67	10.67	6.67	6.67	2.67	1.67	16.67	17.67	9.67	9.67	14.67	12.67	11.67	9.67	1.67	6.67	10.67
1238	78.818	12.67	7.33	7.33	13.33	12.33	6.33	8.33	4.33	9.33	15.33	10.33	9.33	5.33	10.33	7.33	10.33	10.33	5.33	21.33	14.33	13.33	10.33	4.33	9.33	15.33	7.33	14.33
1245	79.271	13.67	3.33	4.33	3.33	16.33	5.33	9.33	3.33	8.33	9.33	-1.67	13.33	13.33	5.33	7.33	6.33	6.33	8.33	-0.67	16.33	8.33	14.33	7.33	7.33	6.33	9.33	10.33
1252	79.723	11.67	4.33	27.33	11.33	11.33	8.33	11.33	6.33	6.33	2.33	8.33	13.33	8.33	2.33	9.33	20.33	11.33	13.33	17.33	10.33	14.33	10.33	14.33	11.33	10.33	15.33	12.33
1259	80.175	12.33	-0.33	22.67	4.67	14.67	13.67	18.67	13.67	8.67	6.67	18.67	6.67	7.67	15.67	19.67	11.67	12.67	10.67	6.67	22.67	13.67	13.67	13.67	4.67	3.67	19.67	7.67
1266	80.628	15.67	5.33	3.33	10.33	8.33	13.33	8.33	12.33	5.33	7.33	14.33	9.33	10.33	14.33	6.33	8.33	12.33	4.33	5.33	12.33	8.33	7.33	16.33	5.33	10.33	5.33	2.33
1273	81.081	17.67	6.33	12.33	14.33	13.33	15.33	16.33	16.33	14.33	11.33	16.33	12.33	3.33	-2.67	12.33	8.33	4.33	1.33	9.33	15.33	5.33	7.33	14.33	5.33	6.33	10.33	4.33
1280	81.534	13.0	19.0	13.0	29.0	22.0	20.0	21.0	11.0	18.0	24.0	29.0	8.0	20.0	8.0	30.0	13.0	14.0	21.0	17.0	22.0	17.0	21.0	15.0	18.0	17.0	23.0	19.0
1287	81.987	15.33	14.67	16.67	28.67	20.67	28.67	33.67	11.67	18.67	26.67	20.67	15.67	21.67	11.67	15.67	18.67	31.67	17.67	19.67	20.67	15.67	16.67	14.67	14.67	24.67	13.67	20.67
1294	82.441	16.0	21.0	23.0	30.0	32.0	25.0	42.0	41.0	22.0	29.0	23.0	35.0	26.0	21.0	30.0	20.0	14.0	22.0	24.0	20.0	34.0	21.0	11.0	37.0	27.0	31.0	17.0
1301	82.894	21.0	63.0	63.0	69.0	80.0	72.0	37.0	50.0	48.0	44.0	32.0	34.0	46.0	37.0	40.0	34.0	36.0	33.0	34.0	26.0	31.0	35.0	23.0	41.0	27.0	38.0	25.0
1308	83.348	17.33	120.67	148.67	130.67	130.67	107.67	82.67	104.67	104.67	78.67	73.67	87.67	58.67	76.67	73.67	76.67	80.67	59.67	59.67	61.67	51.67	71.67	46.67	61.67	48.67	69.67	63.67
1315	83.802	18.67	154.33	191.33	175.33	157.33	124.33	103.33	103.33	113.33	121.33	117.33	105.33	104.33	95.33	74.33	70.33	72.33	94.33	89.33	77.33	70.33	66.33	88.33	70.33	83.33	79.33	75.33
1322	84.256	21.67	115.33	209.33	157.33	113.33	89.33	97.33	101.33	96.33	83.33	86.33	92.33	95.33	105.33	85.33	77.33	80.33	70.33	89.33	58.33	59.33	77.33	63.33	78.33	66.33	67.33	55.33
1329	84.71	30.33	70.67	82.67	76.67	55.67	40.67	56.67	49.67	61.67	45.67	52.67	41.67	34.67	37.67	47.67	38.67	31.67	36.67	40.67	42.67	38.67	30.67	43.67	32.67	50.67	30.67	36.67
1336	85.165	29.33	33.67	27.67	25.67	22.67	20.67	23.67	18.67	25.67	15.67	23.67	7.67	10.67	24.67	10.67	13.67	12.67	20.67	10.67	10.67	25.67	17.67	18.67	26.67	16.67	31.67	19.67
1343	85.619	30.33	10.67	10.67	11.67	10.67	4.67	1.67	9.67	-2.33	11.67	12.67	0.67	5.67	9.67	10.67	14.67	3.67	6.67	18.67	13.67	7.67	10.67	9.67	7.67	12.67	19.67	2.67
1350	86.074	23.0	4.0	4.0	6.0	0.0	5.0	8.0	12.0	13.0	1.0	-3.0	1.0	6.0	8.0	6.0	12.0	18.0	10.0	9.0	6.0	3.0	9.0	0.0	5.0	17.0	8.0	1.0
1357	86.529	18.0	2.0	17.0	6.0	15.0	19.0	23.0	11.0	16.0	2.0	14.0	9.0	15.0	4.0	10.0	9.0	8.0	8.0	12.0	9.0	14.0	12.0	11.0	11.0	18.0	10.0	16.0
1364	86.985	24.0	13.0	-1.0	5.0	8.0	0.0	12.0	7.0	-2.0	7.0	8.0	-4.0	7.0	5.0	12.0	2.0	3.0	12.0	3.0	-5.0	9.0	-4.0	-6.0	9.0	5.0	16.0	1.0
1371	87.44	18.0	10.0	19.0	13.0	21.0	30.0	13.0	10.0	15.0	21.0	12.0	3.0	21.0	19.0	14.0	18.0	17.0	17.0	14.0	20.0	15.0	22.0	21.0	0.0	10.0	20.0	17.0
1378	87.896	24.67	0.33	9.33	4.33	16.33	0.33	5.33	1.33	17.33	7.33	1.33	2.33	11.33	11.33	14.33	10.33	15.33	13.33	12.33	17.33	14.33	-1.67	2.33	6.33	8.33	11.33	5.33
1385	88.352	25.33	10.67	2.67	3.67	3.67	7.67	10.67	8.67	18.67	2.67	2.67	4.67	1.67	5.67	9.67	6.67	14.67	0.67	12.67	1.67	-1.33	9.67	0.67	5.67	12.67	-0.33	8.67
1392	88.808	23.67	11.33	7.33	11.33	3.33	13.33	0.33	6.33	4.33	3.33	6.33	6.33	11.33	4.33	6.33	4.33	7.33	9.33	16.33	11.33	3.33	0.33	16.33	15.33	8.33	8.33	4.33
1399	89.264	20.67	3.33	15.33	7.33	2.33	10.33	14.33	4.33	8.33	4.33	13.33	8.33	3.33	5.33	6.33	9.33	8.33	7.33	4.33	7.33	13.33	10.33	8.33	9.33	16.33	11.33	18.33
1406	89.72	19.67	8.33	13.33	19.33	16.33	7.33	6.33	5.33	7.33	20.33	7.33	17.33	10.33	11.33	13.33	1.33	15.33	4.33	6.33	25.33	22.33	9.33	5.33	20.33	9.33	6.33	14.33
1413	90.177	25.0	4.0	5.0	24.0	9.0	5.0	3.0	5.0	7.0	4.0	7.0	5.0	9.0	9.0	7.0	10.0	3.0	5.0	19.0	1.0	10.0	11.0	4.0	0.0	7.0	12.0	12.0
1420	90.634	28.0	-10.0	8.0	3.0	9.0	1.0	9.0	0.0	-7.0	2.0	2.0	1.0	10.0	9.0	0.0	-10.0	5.0	3.0	1.0	10.0	-3.0	11.0	-1.0	-4.0	8.0	6.0	9.0
1427	91.091	26.67	-2.67	3.33	5.33	3.33	7.33	-1.67	-6.67	4.33	9.33	6.33	8.33	4.33	16.33	11.33	3.33	11.33	10.33	9.33	-3.67	17.33	2.33	-1.67	2.33	7.33	11.33	10.33
1434	91.549	28.67	-1.67	6.33	2.33	9.33	3.33	-1.67	6.33	11.33	-0.67	5.33	6.33	-4.67	10.33	5.33	-2.67	-3.67	6.33	10.33	-0.67	8.33	9.33	8.33	-3.67	7.33	11.33	2.33
1441	92.006	28.0	3.0	11.0	-1.0	11.0	2.0	0.0	9.0	7.0	11.0	6.0	0.0	9.0	0.0	-3.0	8.0	10.0	1.0	0.0	1.0	8.0	10.0	9.0	-1.0	8.0	-2.0	3.0
1448	92.464	22.67	7.33	21.33	16.33	11.33	4.33	9.33	13.33	17.33	12.33	14.33	8.33	30.33	17.33	16.33	8.33	5.33	2.33	5.33	16.33	13.33	16.33	12.33	17.33	1.33	12.33	13.33
1455	92.922	27.33	6.67	14.67	0.67	-4.33	17.67	1.67	2.67	2.67	2.67	-3.33	8.67	5.67	9.67	2.67	10.67	10.67	4.67	7.67	-8.33	1.67	1.67	11.67	6.67	3.67	1.67	5.67
1462	93.38	29.0	5.0	8.0	-9.0	4.0	2.0	1.0	7.0	1.0	-4.0	6.0	13.0	6.0	-5.0	8.0	12.0	7.0	10.0	0.0	-5.0	2.0	-2.0	5.0	19.0	5.0	7.0	1.0
1469	93.839	28.0	-1.0	4.0	2.0	0.0	9.0	8.0	5.0	10.0	9.0	7.0	7.0	1.0	-4.0	6.0	4.0	11.0	-6.0	5.0	5.0	2.0	1.0	3.0	3.0	12.0	10.0	10.0
1476	94.297	28.33	6.67	4.67	7.67	9.67	8.67	22.67	-0.33	3.67	13.67	-8.33	10.67	4.67	3.67	-1.33	0.67	10.67	16.67	9.67	4.67	8.67	-1.33	2.67	-0.33	5.67	-4.33	9.67
1483	94.756	26.67	3.33	4.33	15.33	6.33	2.33	13.33	19.33	9.33	2.33	15.33	2.33	12.33	-0.67	8.33	2.33	7.33	2.33	10.33	15.33	5.33	7.33	11.33	0.33	11.33	15.33	7.33
1490	95.215	28.0	5.0	18.0	14.0	8.0	8.0	6.0	5.0	9.0	0.0	12.0	2.0	3.0	16.0	1.0	6.0	9.0	6.0	19.0	4.0	10.0	12.0	2.0	9.0	11.0	8.0	6.0
1497	95.675	27.33	3.67	9.67	3.67	17.67	10.67	20.67	17.67	6.67	5.67	6.67	21.67	-0.33	12.67	13.67	6.67	12.67	6.67	13.67	20.67	9.67	1.67	13.67	9.67	5.67	6.67	16.67
1504	96.134	27.33	18.67	23.67	14.67	16.67	22.67	19.67	12.67	28.67	16.67	35.67	13.67	33.67	14.67	17.67	10.67	27.67	8.67	12.67	26.67	17.67	19.67	7.67	19.67	16.67	15.67	20.67
1511	96.594	30.67	-2.67	28.33	24.33	31.33	24.33	33.33	30.33	22.33	24.33	11.33	19.33	19.33	20.33	25.33	26.33	16.33	35.33	30.33	15.33	13.33	9.33	33.33	32.33	22.33	23.33	22.33
1518	97.054	26.67	14.33	25.33	37.33	29.33	31.33	30.33	26.33	48.33	24.33	41.33	28.33	24.33	24.33	37.33	28.33	43.33	37.33	30.33	21.33	39.33	29.33	31.33	28.33	26.33	30.33	29.33
1525	97.514	26.0	20.0	49.0	45.0	36.0	30.0	22.0	29.0	34.0	36.0	20.0	42.0	28.0	31.0	35.0	32.0	34.0	31.0	33.0	31.0	42.0	41.0	28.0	28.0	44.0	34.0	17.0
1532	97.975	29.0	9.0	18.0	27.0	29.0	25.0	24.0	24.0	26.0	20.0	28.0	16.0	23.0	18.0	23.0	19.0	9.0	24.0	11.0	14.0	19.0	25.0	30.0	25.0	14.0	24.0	12.0
1539	98.436	29.0	10.0	21.0	19.0	16.0	7.0	26.0	28.0	13.0	16.0	24.0	21.0	24.0	19.0	26.0	0.0	26.0	20.0	17.0	6.0	14.0	6.0	10.0	10.0	20.0	5.0	22.0
1546	98.897	26.33	1.67	8.67	20.67	19.67	17.67	14.67	19.67	1.67	3.67	15.67	4.67	4.67	7.67	16.67	13.67	13.67	-3.33	4.67	21.67	14.67	14.67	24.67	15.67	17.67	15.67	13.67
1553	99.358	25.33	16.67	6.67	7.67	13.67	6.67	10.67	8.67	10.67	8.67	8.67	3.67	13.67	4.67	1.67	16.67	14.67	9.67	7.67	-1.33	4.67	-1.33	3.67	11.67	2.67	14.67	17.67
1560	99.82	32.67	12.33	5.33	0.33	0.33	13.33	-8.67	4.33	5.33	5.33	2.33	-0.67	1.33	7.33	9.33	-1.67	-0.67	1.33	11.33	0.33	2.33	8.33	1.33	9.33	-2.67	-2.67	-0.67
1567	100.281	30.33	4.67	-0.33	1.67	4.67	21.67	6.67	3.67	-4.33	0.67	0.67	10.67	4.67	7.67	7.67	7.67	-10.33	2.67	16.67	3.67	10.67	8.67	6.67	16.67	7.67	2.67	4.67
1574	100.743	23.0	12.0	-1.0	9.0	23.0	10.0	7.0	15.0	13.0	27.0	3.0	4.0	11.0	18.0	14.0	-2.0	5.0	10.0	18.0	16.0	16.0	13.0	5.0	20.0	10.0	21.0	10.0
1581	101.206	31.33	-1.33	-3.33	5.67	2.67	-3.33	1.67	8.67	13.67	2.67	-0.33	-5.33	3.67	-5.33	3.67	0.67	2.67	2.67	2.67	5.67	7.67	7.67	-1.33	4.67	-0.33	3.67	-2.33
1588	101.668	29.33	0.67	5.67	4.67	9.67	6.67	-0.33	1.67	6.67	1.67	3.67	7.67	3.67	3.67	3.67	11.67	6.67	14.67	0.67	8.67	4.67	10.67	11.67	22.67	3.67	10.67	-5.33
1595	102.131	27.33	6.67	3.67	14.67	15.67	9.67	15.67	4.67	5.67	2.67	6.67	7.67	-2.33	18.67	2.67	5.67	7.67	1.67	0.67	10.67	2.67	3.67	4.67	14.67	16.67	9.67	-4.33
1602	102.594	29.33	9.67	0.67	2.67	12.67	14.67	2.67	5.67	3.67	2.67	5.67	8.67	3.67	9.67	-2.33	12.67	14.67	15.67	4.67	7.67	15.67	5.67	4.67	1.67	20.67	11.67	6.67
1609	103.057	30.33	-8.33	1.67	2.67	4.67	-3.33	0.67	10.67	11.67	1.67	-6.33	0.67	6.67	-3.33	4.67	-0.33	5.67	9.67	0.67	2.67	7.67	-2.33	-3.33	1.67	-11.33	2.67	-5.33
1616	103.521	25.33	8.67	6.67	6.67	8.67	6.67	6.67	8.67	17.67	5.67	6.67	6.67	11.67	1.67	0.67	0.67	4.67	6.67	15.67	-3.33	8.67	10.67	5.67	19.67	15.67	12.67	10.67
1623	103.985	26.67	4.33	-1.67	2.33	-2.67	2.33	8.33	2.33	6.33	6.33	10.33	4.33	3.33	6.33	5.33	7.33	13.33	5.33	3.33	-1.67	1.33	12.33	7.33	9.33	7.33	10.33	3.33
1630	104.449	23.0	5.0	2.0	6.0	3.0	-3.0	5.0	2.0	-6.0	1.0	9.0	3.0	10.0	13.0	5.0	4.0	1.0	0.0	2.0	6.0	6.0	3.0	1.0	3.0	-1.0	6.0	7.0
1637	104.913	29.0	4.0	6.0	10.0	2.0	0.0	-1.0	-2.0	1.0	-1.0	-3.0	-8.0	2.0	3.0	-6.0	4.0	-4.0	-3.0	0.0	2.0	-7.0	6.0	10.0	2.0	-8.0	-2.0	-5.0
1644	105.378	25.67	5.33	5.33	4.33	0.33	-5.67	-0.67	8.33	9.33	0.33	3.33	2.33	10.33	8.33	5.33	-0.67	-4.67	-5.67	-4.67	5.33	9.33	2.33	13.33	9.33	-0.67	9.33	-5.67
1651	105.843	29.67	0.33	-4.67	-3.67	3.33	-2.67	-7.67	-7.67	-1.67	3.33	5.33	9.33	5.33	1.33	-11.67	2.33	-1.67	8.33	-7.67	-1.67	-3.67	-4.67	-1.67	-0.67	1.33	7.33	-0.67
1658	106.308	25.33	-8.33	0.67	-1.33	1.67	6.67	3.67	-0.33	-1.33	-1.33	4.67	6.67	10.67	-8.33	0.67	7.67	3.67	-3.33	0.67	7.67	-1.33	5.67	7.67	11.67	9.67	-4.33	-2.33
1665	106.773	25.67	4.33	8.33	4.33	5.33	-1.67	-2.67	12.33	7.33	-0.67	-0.67	4.33	-0.67	2.33	-4.67	5.33	14.33	9.33	-2.67	-0.67	13.33	16.33	7.33	-5.67	-8.67	9.33	12.33
1672	107.239	24.33	-9.33	-4.33	-0.33	8.67	-4.33	3.67	-0.33	13.67	12.67	1.67	14.67	4.67	-0.33	-4.33	0.67	15.67	-1.33	5.67	3.67	-4.33	2.67	10.67	4.67	-0.33	8.67	3.67
1679	107.705	25.67	8.33	4.33	-0.67	11.33	1.33	2.33	0.33	-1.67	9.33	-1.67	-3.67	8.33	-0.67	-2.67	-1.67	-4.67	-4.67	-1.67	2.33	-2.67	4.33	1.33	8.33	8.33	10.33	3.33
1686	108.171	28.0	-5.0	-10.0	-1.0	-6.0	1.0	4.0	-4.0	-11.0	-2.0	-9.0	4.0	-11.0	-7.0	1.0	6.0	-10.0	-1.0	3.0	-8.0	-1.0	3.0	11.0	0.0	-5.0	-7.0	-2.0
1693	108.638	16.67	4.33	0.33	5.33	16.33	7.33	19.33	11.33	10.33	8.33	17.33	7.33	13.33	8.33	6.33	9.33	5.33	16.33	10.33	13.33	6.33	7.33	11.33	9.33	0.33	10.33	7.33
1700	109.105	19.67	-5.67	-0.67	4.33	-3.67	-1.67	6.33	3.33	10.33	-0.67	-0.67	6.33	-1.67	3.33	7.33	7.33	8.33	5.33	0.33	3.33	-7.67	11.33	11.33	6.33	1.33	12.33	2.33
1707	109.572	19.67	0.33	7.33	3.33	2.33	0.33	-0.67	5.33	9.33	7.33	6.33	5.33	1.33	3.33	5.33	0.33	5.33	6.33	-3.67	11.33	1.33	4.33	10.33	9.33	11.33	8.33	11.33
1714	110.039	23.0	-6.0	6.0	0.0	6.0	4.0	-5.0	2.0	-6.0	-1.0	-6.0	-2.0	9.0	-1.0	0.0	3.0	-3.0	10.0	7.0	-6.0	-2.0	5.0	0.0	7.0	-5.0	3.0	-4.0
1721	110.507	18.33	3.67	2.67	6.67	4.67	4.67	4.67	11.67	-0.33	-2.33	-4.33	-0.33	8.67	4.67	1.67	6.67	13.67	-4.33	11.67	8.67	13.67	5.67	5.67	-0.33	3.67	2.67	4.67
1728	110.975	14.0	5.0	10.0	3.0	4.0	5.0	5.0	8.0	12.0	9.0	9.0	10.0	2.0	2.0	12.0	12.0	12.0	11.0	11.0	14.0	11.0	1.0	12.0	9.0	17.0	19.0	15.0
1735	111.443	20.33	-3.33	-3.33	4.67	3.67	1.67	13.67	4.67	2.67	1.67	6.67	2.67	-1.33	2.67	6.67	4.67	5.67	-0.33	13.67	1.67	-0.33	12.67	-0.33	2.67	8.67	5.67	4.67
1742	111.912	24.67	8.33	7.33	-7.67	-0.67	3.33	6.33	5.33	0.33	-1.67	-0.67	3.33	2.33	-0.67	4.33	0.33	3.33	14.33	2.33	1.33	5.33	4.33	-7.67	-6.67	-4.67	-9.67	8.33
1749	112.38	22.67	-9.67	5.33	-0.67	0.33	-4.67	8.33	2.33	10.33	3.33	6.33	8.33	-1.67	6.33	0.33	-1.67	5.33	7.33	10.33	-7.67	3.33	9.33	6.33	1.33	8.33	10.33	6.33
1756	112.85	17.67	3.33	6.33	2.33	6.33	9.33	5.33	3.33	2.33	12.33	3.33	7.33	12.33	5.33	12.33	9.33	6.33	2.33	0.33	6.33	10.33	3.33	17.33	14.33	2.33	9.33	8.33
1763	113.319	22.33	-1.33	-4.33	5.67	2.67	-1.33	-7.33	2.67	-4.33	-1.33	-6.33	5.67	-3.33	-4.33	0.67	5.67	-0.33	-4.33	3.67	0.67	-0.33	-3.33	-4.33	3.67	2.67	0.67	1.67
1770	113.789	17.67	-3.67	4.33	7.33	3.33	1.33	2.33	8.33	3.33	-5.67	9.33	8.33	-1.67	-8.67	2.33	6.33	-1.67	5.33	4.33	2.33	8.33	4.33	3.33	-0.67	8.33	4.33	10.33
1777	114.259	16.0	3.0	-2.0	1.0	-3.0	3.0	-3.0	-1.0	1.0	3.0	1.0	-1.0	-1.0	9.0	9.0	10.0	1.0	4.0	12.0	10.0	6.0	2.0	0.0	2.0	0.0	3.0	8.0
1784	114.729	18.67	-3.67	5.33	-3.67	0.33	-4.67	-4.67	-0.67	0.33	1.33	-7.67	2.33	5.33	-0.67	-5.67	2.33	-0.67	-2.67	-0.67	-0.67	-0.67	1.33	-1.67	0.33	5.33	2.33	7.33
1791	115.2	17.0	2.0	-5.0	-1.0	-6.0	0.0	-6.0	5.0	-2.0	3.0	1.0	8.0	5.0	-4.0	2.0	8.0	6.0	5.0	2.0	-7.0	-1.0	5.0	2.0	0.0	6.0	9.0	2.0
1798	115.671	14.67	2.33	11.33	7.33	1.33	-0.67	5.33	7.33	-0.67	11.33	-1.67	1.33	-0.67	-1.67	3.33	-1.67	6.33	4.33	-2.67	6.33	10.33	6.33	5.33	2.33	2.33	19.33	8.33
1805	116.142	14.0	6.0	2.0	2.0	2.0	0.0	6.0	-1.0	4.0	12.0	5.0	3.0	3.0	10.0	0.0	4.0	-2.0	-1.0	-2.0	9.0	-2.0	3.0	-2.0	4.0	-4.0	3.0	4.0
1812	116.614	13.0	4.0	5.0	2.0	8.0	-1.0	5.0	5.0	7.0	0.0	-3.0	5.0	7.0	4.0	3.0	5.0	1.0	11.0	6.0	8.0	2.0	10.0	11.0	8.0	9.0	3.0	4.0
1819	117.086	13.67	1.33	4.33	3.33	6.33	4.33	7.33	3.33	5.33	2.33	3.33	5.33	1.33	7.33	-3.67	-0.67	8.33	-2.67	3.33	7.33	4.33	2.33	7.33	7.33	-0.67	7.33	6.33
1826	117.558	17.33	0.67	-1.33	-3.33	-9.33	-8.33	1.67	-1.33	-0.33	-0.33	-5.33	-3.33	0.67	8.67	-1.33	1.67	-1.33	4.67	5.67	-0.33	-3.33	2.67	-4.33	12.67	-4.33	4.67	-3.33
1833	118.03	15.0	7.0	-1.0	-4.0	-3.0	-2.0	2.0	-1.0	1.0	1.0	3.0	7.0	9.0	3.0	4.0	-2.0	-3.0	-1.0	5.0	1.0	1.0	5.0	3.0	1.0	4.0	1.0	-6.0
1840	118.503	16.67	-0.67	-0.67	-3.67	-3.67	-1.67	-3.67	-2.67	1.33	-3.67	-1.67	-7.67	-9.67	-9.67	-0.67	-9.67	-4.67	12.33	-0.67	-1.67	-4.67	0.33	4.33	2.33	-0.67	-0.67	-0.67
1847	118.976	15.33	-0.33	0.67	1.67	-5.33	3.67	1.67	0.67	-4.33	-1.33	-9.33	2.67	-1.33	0.67	-5.33	-9.33	0.67	-6.33	-1.33	-3.33	-0.33	1.67	3.67	-4.33	7.67	-2.33	-4.33
1854	119.45	14.67	-4.67	5.33	-0.67	-3.67	0.33	-2.67	-3.67	4.33	5.33	-4.67	1.33	-2.67	2.33	-3.67	5.33	-3.67	0.33	-3.67	0.33	5.33	5.33	-0.67	2.33	-4.67	-0.67	-4.67
1861	119.924	12.33	-4.33	-2.33	-4.33	-1.33	1.67	6.67	7.67	8.67	2.67	0.67	-1.33	-1.33	2.67	-2.33	7.67	-0.33	5.67	2.67	-2.33	9.67	7.67	4.67	2.67	5.67	5.67	5.67
1868	120.398	17.33	2.67	-8.33	-9.33	0.67	-7.33	-8.33	-8.33	-5.33	-7.33	-6.33	1.67	0.67	-8.33	-1.33	-6.33	0.67	4.67	-3.33	-1.33	3.67	-2.33	-7.33	2.67	9.67	-6.33	4.67
1875	120.872	11.0	-1.0	8.0	-1.0	1.0	0.0	0.0	3.0	-1.0	0.0	3.0	10.0	-2.0	6.0	3.0	3.0	8.0	3.0	5.0	-5.0	3.0	-2.0	3.0	0.0	7.0	5.0	4.0
1882	121.347	14.67	-3.67	-0.67	-5.67	-1.67	-6.67	0.33	3.33	-0.67	-3.67	3.33	4.33	-1.67	0.33	-6.67	-1.67	-3.67	-0.67	6.33	-5.67	1.33	0.33	-7.67	2.33	-4.67	2.33	-0.67
1889	121.822	11.0	1.0	0.0	-4.0	2.0	0.0	-1.0	5.0	6.0	6.0	0.0	-1.0	-5.0	2.0	13.0	-4.0	0.0	5.0	2.0	-2.0	5.0	7.0	6.0	2.0	5.0	-2.0	7.0
1896	122.298	10.0	3.0	-1.0	6.0	4.0	3.0	0.0	4.0	5.0	4.0	0.0	1.0	4.0	5.0	1.0	-1.0	19.0	7.0	1.0	-2.0	5.0	7.0	8.0	3.0	5.0	9.0	11.0
1903	122.773	8.67	8.33	6.33	2.33	9.33	4.33	5.33	4.33	13.33	2.33	4.33	6.33	11.33	4.33	7.33	1.33	0.33	9.33	9.33	-0.67	9.33	8.33	6.33	2.33	10.33	9.33	1.33
1910	123.25	9.67	2.33	3.33	10.33	2.33	5.33	2.33	9.33	5.33	4.33	7.33	2.33	6.33	9.33	11.33	3.33	2.33	9.33	7.33	3.33	0.33	4.33	6.33	4.33	3.33	7.33	10.33
1917	123.726	8.67	7.33	-0.67	2.33	2.33	5.33	1.33	2.33	4.33	6.33	3.33	7.33	16.33	3.33	6.33	3.33	3.33	3.33	7.33	4.33	3.33	1.33	9.33	7.33	10.33	6.33	6.33
1924	124.203	11.0	-4.0	5.0	1.0	0.0	1.0	2.0	-1.0	-1.0	4.0	-2.0	6.0	1.0	2.0	6.0	-2.0	-1.0	4.0	-5.0	3.0	-1.0	7.0	-1.0	5.0	2.0	0.0	1.0
1931	124.68	11.67	-0.67	4.33	1.33	-4.67	-2.67	-1.67	4.33	-0.67	-7.67	5.33	-0.67	1.33	3.33	2.33	1.33	0.33	-0.67	0.33	4.33	1.33	7.33	-2.67	0.33	2.33	2.33	-5.67
1938	125.158	11.0	5.0	-3.0	5.0	2.0	-1.0	-5.0	2.0	3.0	2.0	0.0	-5.0	4.0	4.0	4.0	1.0	0.0	2.0	3.0	4.0	0.0	-1.0	-2.0	0.0	-3.0	5.0	3.0
1945	125.635	7.0	5.0	4.0	7.0	4.0	4.0	1.0	0.0	5.0	4.0	6.0	4.0	6.0	4.0	13.0	6.0	10.0	7.0	2.0	5.0	7.0	5.0	0.0	7.0	1.0	13.0	4.0
1952	126.114	10.0	1.0	-2.0	3.0	3.0	2.0	1.0	-4.0	2.0	2.0	-3.0	-1.0	4.0	2.0	-1.0	-2.0	4.0	0.0	3.0	9.0	-2.0	2.0	3.0	2.0	1.0	0.0	4.0
1959	126.592	9.33	0.67	-1.33	0.67	2.67	5.67	0.67	1.67	0.67	-0.33	3.67	5.67	-0.33	2.67	-0.33	-0.33	5.67	4.67	-0.33	0.67	3.67	0.67	0.67	3.67	4.67	-0.33	3.67
1966	127.071	10.0	5.0	1.0	4.0	-3.0	4.0	0.0	-2.0	-2.0	-5.0	4.0	3.0	1.0	-1.0	4.0	1.0	5.0	0.0	-5.0	0.0	1.0	1.0	1.0	5.0	0.0	0.0	12.0
1973	127.55	12.0	-3.0	1.0	2.0	0.0	8.0	-3.0	0.0	1.0	0.0	0.0	2.0	-7.0	-1.0	-4.0	-1.0	0.0	-1.0	3.0	2.0	-3.0	-2.0	2.0	-1.0	-6.0	-2.0	1.0
1980	128.03	8.0	1.0	5.0	10.0	11.0	5.0	-1.0	5.0	8.0	0.0	1.0	-5.0	2.0	4.0	-1.0	-1.0	4.0	5.0	5.0	6.0	5.0	-1.0	2.0	3.0	3.0	0.0	5.0
1987	128.51	9.33	-2.33	-6.33	-0.33	1.67	-1.33	-3.33	2.67	-2.33	0.67	3.67	4.67	4.67	1.67	-1.33	1.67	0.67	-3.33	1.67	-1.33	-1.33	2.67	-3.33	-0.33	2.67	-5.33	3.67
1994	128.99	5.67	8.33	10.33	2.33	3.33	16.33	1.33	5.33	7.33	2.33	6.33	3.33	6.33	4.33	2.33	6.33	7.33	2.33	4.33	9.33	1.33	-1.67	4.33	4.33	0.33	8.33	6.33
2001	129.471	9.67	2.33	0.33	1.33	0.33	-4.67	0.33	-2.67	-0.67	-6.67	2.33	1.33	6.33	-3.67	5.33	-1.67	4.33	5.33	5.33	-3.67	-2.67	1.33	-0.67	-3.67	-2.67	0.33	3.33
2008	129.952	8.33	0.67	0.67	1.67	-0.33	1.67	-1.33	-1.33	-0.33	1.67	-1.33	2.67	-2.33	2.67	-2.33	-0.33	2.67	0.67	-0.33	4.67	1.67	2.67	0.67	-1.33	1.67	-0.33	0.67
2015	130.433	7.33	-2.33	4.67	4.67	-3.33	8.67	-2.33	-2.33	-3.33	3.67	-4.33	1.67	1.67	1.67	0.67	4.67	1.67	-0.33	-0.33	-1.33	3.67	-3.33	7.67	6.67	1.67	7.67	10.67
2022	130.915	7.0	3.0	3.0	5.0	-4.0	-1.0	2.0	6.0	-3.0	-1.0	4.0	9.0	1.0	1.0	3.0	-1.0	8.0	8.0	1.0	2.0	1.0	6.0	9.0	-2.0	0.0	0.0	4.0
2029	131.397	4.33	6.67	4.67	5.67	7.67	5.67	9.67	0.67	6.67	4.67	3.67	-0.33	-0.33	4.67	9.67	5.67	4.67	2.67	2.67	6.67	7.67	3.67	13.67	2.67	7.67	5.67	-1.33
2036	131.879	6.0	2.0	6.0	4.0	7.0	5.0	6.0	5.0	2.0	3.0	3.0	6.0	2.0	-2.0	9.0	0.0	5.0	5.0	8.0	0.0	6.0	4.0	1.0	4.0	2.0	3.0	-1.0
2043	132.362	8.33	-0.33	3.67	0.67	1.67	-6.33	3.67	-3.33	2.67	-0.33	-1.33	2.67	1.67	2.67	1.67	-2.33	-0.33	-2.33	-0.33	-0.33	2.67	2.67	3.67	0.67	-1.33	-2.33	1.67
2047	132.638	8.0	-1.0	0.0	2.0	3.0	-5.0	-2.0	0.0	-3.0	-6.0	4.0	0.0	2.0	4.0	6.0	-3.0	0.0	-1.0	1.0	1.0	4.0	3.0	4.0	-2.0	2.0	-5.0	-4.0