File: EDX Back Ups and Old Files/EDX Processed Data/High pH SF 25C 6d.txt
Name: High pH SF 25C 6d
Number of Scans: 29
Positions: [-13.0, -12.75, -12.5, -12.25, -12.0, -11.75, -11.5, -11.25, -11.0, -10.75, -10.5, -10.25, -10.0, -9.75, -9.5, -9.25, -9.0, -8.75, -8.5, -8.25, -8.0, -7.75, -7.5, -7.25, -7.0, -6.75, -6.5, -6.25, -6.0]
Points per Scan: 2048
Sample Edge: 3
Scans Off Sample: [0, 1, 2]
Conversion Features: [(275, 17444.3), (309, 19608.3), (913, 57981.7), (934, 59318.24), (1058, 67244.3)]
Degree of Fit: 3
Fit Coeffecients: [ 8.59183e-07 -0.001482  64.3003 -144.207]
pH: High
Steel Fiber: True
Aging Temp.: 25
Aging Atm.: 100% CO2
Aging Humidity: None
Aging Time: 6

*********
#Bins	Energy [keV]	Avg. Background	-12.25	-12.0	-11.75	-11.5	-11.25	-11.0	-10.75	-10.5	-10.25	-10.0	-9.75	-9.5	-9.25	-9.0	-8.75	-8.5	-8.25	-8.0	-7.75	-7.5	-7.25	-7.0	-6.75	-6.5	-6.25	-6.0
6	0.242	1916.33	-11.33	-125.33	-130.33	-77.33	-105.33	4.67	38.67	-99.33	-149.33	-74.33	-84.33	1.67	-21.33	-78.33	-53.33	-145.33	-27.33	44.67	3.67	-69.33	-90.33	-52.33	-20.33	-72.33	-76.33	-45.33
13	0.691	1245.33	27.67	-22.33	-31.33	-22.33	-35.33	-10.33	34.67	-39.33	14.67	4.67	-25.33	46.67	17.67	-11.33	-8.33	-10.33	-7.33	-12.33	58.67	-57.33	6.67	-0.33	-48.33	7.67	29.67	51.67
20	1.141	323.0	-36.0	2.0	-18.0	-31.0	4.0	-17.0	-37.0	-9.0	14.0	-13.0	-4.0	-16.0	18.0	-18.0	19.0	-33.0	-16.0	2.0	19.0	-10.0	-17.0	-24.0	-14.0	32.0	-13.0	-3.0
27	1.591	54.67	-3.67	-4.67	-3.67	-11.67	-8.67	-2.67	12.33	0.33	-8.67	-3.67	-4.67	0.33	3.33	-7.67	-4.67	-3.67	-2.67	-12.67	-2.67	2.33	-9.67	-7.67	-4.67	12.33	9.33	1.33
34	2.04	8.67	-1.67	-7.67	-2.67	-1.67	-0.67	-3.67	-2.67	-2.67	-6.67	-3.67	-0.67	-3.67	0.33	-1.67	5.33	0.33	0.33	-3.67	-1.67	-0.67	-3.67	-4.67	2.33	-1.67	-1.67	-3.67
41	2.49	1.0	0.0	1.0	-1.0	0.0	0.0	0.0	0.0	0.0	-1.0	-1.0	-1.0	-1.0	0.0	0.0	0.0	0.0	1.0	0.0	-1.0	1.0	-1.0	3.0	1.0	2.0	1.0	0.0
48	2.939	0.67	-0.67	0.33	0.33	-0.67	-0.67	-0.67	0.33	-0.67	-0.67	-0.67	-0.67	0.33	-0.67	-0.67	0.33	-0.67	0.33	-0.67	-0.67	0.33	-0.67	-0.67	-0.67	0.33	2.33	0.33
55	3.388	0.33	-0.33	-0.33	-0.33	-0.33	0.67	-0.33	0.67	-0.33	0.67	-0.33	-0.33	-0.33	0.67	-0.33	0.67	-0.33	-0.33	-0.33	-0.33	0.67	-0.33	-0.33	-0.33	-0.33	0.67	-0.33
62	3.837	0.0	0.0	0.0	0.0	0.0	0.0	1.0	2.0	0.0	0.0	0.0	1.0	0.0	1.0	0.0	0.0	2.0	1.0	0.0	0.0	1.0	2.0	0.0	0.0	0.0	0.0	0.0
69	4.286	0.33	0.67	-0.33	-0.33	-0.33	1.67	0.67	-0.33	0.67	-0.33	-0.33	-0.33	-0.33	-0.33	-0.33	0.67	-0.33	-0.33	1.67	-0.33	0.67	-0.33	0.67	-0.33	-0.33	-0.33	-0.33
76	4.734	1.0	0.0	-1.0	-1.0	-1.0	-1.0	0.0	-1.0	0.0	0.0	-1.0	0.0	-1.0	-1.0	-1.0	-1.0	-1.0	-1.0	0.0	-1.0	0.0	-1.0	-1.0	0.0	0.0	-1.0	-1.0
83	5.183	0.67	-0.67	-0.67	0.33	0.33	0.33	-0.67	-0.67	-0.67	-0.67	-0.67	-0.67	0.33	0.33	-0.67	-0.67	0.33	-0.67	2.33	-0.67	1.33	-0.67	0.33	0.33	-0.67	0.33	0.33
90	5.631	0.67	-0.67	0.33	-0.67	-0.67	1.33	-0.67	-0.67	-0.67	0.33	0.33	0.33	-0.67	0.33	0.33	-0.67	0.33	0.33	0.33	-0.67	0.33	-0.67	0.33	0.33	-0.67	-0.67	2.33
97	6.08	1.0	-1.0	-1.0	-1.0	1.0	-1.0	0.0	-1.0	-1.0	-1.0	0.0	1.0	-1.0	2.0	0.0	0.0	0.0	0.0	-1.0	1.0	1.0	0.0	-1.0	2.0	0.0	4.0	1.0
104	6.528	1.33	-0.33	1.67	-0.33	-1.33	0.67	-0.33	0.67	-0.33	-0.33	1.67	-0.33	2.67	-1.33	-1.33	0.67	-1.33	-0.33	-0.33	-0.33	1.67	0.67	0.67	-0.33	2.67	1.67	-1.33
111	6.976	2.0	0.0	-1.0	2.0	0.0	2.0	0.0	2.0	0.0	-2.0	1.0	0.0	3.0	0.0	-1.0	3.0	1.0	0.0	-1.0	2.0	0.0	0.0	1.0	3.0	-1.0	1.0	1.0
118	7.424	4.67	-2.67	-2.67	-1.67	-1.67	-2.67	-3.67	-0.67	-0.67	-1.67	-0.67	-1.67	3.33	-2.67	-1.67	-1.67	-3.67	-1.67	0.33	-1.67	-1.67	-1.67	-1.67	-0.67	-2.67	-4.67	1.33
125	7.872	3.67	0.33	1.33	2.33	1.33	3.33	-1.67	-1.67	2.33	2.33	1.33	0.33	2.33	0.33	0.33	4.33	1.33	5.33	-0.67	1.33	1.33	3.33	2.33	4.33	-1.67	0.33	6.33
132	8.32	5.33	1.67	-1.33	5.67	-0.33	4.67	0.67	2.67	-2.33	6.67	0.67	1.67	-2.33	0.67	4.67	-0.33	2.67	7.67	5.67	1.67	2.67	1.67	-2.33	0.67	3.67	2.67	2.67
139	8.767	7.33	-0.33	-4.33	1.67	8.67	-2.33	0.67	-0.33	1.67	4.67	3.67	-1.33	-0.33	3.67	2.67	-1.33	2.67	7.67	-2.33	2.67	3.67	2.67	1.67	4.67	1.67	0.67	2.67
146	9.215	7.0	-1.0	1.0	3.0	3.0	-1.0	-3.0	7.0	4.0	0.0	3.0	3.0	-1.0	5.0	2.0	-1.0	1.0	6.0	0.0	2.0	3.0	2.0	5.0	4.0	8.0	6.0	3.0
153	9.662	8.0	2.0	8.0	6.0	3.0	4.0	3.0	-5.0	4.0	-2.0	4.0	0.0	2.0	-1.0	8.0	4.0	2.0	1.0	3.0	-2.0	3.0	0.0	4.0	3.0	5.0	3.0	2.0
160	10.109	11.33	2.67	-7.33	-2.33	0.67	1.67	-0.33	5.67	0.67	-1.33	2.67	-0.33	2.67	-4.33	2.67	-2.33	1.67	-0.33	-1.33	0.67	1.67	1.67	-1.33	-3.33	-1.33	-6.33	3.67
167	10.557	9.0	-3.0	-2.0	1.0	-3.0	-1.0	2.0	1.0	3.0	8.0	3.0	2.0	4.0	3.0	8.0	1.0	3.0	5.0	3.0	-1.0	-5.0	10.0	-3.0	0.0	4.0	8.0	0.0
174	11.004	10.33	-2.33	5.67	-6.33	3.67	3.67	13.67	-4.33	0.67	-5.33	1.67	0.67	3.67	-0.33	0.67	-3.33	-0.33	-2.33	-2.33	-1.33	-2.33	-1.33	-1.33	3.67	3.67	3.67	3.67
181	11.451	10.33	3.67	-0.33	4.67	0.67	5.67	-0.33	0.67	-0.33	0.67	3.67	2.67	8.67	-0.33	0.67	7.67	-2.33	0.67	0.67	0.67	-1.33	6.67	3.67	0.67	3.67	1.67	-0.33
188	11.898	6.33	10.67	7.67	4.67	8.67	3.67	4.67	5.67	8.67	4.67	6.67	2.67	-0.33	8.67	7.67	9.67	8.67	4.67	13.67	-0.33	10.67	11.67	10.67	4.67	0.67	4.67	3.67
195	12.344	10.33	-2.33	-0.33	-2.33	0.67	-4.33	6.67	-0.33	4.67	-2.33	2.67	2.67	2.67	6.67	5.67	-0.33	1.67	0.67	-1.33	3.67	3.67	0.67	-3.33	7.67	3.67	-2.33	0.67
202	12.791	11.67	2.33	-2.67	2.33	1.33	-0.67	-0.67	-0.67	3.33	4.33	-0.67	-3.67	-2.67	2.33	-1.67	5.33	-1.67	-1.67	-2.67	-3.67	-2.67	6.33	6.33	-3.67	5.33	0.33	-1.67
209	13.238	11.33	-4.33	-4.33	3.67	-6.33	1.67	-3.33	-1.33	3.67	3.67	-2.33	2.67	-4.33	2.67	0.67	0.67	6.67	2.67	-0.33	-3.33	1.67	8.67	3.67	5.67	-1.33	-0.33	3.67
216	13.684	9.67	2.33	0.33	-4.67	-0.67	-2.67	2.33	-1.67	0.33	1.33	2.33	3.33	-0.67	3.33	-1.67	-1.67	2.33	3.33	4.33	-2.67	2.33	0.33	-2.67	4.33	10.33	2.33	-0.67
223	14.131	8.33	1.67	6.67	0.67	5.67	-4.33	-0.33	3.67	4.67	4.67	4.67	2.67	-0.33	3.67	-1.33	-2.33	-0.33	6.67	-0.33	3.67	1.67	4.67	5.67	-0.33	2.67	-0.33	4.67
230	14.577	9.0	-1.0	2.0	2.0	0.0	-1.0	3.0	3.0	0.0	-1.0	0.0	3.0	7.0	2.0	3.0	6.0	4.0	6.0	-1.0	7.0	-2.0	0.0	10.0	4.0	0.0	-1.0	-2.0
237	15.023	8.67	4.33	-0.67	9.33	2.33	14.33	2.33	-0.67	1.33	3.33	1.33	2.33	10.33	3.33	3.33	2.33	7.33	8.33	-1.67	3.33	2.33	5.33	7.33	5.33	4.33	3.33	4.33
244	15.469	7.0	9.0	7.0	3.0	1.0	6.0	3.0	1.0	3.0	6.0	6.0	10.0	2.0	8.0	11.0	4.0	-1.0	-3.0	9.0	6.0	2.0	-3.0	6.0	-3.0	11.0	17.0	1.0
251	15.915	7.0	7.0	2.0	2.0	10.0	4.0	7.0	0.0	5.0	6.0	4.0	4.0	3.0	10.0	5.0	3.0	5.0	-1.0	-1.0	4.0	6.0	10.0	12.0	2.0	8.0	13.0	3.0
258	16.361	11.0	-7.0	2.0	1.0	1.0	-5.0	3.0	-4.0	-1.0	-5.0	1.0	-2.0	3.0	0.0	0.0	-1.0	0.0	1.0	-5.0	0.0	-1.0	-5.0	-4.0	-2.0	8.0	3.0	2.0
265	16.807	7.33	11.67	3.67	0.67	10.67	1.67	10.67	0.67	1.67	-0.33	2.67	5.67	-2.33	2.67	2.67	10.67	-0.33	4.67	5.67	5.67	8.67	4.67	1.67	3.67	11.67	4.67	4.67
272	17.253	8.67	1.33	1.33	-4.67	1.33	1.33	1.33	2.33	3.33	-2.67	4.33	8.33	-0.67	6.33	4.33	6.33	1.33	4.33	1.33	-0.67	-1.67	5.33	4.33	0.33	3.33	2.33	-1.67
279	17.699	6.33	6.67	-0.33	5.67	2.67	7.67	0.67	4.67	3.67	12.67	5.67	5.67	0.67	3.67	2.67	2.67	5.67	4.67	6.67	6.67	4.67	8.67	8.67	-1.33	8.67	2.67	5.67
286	18.145	9.67	1.33	-1.67	1.33	-0.67	-2.67	2.33	7.33	-0.67	1.33	-0.67	-0.67	-1.67	-1.67	2.33	4.33	-2.67	3.33	6.33	-1.67	4.33	4.33	3.33	2.33	3.33	2.33	3.33
293	18.59	9.33	-3.33	3.67	-4.33	7.67	2.67	4.67	-0.33	1.67	1.67	4.67	5.67	-2.33	4.67	7.67	7.67	-2.33	2.67	-0.33	2.67	1.67	5.67	0.67	3.67	1.67	1.67	8.67
300	19.036	12.0	-3.0	1.0	1.0	-2.0	1.0	-4.0	-2.0	2.0	-2.0	-4.0	3.0	-5.0	-5.0	-1.0	-1.0	2.0	2.0	2.0	-1.0	3.0	4.0	0.0	-3.0	-1.0	-4.0	5.0
307	19.481	10.33	0.67	-3.33	1.67	-1.33	2.67	-1.33	-0.33	1.67	3.67	-0.33	6.67	-3.33	-2.33	5.67	5.67	-6.33	-3.33	3.67	-5.33	-1.33	-1.33	6.67	4.67	5.67	5.67	-2.33
314	19.927	9.33	-2.33	1.67	2.67	4.67	-1.33	0.67	1.67	4.67	6.67	2.67	-3.33	2.67	3.67	3.67	-2.33	-3.33	3.67	1.67	6.67	4.67	3.67	2.67	0.67	0.67	4.67	-1.33
321	20.372	11.0	1.0	1.0	0.0	-1.0	5.0	-2.0	-2.0	1.0	0.0	-2.0	1.0	-4.0	-2.0	4.0	1.0	2.0	5.0	-3.0	6.0	2.0	7.0	-1.0	1.0	-1.0	6.0	9.0
328	20.817	8.33	2.67	1.67	-1.33	-0.33	-0.33	5.67	3.67	2.67	-1.33	2.67	-0.33	6.67	-1.33	4.67	2.67	2.67	-1.33	-1.33	5.67	4.67	5.67	7.67	3.67	-1.33	5.67	0.67
335	21.262	8.67	2.33	0.33	4.33	-3.67	-0.67	3.33	4.33	0.33	-2.67	0.33	5.33	6.33	2.33	7.33	5.33	3.33	-0.67	-0.67	9.33	1.33	5.33	2.33	-2.67	4.33	-1.67	7.33
342	21.708	12.67	-5.67	-2.67	1.33	-2.67	-0.67	-2.67	0.33	-4.67	3.33	-8.67	-2.67	-2.67	-0.67	0.33	-7.67	0.33	3.33	2.33	-5.67	-3.67	-0.67	-4.67	-5.67	-0.67	1.33	1.33
349	22.153	9.0	-4.0	-4.0	-3.0	-2.0	0.0	4.0	3.0	1.0	3.0	2.0	4.0	2.0	0.0	5.0	2.0	-1.0	2.0	7.0	3.0	-1.0	4.0	3.0	-2.0	1.0	6.0	5.0
356	22.598	11.67	-4.67	-8.67	-0.67	-2.67	0.33	-1.67	0.33	-2.67	0.33	-3.67	2.33	-0.67	-3.67	-3.67	6.33	-2.67	1.33	1.33	-0.67	2.33	-0.67	1.33	1.33	1.33	5.33	-0.67
363	23.043	7.33	5.67	-0.33	-0.33	2.67	3.67	-1.33	-4.33	1.67	0.67	2.67	-3.33	-1.33	6.67	3.67	7.67	4.67	4.67	-2.33	3.67	8.67	-2.33	2.67	5.67	1.67	7.67	4.67
370	23.488	6.33	-0.33	3.67	3.67	3.67	6.67	-0.33	2.67	0.67	3.67	2.67	0.67	0.67	4.67	2.67	3.67	-0.33	3.67	7.67	6.67	2.67	3.67	4.67	5.67	3.67	1.67	0.67
377	23.932	10.33	-4.33	2.67	-2.33	-2.33	-0.33	1.67	0.67	0.67	-2.33	-4.33	-1.33	-4.33	-0.33	-4.33	-2.33	2.67	-3.33	-3.33	-8.33	3.67	-5.33	-0.33	-0.33	-4.33	-3.33	-8.33
384	24.377	9.33	-4.33	-1.33	0.67	-3.33	-1.33	-0.33	-4.33	-6.33	-0.33	-5.33	-2.33	-1.33	0.67	1.67	4.67	-4.33	-4.33	0.67	1.67	1.67	-2.33	-3.33	2.67	1.67	-2.33	-0.33
391	24.822	10.33	3.67	-6.33	-1.33	0.67	-4.33	-1.33	0.67	-1.33	-1.33	-0.33	-2.33	-1.33	-0.33	-3.33	1.67	-1.33	-5.33	1.67	-1.33	-2.33	-0.33	0.67	-2.33	-4.33	-1.33	-1.33
398	25.267	8.0	-2.0	0.0	-4.0	-4.0	0.0	4.0	3.0	-1.0	0.0	2.0	1.0	2.0	2.0	-1.0	6.0	7.0	2.0	-2.0	1.0	4.0	2.0	6.0	0.0	2.0	4.0	3.0
405	25.711	8.33	-0.33	2.67	-0.33	-0.33	0.67	3.67	1.67	-3.33	2.67	1.67	-1.33	6.67	-3.33	3.67	1.67	0.67	3.67	-1.33	1.67	3.67	0.67	0.67	0.67	4.67	3.67	0.67
412	26.156	9.33	-3.33	1.67	-1.33	-3.33	-0.33	-5.33	1.67	-3.33	-6.33	-1.33	1.67	2.67	-3.33	-1.33	4.67	2.67	1.67	3.67	-2.33	0.67	-0.33	3.67	-4.33	1.67	2.67	-2.33
419	26.601	6.0	1.0	0.0	2.0	5.0	3.0	0.0	2.0	4.0	0.0	6.0	4.0	6.0	-3.0	2.0	5.0	3.0	2.0	3.0	0.0	1.0	3.0	7.0	2.0	1.0	1.0	5.0
426	27.045	5.67	3.33	3.33	5.33	0.33	3.33	-3.67	5.33	6.33	5.33	2.33	3.33	1.33	-0.67	1.33	2.33	1.33	2.33	1.33	2.33	5.33	-0.67	5.33	1.33	4.33	6.33	7.33
433	27.49	6.67	-3.67	2.33	-2.67	0.33	4.33	1.33	4.33	-5.67	0.33	5.33	-0.67	0.33	4.33	5.33	-2.67	2.33	1.33	-0.67	3.33	0.33	7.33	1.33	0.33	-0.67	-0.67	3.33
440	27.934	6.0	-3.0	5.0	2.0	6.0	2.0	4.0	3.0	-1.0	3.0	1.0	-1.0	4.0	1.0	-1.0	3.0	-3.0	5.0	3.0	1.0	1.0	2.0	0.0	5.0	3.0	1.0	2.0
447	28.379	6.67	-1.67	-2.67	-0.67	-0.67	0.33	-2.67	3.33	-3.67	-1.67	4.33	-3.67	0.33	0.33	4.33	4.33	0.33	-2.67	8.33	-0.67	-1.67	-1.67	0.33	0.33	-1.67	-0.67	-0.67
454	28.823	5.33	4.67	0.67	0.67	0.67	0.67	0.67	-2.33	-0.33	0.67	4.67	1.67	0.67	3.67	-1.33	-2.33	2.67	1.67	6.67	3.67	-4.33	1.67	-0.33	1.67	2.67	0.67	2.67
461	29.267	8.33	-3.33	-6.33	-1.33	-2.33	6.67	-4.33	-2.33	-1.33	2.67	-1.33	3.67	-5.33	-5.33	-0.33	-1.33	2.67	-4.33	-0.33	-0.33	-6.33	3.67	1.67	0.67	3.67	5.67	-1.33
468	29.712	4.33	0.67	3.67	2.67	1.67	5.67	5.67	0.67	1.67	4.67	0.67	0.67	3.67	2.67	0.67	5.67	-0.33	3.67	0.67	-0.33	2.67	5.67	1.67	5.67	1.67	7.67	-1.33
475	30.156	6.67	1.33	0.33	3.33	1.33	2.33	-0.67	-0.67	2.33	1.33	3.33	-0.67	0.33	3.33	5.33	1.33	-2.67	1.33	1.33	0.33	7.33	0.33	5.33	1.33	0.33	2.33	-2.67
482	30.6	5.33	4.67	-2.33	-2.33	2.67	3.67	3.67	2.67	-1.33	2.67	0.67	-1.33	-0.33	2.67	-0.33	6.67	0.67	6.67	1.67	2.67	-1.33	1.67	2.67	4.67	4.67	5.67	-0.33
489	31.045	4.33	-0.33	1.67	1.67	2.67	2.67	0.67	1.67	1.67	-3.33	1.67	3.67	-1.33	3.67	1.67	11.67	1.67	2.67	1.67	10.67	-0.33	2.67	4.67	-1.33	1.67	0.67	3.67
496	31.489	5.67	-0.67	-2.67	-0.67	-3.67	-1.67	3.33	-0.67	0.33	3.33	-0.67	0.33	-1.67	2.33	1.33	3.33	1.33	-3.67	-4.67	0.33	-0.67	6.33	3.33	0.33	0.33	-2.67	-1.67
503	31.933	9.0	-4.0	-4.0	-3.0	-4.0	-5.0	-3.0	-6.0	-4.0	-3.0	2.0	-6.0	-5.0	-2.0	2.0	0.0	1.0	-5.0	-6.0	-1.0	-3.0	3.0	-4.0	-2.0	-1.0	-2.0	-3.0
510	32.377	6.33	1.67	-2.33	1.67	-0.33	1.67	-2.33	0.67	0.67	0.67	-0.33	-2.33	-1.33	-2.33	3.67	0.67	3.67	-1.33	-1.33	3.67	0.67	2.67	3.67	-1.33	4.67	1.67	-0.33
517	32.822	6.0	0.0	1.0	-2.0	-3.0	1.0	-4.0	-1.0	1.0	-3.0	2.0	-2.0	1.0	-2.0	-3.0	-3.0	-1.0	-4.0	6.0	0.0	6.0	-2.0	-1.0	0.0	4.0	1.0	-1.0
524	33.266	6.67	-0.67	1.33	2.33	-0.67	-0.67	0.33	3.33	-3.67	-1.67	-0.67	1.33	2.33	-1.67	7.33	-0.67	-3.67	-0.67	1.33	0.33	2.33	-2.67	-0.67	-2.67	-4.67	2.33	1.33
531	33.71	5.33	-0.33	2.67	2.67	3.67	2.67	1.67	1.67	3.67	2.67	-1.33	-0.33	3.67	-2.33	1.67	4.67	3.67	-2.33	1.67	1.67	-2.33	3.67	1.67	1.67	0.67	1.67	2.67
538	34.154	4.67	-0.67	0.33	-1.67	-1.67	1.33	-3.67	-0.67	2.33	1.33	-1.67	2.33	6.33	-1.67	1.33	7.33	0.33	0.33	-0.67	6.33	4.33	6.33	2.33	-0.67	0.33	3.33	-1.67
545	34.598	3.33	1.67	4.67	3.67	1.67	4.67	4.67	2.67	4.67	0.67	0.67	0.67	1.67	5.67	1.67	0.67	4.67	2.67	2.67	4.67	3.67	0.67	7.67	1.67	2.67	2.67	2.67
552	35.043	5.67	-1.67	-2.67	0.33	-1.67	-1.67	0.33	-0.67	-1.67	-0.67	-2.67	2.33	0.33	2.33	1.33	-0.67	0.33	2.33	-0.67	3.33	3.33	-4.67	0.33	5.33	3.33	3.33	-1.67
559	35.487	6.0	0.0	-1.0	-2.0	-2.0	-4.0	0.0	-2.0	-1.0	2.0	-1.0	0.0	-3.0	0.0	0.0	4.0	-1.0	2.0	0.0	-1.0	1.0	-1.0	-1.0	-2.0	0.0	2.0	0.0
566	35.931	6.0	-2.0	2.0	4.0	4.0	1.0	-3.0	2.0	1.0	4.0	-1.0	1.0	-1.0	-4.0	2.0	3.0	-4.0	1.0	3.0	-5.0	0.0	0.0	-2.0	-4.0	2.0	-2.0	-3.0
573	36.375	6.0	2.0	-1.0	3.0	3.0	-1.0	0.0	-2.0	2.0	-3.0	-1.0	0.0	-4.0	2.0	-2.0	2.0	1.0	3.0	1.0	2.0	-1.0	2.0	1.0	0.0	0.0	3.0	1.0
580	36.819	4.0	3.0	2.0	0.0	0.0	6.0	1.0	4.0	-1.0	2.0	-1.0	-1.0	-1.0	-1.0	1.0	4.0	1.0	1.0	3.0	-1.0	4.0	0.0	6.0	-2.0	4.0	3.0	0.0
587	37.263	7.67	-1.67	-3.67	0.33	-1.67	-3.67	2.33	-1.67	-2.67	0.33	-2.67	-5.67	0.33	-2.67	-1.67	2.33	-7.67	-4.67	-4.67	-1.67	-5.67	-1.67	-3.67	-2.67	0.33	3.33	1.33
594	37.707	5.33	-3.33	-3.33	3.67	-0.33	-3.33	-2.33	-1.33	-0.33	0.67	-1.33	2.67	1.67	1.67	-0.33	3.67	3.67	-0.33	2.67	1.67	0.67	1.67	1.67	-0.33	-0.33	1.67	-0.33
601	38.152	7.0	-5.0	-2.0	1.0	-1.0	0.0	-1.0	-1.0	-3.0	-2.0	-3.0	-2.0	-3.0	-1.0	2.0	-1.0	-1.0	4.0	-7.0	-2.0	-1.0	-4.0	-1.0	1.0	-4.0	-4.0	-4.0
608	38.596	5.0	-2.0	-4.0	3.0	2.0	0.0	-2.0	2.0	3.0	0.0	2.0	0.0	1.0	-1.0	1.0	-5.0	0.0	-1.0	0.0	1.0	-4.0	2.0	0.0	1.0	2.0	2.0	4.0
615	39.04	5.0	-1.0	0.0	4.0	3.0	1.0	2.0	0.0	2.0	-1.0	0.0	-2.0	2.0	1.0	1.0	-1.0	0.0	5.0	5.0	0.0	-1.0	0.0	4.0	2.0	1.0	-2.0	1.0
622	39.484	3.67	5.33	2.33	-0.67	-0.67	4.33	2.33	3.33	6.33	0.33	4.33	6.33	4.33	-2.67	4.33	2.33	-1.67	1.33	1.33	1.33	3.33	0.33	0.33	-0.67	3.33	-3.67	3.33
629	39.928	5.0	0.0	0.0	1.0	-3.0	3.0	3.0	-1.0	1.0	2.0	3.0	2.0	1.0	-4.0	-1.0	-2.0	4.0	-1.0	0.0	5.0	0.0	-1.0	-1.0	-3.0	0.0	4.0	1.0
636	40.372	5.0	-4.0	-1.0	-4.0	0.0	0.0	0.0	2.0	-1.0	5.0	4.0	1.0	3.0	4.0	2.0	5.0	0.0	1.0	2.0	-2.0	0.0	2.0	0.0	1.0	1.0	-2.0	4.0
643	40.817	5.67	0.33	1.33	-0.67	2.33	2.33	-1.67	-2.67	2.33	0.33	6.33	2.33	-1.67	2.33	2.33	-2.67	2.33	2.33	-0.67	-1.67	-0.67	0.33	1.33	1.33	2.33	0.33	-0.67
650	41.261	8.0	1.0	-2.0	-1.0	3.0	-5.0	-5.0	-2.0	-5.0	4.0	-4.0	-2.0	-2.0	-4.0	2.0	1.0	-1.0	-4.0	-5.0	4.0	-5.0	-6.0	-3.0	-2.0	-1.0	-1.0	-1.0
657	41.705	5.33	1.67	4.67	0.67	4.67	-1.33	1.67	-3.33	3.67	5.67	-2.33	0.67	-2.33	-0.33	0.67	2.67	2.67	3.67	0.67	-0.33	-0.33	0.67	3.67	-2.33	-2.33	-3.33	0.67
664	42.149	6.33	1.67	-1.33	3.67	-0.33	-2.33	-4.33	1.67	1.67	-2.33	-1.33	-2.33	-2.33	-0.33	1.67	0.67	2.67	1.67	-2.33	2.67	0.67	-1.33	-1.33	-3.33	2.67	-1.33	1.67
671	42.594	7.33	-3.33	-1.33	0.67	-4.33	-6.33	-3.33	0.67	-1.33	0.67	-6.33	-2.33	-1.33	0.67	-4.33	-0.33	-1.33	-5.33	-4.33	1.67	-1.33	-1.33	-1.33	-6.33	-1.33	9.67	0.67
678	43.038	4.33	8.67	2.67	-2.33	1.67	3.67	0.67	0.67	2.67	1.67	4.67	2.67	1.67	4.67	-1.33	4.67	5.67	0.67	-0.33	3.67	2.67	-1.33	8.67	-0.33	5.67	0.67	3.67
685	43.482	8.67	5.33	-2.67	-2.67	0.33	-5.67	2.33	-5.67	-4.67	-1.67	-8.67	-4.67	-3.67	-4.67	1.33	-5.67	-0.67	-5.67	-0.67	-1.67	-3.67	-3.67	-1.67	-1.67	-1.67	-6.67	-2.67
692	43.927	9.33	-4.33	-7.33	-2.33	-4.33	-2.33	-2.33	-4.33	0.67	-3.33	-5.33	-6.33	-5.33	-2.33	-1.33	-5.33	-3.33	-0.33	-0.33	-1.33	-7.33	-8.33	-2.33	-1.33	-3.33	-5.33	-4.33
699	44.371	5.67	-3.67	-1.67	1.33	4.33	-4.67	2.33	2.33	-1.67	5.33	-2.67	1.33	1.33	0.33	1.33	-0.67	-1.67	0.33	2.33	5.33	2.33	3.33	8.33	1.33	4.33	-1.67	0.33
706	44.815	8.0	-4.0	-1.0	-2.0	-1.0	-2.0	2.0	-2.0	-1.0	0.0	-2.0	0.0	-5.0	-2.0	1.0	-5.0	-4.0	2.0	-2.0	-1.0	-5.0	-2.0	-2.0	2.0	-2.0	4.0	0.0
713	45.26	4.67	1.33	-0.67	1.33	-0.67	0.33	0.33	5.33	5.33	5.33	3.33	3.33	4.33	3.33	1.33	6.33	5.33	2.33	6.33	2.33	-3.67	2.33	0.33	5.33	8.33	5.33	3.33
720	45.704	7.33	1.67	-5.33	3.67	-1.33	1.67	4.67	-1.33	-3.33	4.67	0.67	0.67	-1.33	-2.33	-1.33	-2.33	-3.33	-3.33	-2.33	4.67	-4.33	-0.33	-2.33	-0.33	-0.33	-2.33	1.67
727	46.149	7.0	-3.0	0.0	1.0	2.0	2.0	-1.0	3.0	4.0	5.0	4.0	3.0	-1.0	1.0	4.0	0.0	-2.0	-1.0	-3.0	2.0	-3.0	7.0	-1.0	3.0	-3.0	-2.0	-3.0
734	46.594	7.33	1.67	1.67	0.67	-2.33	3.67	2.67	4.67	0.67	1.67	2.67	0.67	-0.33	-2.33	-0.33	8.67	1.67	1.67	1.67	-3.33	-4.33	-1.33	3.67	-0.33	1.67	2.67	-3.33
741	47.038	11.67	-4.67	-5.67	-4.67	0.33	-5.67	-1.67	-1.67	-3.67	-6.67	-4.67	-7.67	-3.67	-0.67	-3.67	-1.67	-2.67	-7.67	-5.67	-5.67	-4.67	-4.67	-5.67	-1.67	-0.67	-5.67	-4.67
748	47.483	10.33	0.67	2.67	0.67	3.67	-2.33	2.67	0.67	-4.33	-1.33	-2.33	-2.33	-9.33	-4.33	6.67	0.67	-0.33	-5.33	-5.33	-3.33	-2.33	-2.33	-2.33	-3.33	-0.33	-5.33	-3.33
755	47.928	7.33	-0.33	2.67	-3.33	-0.33	0.67	6.67	-0.33	1.67	1.67	7.67	2.67	1.67	3.67	1.67	0.67	-1.33	0.67	1.67	5.67	2.67	2.67	-1.33	7.67	2.67	1.67	3.67
762	48.372	12.33	0.67	-4.33	-4.33	0.67	-3.33	-5.33	-7.33	-3.33	-4.33	-2.33	-4.33	-0.33	-6.33	-5.33	-5.33	-7.33	-2.33	-1.33	-8.33	-8.33	-5.33	-3.33	0.67	-5.33	-5.33	-3.33
769	48.817	11.0	-3.0	-4.0	-1.0	1.0	4.0	-4.0	-4.0	-1.0	-4.0	-4.0	-1.0	-6.0	-1.0	1.0	-8.0	2.0	3.0	1.0	-4.0	-6.0	-5.0	1.0	1.0	-4.0	-7.0	0.0
776	49.262	11.0	-5.0	-1.0	-2.0	-4.0	-2.0	-3.0	-1.0	3.0	0.0	-9.0	0.0	-4.0	-1.0	-8.0	-2.0	1.0	-4.0	-1.0	-2.0	2.0	-5.0	3.0	0.0	-1.0	-7.0	-1.0
783	49.707	10.0	-2.0	5.0	-5.0	-3.0	4.0	-6.0	-3.0	-2.0	2.0	0.0	0.0	-2.0	-3.0	5.0	1.0	-6.0	-3.0	-3.0	2.0	2.0	4.0	-5.0	1.0	3.0	-2.0	-1.0
790	50.152	9.33	0.67	-0.33	5.67	-3.33	0.67	-0.33	3.67	-0.33	0.67	1.67	7.67	1.67	-2.33	7.67	4.67	3.67	-1.33	4.67	9.67	3.67	-4.33	9.67	8.67	2.67	1.67	-3.33
797	50.597	15.67	-0.67	-3.67	-4.67	-0.67	0.33	-1.67	-2.67	0.33	-0.67	2.33	-0.67	0.33	-3.67	0.33	-5.67	3.33	-1.67	0.33	0.33	4.33	-8.67	-0.67	2.33	-4.67	-4.67	-0.67
804	51.042	10.33	-2.33	-1.33	6.67	6.67	3.67	9.67	8.67	6.67	12.67	9.67	19.67	10.67	15.67	15.67	11.67	12.67	11.67	14.67	15.67	6.67	1.67	20.67	7.67	11.67	8.67	14.67
811	51.487	13.0	2.0	0.0	-1.0	-4.0	-6.0	-4.0	6.0	11.0	18.0	19.0	34.0	21.0	22.0	14.0	26.0	28.0	32.0	11.0	20.0	17.0	23.0	13.0	13.0	16.0	24.0	20.0
818	51.932	13.33	-4.33	-0.33	0.67	0.67	-7.33	-10.33	7.67	12.67	14.67	19.67	13.67	25.67	13.67	35.67	12.67	16.67	17.67	18.67	15.67	5.67	6.67	18.67	21.67	15.67	15.67	10.67
825	52.377	12.67	-0.67	3.33	-3.67	-5.67	-6.67	-4.67	-1.67	0.33	14.33	1.33	10.33	2.33	0.33	2.33	6.33	11.33	-1.67	0.33	10.33	6.33	6.33	4.33	5.33	10.33	14.33	5.33
832	52.823	17.33	-8.33	-9.33	-8.33	-12.33	-5.33	-4.33	-3.33	-7.33	1.67	-7.33	4.67	-0.33	-2.33	-6.33	-3.33	-4.33	-4.33	-8.33	-6.33	-6.33	-4.33	-4.33	-0.33	-6.33	-8.33	-5.33
839	53.268	12.0	2.0	-5.0	0.0	3.0	-1.0	2.0	4.0	-3.0	2.0	0.0	2.0	-3.0	-1.0	9.0	-4.0	-1.0	-1.0	-1.0	-5.0	-2.0	3.0	-3.0	-3.0	9.0	2.0	2.0
846	53.713	10.67	4.33	3.33	-0.67	-0.67	1.33	-0.67	-3.67	3.33	6.33	7.33	4.33	4.33	-4.67	1.33	-4.67	-0.67	3.33	2.33	8.33	6.33	0.33	0.33	4.33	4.33	7.33	2.33
853	54.159	14.33	-5.33	-2.33	-3.33	-0.33	2.67	-0.33	-0.33	-3.33	0.67	1.67	-0.33	-1.33	-0.33	-5.33	-4.33	-3.33	-1.33	-1.33	-0.33	2.67	-2.33	0.67	-1.33	1.67	3.67	-4.33
860	54.604	13.67	0.33	-5.67	0.33	2.33	-2.67	3.33	-4.67	-5.67	2.33	-0.67	2.33	0.33	0.33	-0.67	-3.67	-3.67	-6.67	-0.67	4.33	-2.67	1.33	-1.67	-4.67	-1.67	-2.67	-2.67
867	55.05	13.33	-5.33	2.67	5.67	2.67	2.67	0.67	-1.33	-6.33	-1.33	3.67	-4.33	-5.33	-2.33	6.67	-1.33	-4.33	-5.33	3.67	-4.33	-0.33	-2.33	-6.33	-5.33	-2.33	0.67	2.67
874	55.496	13.67	-4.67	-1.67	0.33	-2.67	-5.67	-3.67	-1.67	3.33	-4.67	-1.67	3.33	-2.67	4.33	-0.67	2.33	3.33	-8.67	-0.67	1.33	3.33	6.33	-3.67	-5.67	-2.67	-0.67	-10.67
881	55.942	12.33	-0.33	1.67	-4.33	4.67	-2.33	-4.33	-0.33	0.67	8.67	-4.33	7.67	0.67	2.67	-3.33	-0.33	2.67	0.67	6.67	0.67	-1.33	-1.33	-0.33	-3.33	1.67	1.67	3.67
888	56.387	16.0	-3.0	-1.0	2.0	-2.0	-5.0	-2.0	-4.0	-1.0	-4.0	-7.0	-2.0	-2.0	-6.0	-4.0	-2.0	-2.0	-7.0	-1.0	2.0	-8.0	-2.0	-9.0	-6.0	-1.0	-4.0	-3.0
895	56.833	14.67	5.33	-3.67	-5.67	-3.67	-3.67	-0.67	5.33	0.33	-4.67	0.33	4.33	1.33	-6.67	-4.67	-2.67	-0.67	-6.67	0.33	-3.67	-2.67	-8.67	0.33	-2.67	6.33	-0.67	-3.67
902	57.279	16.0	0.0	4.0	-2.0	-2.0	-6.0	-3.0	-8.0	1.0	-3.0	-1.0	-7.0	2.0	-2.0	0.0	-2.0	-3.0	-6.0	-9.0	-7.0	-4.0	-5.0	1.0	1.0	-5.0	-6.0	2.0
909	57.726	19.0	-1.0	-3.0	-6.0	1.0	2.0	-2.0	-4.0	4.0	-4.0	-8.0	-6.0	-4.0	-1.0	1.0	-7.0	-2.0	-6.0	0.0	-2.0	-7.0	-4.0	1.0	-2.0	3.0	2.0	-2.0
916	58.172	19.33	-10.33	-1.33	-6.33	-5.33	-2.33	-10.33	0.67	7.67	3.67	-0.33	2.67	-7.33	-4.33	-1.33	-5.33	-4.33	-4.33	-4.33	-6.33	-1.33	-4.33	-9.33	0.67	-6.33	-10.33	0.67
923	58.618	14.0	7.0	4.0	4.0	-2.0	2.0	-3.0	4.0	2.0	7.0	6.0	7.0	1.0	0.0	-7.0	3.0	7.0	2.0	4.0	-2.0	-2.0	-2.0	-3.0	-1.0	3.0	-5.0	-1.0
930	59.064	18.33	4.67	-3.33	-1.33	8.67	3.67	-2.33	3.67	-0.33	-4.33	-1.33	0.67	4.67	-8.33	-0.33	-0.33	-6.33	-1.33	-0.33	5.67	3.67	-1.33	0.67	4.67	-5.33	5.67	-9.33
937	59.511	17.67	-6.67	2.33	-0.67	1.33	-2.67	-1.67	3.33	6.33	-2.67	-3.67	-1.67	7.33	5.33	0.33	2.33	2.33	-0.67	-4.67	6.33	11.33	-6.67	2.33	1.33	1.33	-5.67	0.33
944	59.957	12.0	6.0	6.0	4.0	4.0	3.0	4.0	2.0	6.0	12.0	0.0	6.0	5.0	2.0	-2.0	1.0	2.0	2.0	3.0	10.0	1.0	-2.0	1.0	-4.0	4.0	-5.0	-1.0
951	60.404	15.33	6.67	-5.33	4.67	1.67	-3.33	-0.33	-3.33	-3.33	3.67	-11.33	1.67	-3.33	-5.33	-8.33	-0.33	0.67	0.67	-2.33	-5.33	-5.33	-1.33	0.67	-5.33	3.67	-2.33	1.67
958	60.851	12.67	0.33	2.33	2.33	7.33	0.33	4.33	1.33	-6.67	4.33	-4.67	1.33	-0.67	-1.67	1.33	3.33	-1.67	2.33	0.33	1.33	2.33	4.33	0.33	1.33	-5.67	-0.67	2.33
965	61.298	12.67	4.33	10.33	0.33	1.33	0.33	-4.67	1.33	14.33	-8.67	-2.67	-3.67	15.33	6.33	2.33	2.33	3.33	3.33	9.33	-1.67	-3.67	8.33	4.33	3.33	-7.67	-0.67	0.33
972	61.745	14.33	1.67	4.67	-4.33	8.67	5.67	5.67	2.67	0.67	-2.33	3.67	-1.33	3.67	-1.33	-2.33	1.67	-1.33	-0.33	-0.33	-3.33	6.67	3.67	2.67	5.67	-3.33	3.67	-6.33
979	62.192	19.33	-5.33	-3.33	-5.33	-3.33	-4.33	-2.33	0.67	-3.33	-1.33	-4.33	2.67	-11.33	-4.33	5.67	-4.33	-3.33	-4.33	-0.33	-8.33	0.67	-2.33	-9.33	-11.33	-0.33	-9.33	-5.33
986	62.639	19.67	0.33	-5.67	-4.67	-6.67	-8.67	-3.67	-0.67	4.33	5.33	-1.67	0.33	-10.67	1.33	-2.67	-6.67	-5.67	3.33	-1.67	-5.67	-5.67	0.33	-8.67	1.33	-1.67	-8.67	-5.67
993	63.086	17.67	2.33	-5.67	7.33	10.33	-2.67	-3.67	-0.67	-3.67	-1.67	-0.67	8.33	-2.67	-8.67	-1.67	-4.67	1.33	4.33	2.33	-4.67	5.33	6.33	-2.67	-7.67	-2.67	-4.67	-2.67
1000	63.533	13.0	7.0	1.0	3.0	5.0	-1.0	6.0	4.0	1.0	4.0	6.0	-3.0	6.0	1.0	9.0	3.0	0.0	5.0	3.0	2.0	4.0	2.0	-2.0	-5.0	5.0	3.0	-4.0
1007	63.981	16.0	8.0	0.0	-4.0	1.0	3.0	2.0	1.0	0.0	7.0	3.0	2.0	0.0	5.0	-3.0	0.0	3.0	2.0	2.0	-2.0	3.0	-1.0	2.0	3.0	-1.0	4.0	3.0
1014	64.428	14.67	12.33	3.33	-1.67	-0.67	11.33	4.33	3.33	3.33	1.33	-3.67	6.33	4.33	2.33	-0.67	3.33	3.33	0.33	9.33	3.33	6.33	1.33	9.33	-4.67	3.33	1.33	0.33
1021	64.876	15.33	12.67	4.67	17.67	16.67	3.67	8.67	14.67	1.67	11.67	4.67	-1.33	2.67	12.67	5.67	3.67	7.67	6.67	11.67	5.67	6.67	3.67	4.67	8.67	10.67	5.67	-1.33
1028	65.324	17.33	16.67	29.67	18.67	41.67	22.67	20.67	25.67	5.67	18.67	15.67	18.67	21.67	14.67	1.67	11.67	2.67	5.67	11.67	19.67	1.67	9.67	14.67	11.67	6.67	3.67	7.67
1035	65.772	15.0	16.0	26.0	41.0	40.0	38.0	28.0	37.0	23.0	20.0	30.0	26.0	16.0	23.0	17.0	12.0	10.0	13.0	9.0	15.0	17.0	11.0	20.0	10.0	11.0	23.0	21.0
1042	66.22	15.0	10.0	39.0	20.0	32.0	27.0	32.0	30.0	35.0	17.0	22.0	27.0	25.0	9.0	15.0	15.0	19.0	7.0	12.0	12.0	4.0	12.0	11.0	22.0	13.0	7.0	14.0
1049	66.668	16.0	17.0	17.0	17.0	5.0	10.0	6.0	9.0	1.0	8.0	13.0	7.0	5.0	7.0	2.0	5.0	5.0	15.0	10.0	0.0	-2.0	6.0	6.0	-4.0	3.0	14.0	3.0
1056	67.116	20.0	2.0	1.0	5.0	2.0	2.0	7.0	8.0	11.0	11.0	7.0	6.0	-2.0	-6.0	4.0	-7.0	2.0	2.0	1.0	4.0	14.0	-1.0	5.0	-3.0	1.0	5.0	6.0
1063	67.564	10.33	0.67	9.67	9.67	3.67	11.67	7.67	13.67	14.67	8.67	11.67	10.67	5.67	6.67	-0.33	4.67	4.67	14.67	11.67	12.67	7.67	4.67	9.67	5.67	-2.33	8.67	1.67
1070	68.013	12.0	9.0	8.0	1.0	11.0	6.0	23.0	14.0	8.0	6.0	5.0	2.0	9.0	11.0	3.0	7.0	9.0	6.0	4.0	6.0	13.0	9.0	4.0	3.0	4.0	6.0	1.0
1077	68.462	13.33	8.67	1.67	6.67	12.67	5.67	3.67	-0.33	4.67	-1.33	2.67	5.67	7.67	1.67	2.67	-0.33	8.67	11.67	8.67	6.67	-4.33	1.67	4.67	3.67	6.67	0.67	6.67
1084	68.91	8.67	9.33	7.33	14.33	11.33	12.33	12.33	15.33	8.33	13.33	7.33	6.33	9.33	11.33	13.33	13.33	6.33	6.33	14.33	11.33	11.33	16.33	10.33	8.33	14.33	19.33	11.33
1091	69.359	15.0	7.0	10.0	-2.0	9.0	6.0	12.0	9.0	-3.0	7.0	7.0	8.0	2.0	-1.0	2.0	2.0	-1.0	4.0	-7.0	5.0	6.0	8.0	10.0	-1.0	4.0	0.0	7.0
1098	69.808	15.33	3.67	5.67	0.67	4.67	3.67	-0.33	-3.33	3.67	4.67	2.67	-7.33	2.67	12.67	5.67	4.67	-5.33	-0.33	6.67	5.67	9.67	5.67	4.67	-0.33	7.67	12.67	5.67
1105	70.257	12.67	6.33	1.33	8.33	6.33	4.33	2.33	9.33	3.33	2.33	9.33	7.33	-2.67	5.33	2.33	1.33	9.33	10.33	2.33	4.33	7.33	3.33	5.33	8.33	2.33	-1.67	7.33
1112	70.707	13.67	-0.67	5.33	-1.67	2.33	1.33	7.33	0.33	2.33	6.33	7.33	10.33	14.33	-0.67	2.33	-0.67	7.33	3.33	9.33	1.33	7.33	10.33	-2.67	2.33	-1.67	8.33	-3.67
1119	71.156	15.0	0.0	-2.0	3.0	10.0	3.0	-5.0	4.0	4.0	3.0	2.0	4.0	1.0	7.0	-1.0	1.0	-4.0	7.0	-2.0	-3.0	2.0	0.0	2.0	1.0	11.0	9.0	2.0
1126	71.606	10.0	6.0	2.0	16.0	13.0	10.0	17.0	14.0	3.0	4.0	7.0	7.0	3.0	13.0	8.0	8.0	4.0	14.0	0.0	8.0	9.0	5.0	4.0	8.0	6.0	10.0	5.0
1133	72.055	10.67	5.33	12.33	12.33	11.33	8.33	11.33	9.33	13.33	10.33	19.33	15.33	7.33	5.33	8.33	6.33	7.33	8.33	6.33	9.33	4.33	3.33	8.33	3.33	3.33	6.33	8.33
1140	72.505	15.33	12.67	2.67	6.67	0.67	10.67	-1.33	3.67	4.67	7.67	9.67	12.67	13.67	11.67	18.67	9.67	2.67	2.67	7.67	11.67	0.67	8.67	5.67	5.67	11.67	8.67	12.67
1147	72.955	29.0	2.0	1.0	3.0	10.0	6.0	6.0	6.0	10.0	8.0	-2.0	13.0	13.0	4.0	13.0	8.0	4.0	10.0	14.0	15.0	2.0	12.0	15.0	9.0	3.0	5.0	-1.0
1154	73.405	18.33	4.67	2.67	12.67	5.67	10.67	9.67	15.67	14.67	7.67	15.67	4.67	4.67	12.67	10.67	6.67	4.67	10.67	10.67	19.67	17.67	14.67	11.67	11.67	17.67	12.67	24.67
1161	73.855	15.67	-0.67	6.33	3.33	5.33	9.33	1.33	7.33	-2.67	14.33	0.33	5.33	8.33	4.33	2.33	10.33	1.33	6.33	6.33	1.33	1.33	7.33	1.33	19.33	10.33	7.33	6.33
1168	74.306	12.0	13.0	10.0	12.0	13.0	2.0	4.0	8.0	10.0	6.0	12.0	23.0	14.0	12.0	12.0	10.0	12.0	11.0	20.0	13.0	13.0	8.0	4.0	19.0	26.0	8.0	4.0
1175	74.756	22.0	3.0	15.0	7.0	5.0	12.0	0.0	5.0	7.0	17.0	12.0	13.0	19.0	5.0	13.0	10.0	3.0	15.0	8.0	10.0	15.0	13.0	21.0	8.0	8.0	3.0	17.0
1182	75.207	39.0	-7.0	14.0	14.0	11.0	6.0	-1.0	6.0	5.0	10.0	3.0	14.0	-7.0	-3.0	0.0	17.0	16.0	-2.0	16.0	19.0	2.0	10.0	-3.0	6.0	-3.0	11.0	23.0
1189	75.658	30.67	-1.67	-2.67	2.33	1.33	3.33	7.33	-6.67	4.33	9.33	4.33	6.33	-5.67	2.33	6.33	1.33	8.33	5.33	8.33	1.33	9.33	10.33	8.33	-4.67	-0.67	1.33	9.33
1196	76.109	13.67	5.33	10.33	8.33	10.33	11.33	12.33	3.33	12.33	10.33	6.33	0.33	10.33	13.33	7.33	3.33	7.33	1.33	0.33	11.33	7.33	6.33	6.33	12.33	11.33	1.33	10.33
1203	76.56	12.33	1.67	10.67	9.67	1.67	7.67	10.67	5.67	5.67	5.67	6.67	2.67	13.67	7.67	7.67	5.67	0.67	4.67	8.67	9.67	3.67	5.67	-0.33	10.67	15.67	3.67	9.67
1210	77.011	16.0	-2.0	0.0	4.0	9.0	10.0	1.0	7.0	4.0	-2.0	1.0	8.0	1.0	9.0	1.0	1.0	-2.0	3.0	3.0	-2.0	4.0	4.0	-3.0	0.0	5.0	-4.0	8.0
1217	77.463	14.67	-2.67	5.33	3.33	9.33	4.33	8.33	11.33	2.33	6.33	5.33	19.33	5.33	1.33	14.33	4.33	5.33	3.33	7.33	8.33	-0.67	8.33	13.33	5.33	4.33	7.33	3.33
1224	77.915	14.67	3.33	4.33	10.33	5.33	3.33	14.33	2.33	3.33	6.33	4.33	6.33	5.33	14.33	5.33	3.33	4.33	11.33	4.33	4.33	11.33	7.33	8.33	5.33	-1.67	6.33	15.33
1231	78.366	18.67	-2.67	2.33	2.33	2.33	-0.67	5.33	3.33	3.33	4.33	1.33	5.33	-1.67	6.33	-4.67	4.33	4.33	-3.67	0.33	-2.67	9.33	-2.67	-2.67	3.33	-4.67	10.33	0.33
1238	78.818	16.33	-1.33	10.67	14.67	12.67	4.67	13.67	4.67	6.67	-0.33	-5.33	5.67	1.67	17.67	-0.33	12.67	2.67	-0.33	3.67	7.67	9.67	10.67	-1.33	9.67	8.67	9.67	9.67
1245	79.271	12.0	5.0	10.0	8.0	14.0	18.0	15.0	15.0	13.0	11.0	5.0	8.0	7.0	14.0	14.0	8.0	5.0	15.0	9.0	12.0	8.0	4.0	13.0	17.0	12.0	8.0	8.0
1252	79.723	15.67	-0.67	11.33	5.33	3.33	4.33	4.33	7.33	7.33	1.33	6.33	5.33	15.33	9.33	8.33	0.33	12.33	7.33	2.33	12.33	5.33	15.33	4.33	11.33	7.33	1.33	12.33
1259	80.175	15.0	10.0	5.0	5.0	1.0	7.0	12.0	13.0	21.0	13.0	1.0	10.0	4.0	16.0	10.0	2.0	15.0	0.0	6.0	1.0	18.0	11.0	14.0	7.0	10.0	3.0	-2.0
1266	80.628	16.0	0.0	9.0	10.0	9.0	10.0	9.0	12.0	8.0	3.0	10.0	3.0	13.0	15.0	-2.0	8.0	10.0	8.0	3.0	13.0	3.0	4.0	18.0	20.0	13.0	11.0	12.0
1273	81.081	16.33	1.67	16.67	3.67	12.67	7.67	6.67	9.67	12.67	19.67	8.67	12.67	7.67	7.67	13.67	16.67	13.67	5.67	9.67	12.67	2.67	0.67	11.67	13.67	22.67	23.67	11.67
1280	81.534	15.33	6.67	13.67	17.67	10.67	7.67	10.67	20.67	11.67	8.67	23.67	19.67	15.67	19.67	13.67	13.67	7.67	20.67	14.67	4.67	15.67	10.67	13.67	21.67	16.67	21.67	2.67
1287	81.987	19.67	4.33	2.33	24.33	2.33	13.33	16.33	8.33	0.33	24.33	20.33	19.33	18.33	16.33	15.33	29.33	13.33	14.33	8.33	14.33	14.33	12.33	7.33	25.33	4.33	15.33	13.33
1294	82.441	16.0	21.0	54.0	36.0	41.0	38.0	40.0	33.0	32.0	25.0	21.0	31.0	27.0	20.0	27.0	26.0	13.0	30.0	28.0	20.0	34.0	16.0	22.0	29.0	21.0	18.0	24.0
1301	82.894	13.67	83.33	108.33	118.33	108.33	102.33	83.33	84.33	67.33	41.33	45.33	70.33	50.33	41.33	53.33	57.33	54.33	47.33	49.33	49.33	51.33	46.33	51.33	42.33	55.33	43.33	38.33
1308	83.348	20.0	140.0	200.0	198.0	203.0	178.0	149.0	169.0	126.0	113.0	102.0	115.0	83.0	99.0	77.0	60.0	77.0	85.0	57.0	51.0	73.0	72.0	64.0	68.0	82.0	64.0	68.0
1315	83.802	22.0	189.0	261.0	273.0	288.0	247.0	203.0	161.0	171.0	151.0	113.0	121.0	106.0	119.0	97.0	94.0	93.0	85.0	85.0	105.0	98.0	84.0	81.0	96.0	104.0	83.0	86.0
1322	84.256	18.67	166.33	285.33	221.33	234.33	193.33	212.33	200.33	133.33	147.33	114.33	119.33	81.33	99.33	74.33	114.33	81.33	103.33	108.33	81.33	97.33	65.33	69.33	92.33	64.33	63.33	79.33
1329	84.71	23.33	82.67	125.67	142.67	103.67	93.67	116.67	80.67	79.67	65.67	58.67	60.67	57.67	70.67	50.67	55.67	58.67	42.67	53.67	49.67	47.67	34.67	52.67	65.67	51.67	38.67	47.67
1336	85.165	30.33	23.67	45.67	53.67	38.67	39.67	34.67	33.67	23.67	38.67	38.67	18.67	13.67	16.67	28.67	23.67	10.67	11.67	29.67	29.67	26.67	5.67	13.67	20.67	19.67	10.67	14.67
1343	85.619	28.33	9.67	15.67	4.67	15.67	10.67	7.67	11.67	7.67	22.67	22.67	3.67	11.67	3.67	5.67	14.67	17.67	10.67	5.67	9.67	12.67	8.67	7.67	18.67	4.67	13.67	23.67
1350	86.074	21.33	2.67	13.67	9.67	-3.33	11.67	17.67	7.67	3.67	12.67	12.67	3.67	5.67	7.67	17.67	2.67	4.67	9.67	17.67	8.67	6.67	11.67	0.67	9.67	14.67	14.67	16.67
1357	86.529	20.33	4.67	4.67	6.67	7.67	11.67	5.67	8.67	14.67	14.67	4.67	4.67	-2.33	16.67	15.67	9.67	3.67	-1.33	11.67	16.67	-3.33	5.67	13.67	9.67	4.67	12.67	25.67
1364	86.985	16.67	10.33	24.33	7.33	9.33	1.33	11.33	15.33	27.33	12.33	19.33	18.33	29.33	15.33	5.33	6.33	15.33	19.33	15.33	6.33	17.33	14.33	13.33	11.33	15.33	19.33	7.33
1371	87.44	22.0	7.0	10.0	1.0	11.0	6.0	-1.0	14.0	15.0	13.0	2.0	9.0	8.0	3.0	7.0	1.0	2.0	2.0	3.0	23.0	5.0	17.0	12.0	9.0	23.0	2.0	9.0
1378	87.896	27.0	0.0	0.0	-4.0	5.0	13.0	8.0	15.0	6.0	8.0	5.0	5.0	2.0	7.0	0.0	-5.0	-2.0	15.0	11.0	-1.0	8.0	13.0	2.0	3.0	2.0	12.0	1.0
1385	88.352	26.67	3.33	6.33	2.33	10.33	5.33	16.33	7.33	-4.67	1.33	13.33	3.33	6.33	1.33	6.33	5.33	-0.67	6.33	-3.67	1.33	4.33	13.33	6.33	3.33	15.33	10.33	10.33
1392	88.808	23.67	2.33	8.33	5.33	14.33	7.33	18.33	9.33	-0.67	11.33	-2.67	7.33	-2.67	14.33	6.33	-0.67	-1.67	0.33	9.33	3.33	0.33	9.33	15.33	1.33	10.33	9.33	11.33
1399	89.264	23.0	12.0	6.0	14.0	-1.0	8.0	21.0	6.0	9.0	4.0	1.0	17.0	3.0	1.0	12.0	5.0	4.0	1.0	9.0	19.0	13.0	4.0	12.0	7.0	7.0	10.0	6.0
1406	89.72	23.67	4.33	16.33	6.33	15.33	11.33	10.33	4.33	8.33	9.33	6.33	3.33	7.33	5.33	12.33	-0.67	6.33	5.33	8.33	-0.67	3.33	14.33	8.33	5.33	-3.67	9.33	3.33
1413	90.177	21.67	-4.67	5.33	15.33	12.33	2.33	13.33	13.33	11.33	20.33	15.33	14.33	17.33	10.33	8.33	9.33	9.33	17.33	6.33	3.33	0.33	11.33	16.33	12.33	12.33	-2.67	-2.67
1420	90.634	22.67	-0.67	-1.67	1.33	13.33	5.33	7.33	0.33	1.33	20.33	4.33	15.33	5.33	11.33	8.33	15.33	13.33	10.33	2.33	2.33	19.33	10.33	-0.67	-0.67	2.33	11.33	6.33
1427	91.091	21.0	16.0	2.0	5.0	8.0	7.0	13.0	12.0	9.0	8.0	9.0	9.0	15.0	15.0	9.0	6.0	9.0	12.0	12.0	17.0	22.0	14.0	14.0	-2.0	27.0	25.0	17.0
1434	91.549	23.0	6.0	7.0	8.0	14.0	11.0	11.0	2.0	7.0	10.0	11.0	20.0	15.0	21.0	11.0	6.0	4.0	19.0	17.0	27.0	3.0	6.0	8.0	-3.0	5.0	13.0	7.0
1441	92.006	25.33	1.67	14.67	4.67	2.67	8.67	3.67	13.67	12.67	-5.33	12.67	-3.33	17.67	4.67	4.67	2.67	9.67	7.67	-0.33	1.67	6.67	0.67	19.67	13.67	2.67	9.67	-2.33
1448	92.464	23.67	2.33	6.33	19.33	14.33	6.33	18.33	10.33	5.33	15.33	13.33	4.33	8.33	7.33	13.33	18.33	8.33	9.33	0.33	11.33	16.33	11.33	15.33	14.33	6.33	14.33	20.33
1455	92.922	29.0	1.0	7.0	5.0	-2.0	6.0	7.0	9.0	5.0	4.0	5.0	10.0	-5.0	3.0	-4.0	6.0	-3.0	2.0	12.0	0.0	11.0	7.0	-3.0	12.0	6.0	3.0	0.0
1462	93.38	26.67	6.33	3.33	-0.67	15.33	9.33	8.33	10.33	9.33	10.33	1.33	3.33	11.33	1.33	5.33	12.33	8.33	14.33	6.33	-1.67	3.33	15.33	-5.67	5.33	11.33	9.33	1.33
1469	93.839	27.33	-1.33	0.67	9.67	9.67	-1.33	18.67	2.67	-1.33	1.67	0.67	6.67	5.67	12.67	12.67	6.67	16.67	9.67	0.67	8.67	3.67	2.67	2.67	11.67	9.67	18.67	0.67
1476	94.297	24.33	4.67	0.67	10.67	1.67	6.67	12.67	9.67	10.67	14.67	2.67	12.67	12.67	14.67	15.67	-0.33	12.67	5.67	8.67	12.67	8.67	7.67	8.67	0.67	9.67	11.67	-4.33
1483	94.756	21.33	18.67	15.67	9.67	7.67	8.67	18.67	11.67	8.67	9.67	9.67	8.67	12.67	20.67	10.67	9.67	18.67	21.67	13.67	11.67	17.67	11.67	16.67	23.67	19.67	10.67	20.67
1490	95.215	30.67	4.33	-6.67	-0.67	6.33	0.33	3.33	-0.67	11.33	1.33	4.33	11.33	-5.67	8.33	1.33	4.33	14.33	5.33	15.33	1.33	8.33	-9.67	3.33	-5.67	-1.67	7.33	18.33
1497	95.675	31.33	0.67	0.67	2.67	-9.33	4.67	-0.33	8.67	1.67	11.67	5.67	7.67	6.67	4.67	-1.33	0.67	14.67	6.67	16.67	7.67	-4.33	9.67	6.67	7.67	7.67	7.67	18.67
1504	96.134	32.0	3.0	10.0	9.0	-1.0	3.0	0.0	7.0	13.0	8.0	15.0	5.0	16.0	10.0	11.0	26.0	11.0	14.0	25.0	14.0	5.0	10.0	15.0	11.0	17.0	23.0	10.0
1511	96.594	24.67	7.33	6.33	14.33	11.33	12.33	12.33	21.33	16.33	21.33	22.33	23.33	28.33	32.33	24.33	44.33	18.33	32.33	21.33	29.33	25.33	15.33	39.33	19.33	18.33	23.33	36.33
1518	97.054	31.0	5.0	-1.0	1.0	6.0	-1.0	5.0	3.0	5.0	29.0	26.0	26.0	24.0	41.0	30.0	22.0	23.0	21.0	15.0	23.0	14.0	33.0	18.0	13.0	30.0	30.0	20.0
1525	97.514	31.33	3.67	2.67	-1.33	1.67	6.67	0.67	13.67	17.67	35.67	32.67	23.67	22.67	37.67	22.67	21.67	25.67	26.67	35.67	33.67	39.67	15.67	36.67	38.67	19.67	13.67	21.67
1532	97.975	29.33	-5.33	12.67	-4.33	10.67	-2.33	6.67	10.67	21.67	8.67	17.67	13.67	18.67	24.67	11.67	13.67	32.67	22.67	16.67	16.67	16.67	27.67	14.67	23.67	9.67	22.67	14.67
1539	98.436	33.33	-3.33	-3.33	1.67	-2.33	4.67	-4.33	-0.33	11.67	3.67	14.67	1.67	22.67	3.67	3.67	15.67	14.67	15.67	6.67	11.67	12.67	0.67	3.67	7.67	4.67	18.67	7.67
1546	98.897	31.33	-0.33	1.67	4.67	-5.33	9.67	-2.33	5.67	-0.33	15.67	-0.33	8.67	9.67	9.67	20.67	-5.33	4.67	13.67	7.67	18.67	13.67	14.67	8.67	-0.33	5.67	2.67	3.67
1553	99.358	32.0	3.0	-8.0	9.0	9.0	-2.0	0.0	-1.0	0.0	-2.0	6.0	2.0	12.0	7.0	12.0	7.0	-4.0	8.0	-4.0	2.0	-3.0	9.0	10.0	-4.0	-1.0	7.0	1.0
1560	99.82	34.33	1.67	-6.33	-7.33	-7.33	16.67	-2.33	-0.33	9.67	-7.33	1.67	9.67	5.67	-6.33	3.67	3.67	5.67	0.67	2.67	15.67	-3.33	6.67	-7.33	0.67	1.67	4.67	11.67
1567	100.281	31.67	12.33	-7.67	8.33	1.33	2.33	0.33	4.33	0.33	11.33	6.33	1.33	-1.67	-1.67	0.33	4.33	1.33	-5.67	0.33	1.33	5.33	4.33	8.33	8.33	1.33	1.33	7.33
1574	100.743	26.33	10.67	3.67	3.67	5.67	5.67	5.67	7.67	8.67	9.67	2.67	14.67	2.67	6.67	-0.33	14.67	4.67	4.67	5.67	14.67	-0.33	3.67	13.67	13.67	2.67	3.67	3.67
1581	101.206	27.67	4.33	7.33	15.33	1.33	6.33	4.33	5.33	14.33	-6.67	2.33	5.33	20.33	3.33	10.33	5.33	7.33	7.33	4.33	17.33	3.33	4.33	18.33	14.33	17.33	4.33	7.33
1588	101.668	29.67	7.33	-0.67	0.33	9.33	16.33	10.33	10.33	7.33	4.33	9.33	4.33	17.33	12.33	1.33	4.33	5.33	5.33	12.33	-12.67	4.33	18.33	3.33	5.33	15.33	1.33	1.33
1595	102.131	32.67	-1.67	6.33	0.33	11.33	7.33	18.33	5.33	-1.67	-2.67	16.33	4.33	-0.67	-2.67	4.33	-6.67	9.33	3.33	6.33	3.33	2.33	3.33	-0.67	-7.67	12.33	-7.67	4.33
1602	102.594	30.67	-1.67	12.33	4.33	3.33	11.33	6.33	17.33	0.33	5.33	3.33	24.33	2.33	5.33	1.33	0.33	7.33	12.33	-7.67	3.33	-0.67	-2.67	4.33	12.33	5.33	-0.67	15.33
1609	103.057	27.0	19.0	17.0	14.0	18.0	10.0	10.0	7.0	3.0	7.0	14.0	1.0	4.0	8.0	7.0	6.0	12.0	-1.0	10.0	-2.0	11.0	9.0	7.0	6.0	11.0	5.0	2.0
1616	103.521	28.0	5.0	7.0	5.0	5.0	11.0	9.0	11.0	13.0	0.0	10.0	-3.0	5.0	-1.0	3.0	9.0	2.0	5.0	14.0	19.0	17.0	9.0	11.0	13.0	0.0	9.0	19.0
1623	103.985	26.67	15.33	5.33	2.33	2.33	7.33	0.33	9.33	8.33	0.33	1.33	16.33	1.33	5.33	-0.67	12.33	-3.67	6.33	15.33	-0.67	9.33	5.33	-1.67	20.33	3.33	9.33	4.33
1630	104.449	29.67	1.33	-4.67	8.33	4.33	1.33	0.33	6.33	2.33	4.33	4.33	7.33	8.33	-3.67	-1.67	-7.67	-2.67	3.33	2.33	2.33	4.33	1.33	2.33	-7.67	8.33	-7.67	2.33
1637	104.913	25.33	-1.33	-3.33	13.67	-0.33	-4.33	7.67	6.67	7.67	9.67	14.67	7.67	11.67	-1.33	-1.33	12.67	11.67	8.67	1.67	-5.33	9.67	2.67	6.67	3.67	3.67	-2.33	2.67
1644	105.378	26.33	9.67	1.67	-1.33	-6.33	5.67	3.67	-3.33	-0.33	6.67	-0.33	5.67	1.67	8.67	0.67	2.67	1.67	-7.33	14.67	7.67	4.67	-4.33	2.67	4.67	5.67	6.67	9.67
1651	105.843	25.67	3.33	-1.67	-3.67	-7.67	6.33	1.33	4.33	-2.67	6.33	0.33	6.33	15.33	1.33	8.33	10.33	7.33	-1.67	6.33	2.33	6.33	6.33	-2.67	2.33	8.33	3.33	9.33
1658	106.308	24.0	2.0	7.0	14.0	2.0	6.0	0.0	10.0	3.0	1.0	-1.0	7.0	6.0	3.0	9.0	9.0	10.0	-2.0	6.0	9.0	7.0	4.0	11.0	2.0	6.0	2.0	17.0
1665	106.773	16.67	10.33	4.33	10.33	6.33	14.33	7.33	11.33	8.33	7.33	5.33	13.33	5.33	7.33	17.33	8.33	11.33	5.33	11.33	15.33	16.33	14.33	8.33	9.33	18.33	5.33	9.33
1672	107.239	27.0	7.0	-5.0	-3.0	-5.0	-8.0	-2.0	4.0	-9.0	-9.0	5.0	2.0	-1.0	-5.0	15.0	-3.0	-3.0	-3.0	-2.0	1.0	-2.0	4.0	2.0	1.0	10.0	4.0	2.0
1679	107.705	24.33	-2.33	3.67	-4.33	2.67	-6.33	-1.33	13.67	-0.33	-0.33	-1.33	0.67	6.67	-1.33	-0.33	-2.33	5.67	-1.33	-0.33	4.67	4.67	8.67	5.67	-5.33	6.67	-4.33	0.67
1686	108.171	19.0	-2.0	11.0	4.0	11.0	4.0	0.0	4.0	0.0	2.0	11.0	5.0	1.0	6.0	7.0	8.0	2.0	3.0	10.0	10.0	14.0	16.0	3.0	5.0	5.0	5.0	7.0
1693	108.638	25.33	-7.33	1.67	0.67	-5.33	0.67	1.67	1.67	-6.33	7.67	-9.33	2.67	4.67	4.67	5.67	1.67	5.67	0.67	3.67	-3.33	-0.33	-3.33	0.67	-7.33	-3.33	8.67	12.67
1700	109.105	24.0	10.0	-3.0	1.0	8.0	2.0	11.0	11.0	1.0	0.0	4.0	-5.0	-2.0	-2.0	-5.0	5.0	12.0	-6.0	2.0	-5.0	-5.0	6.0	-4.0	1.0	-2.0	-1.0	4.0
1707	109.572	18.33	9.67	2.67	-1.33	-0.33	3.67	7.67	12.67	7.67	8.67	5.67	10.67	2.67	7.67	9.67	10.67	0.67	12.67	-2.33	12.67	7.67	0.67	5.67	7.67	3.67	-1.33	14.67
1714	110.039	22.33	5.67	3.67	0.67	4.67	8.67	-2.33	1.67	3.67	-7.33	1.67	-8.33	2.67	-0.33	3.67	1.67	1.67	5.67	-2.33	1.67	7.67	-5.33	2.67	-3.33	5.67	10.67	0.67
1721	110.507	17.33	-0.33	1.67	3.67	8.67	7.67	0.67	15.67	22.67	3.67	6.67	7.67	10.67	2.67	4.67	7.67	10.67	8.67	16.67	-0.33	14.67	6.67	4.67	11.67	-1.33	9.67	4.67
1728	110.975	19.0	13.0	5.0	2.0	15.0	6.0	4.0	11.0	1.0	5.0	-4.0	13.0	3.0	4.0	-2.0	6.0	17.0	4.0	-5.0	10.0	13.0	-2.0	4.0	5.0	11.0	10.0	9.0
1735	111.443	15.33	12.67	9.67	7.67	8.67	-0.33	14.67	10.67	14.67	5.67	6.67	9.67	13.67	9.67	13.67	-2.33	8.67	13.67	10.67	18.67	3.67	3.67	9.67	6.67	7.67	3.67	9.67
1742	111.912	22.0	-2.0	0.0	8.0	9.0	11.0	13.0	2.0	7.0	3.0	9.0	4.0	4.0	7.0	-4.0	-1.0	-2.0	9.0	6.0	-1.0	8.0	9.0	5.0	-4.0	8.0	1.0	-6.0
1749	112.38	19.0	9.0	15.0	13.0	10.0	12.0	6.0	10.0	-4.0	9.0	1.0	9.0	5.0	9.0	5.0	3.0	4.0	6.0	9.0	3.0	11.0	19.0	5.0	5.0	8.0	3.0	10.0
1756	112.85	20.0	14.0	9.0	14.0	10.0	5.0	10.0	5.0	2.0	2.0	-1.0	0.0	0.0	-3.0	2.0	0.0	0.0	0.0	8.0	5.0	13.0	2.0	-1.0	6.0	11.0	11.0	7.0
1763	113.319	19.67	4.33	6.33	8.33	4.33	10.33	7.33	-6.67	-0.67	1.33	4.33	5.33	1.33	-1.67	8.33	5.33	0.33	4.33	0.33	-0.67	4.33	1.33	8.33	2.33	1.33	-3.67	-3.67
1770	113.789	18.67	-6.67	2.33	-1.67	4.33	6.33	5.33	-5.67	5.33	3.33	-3.67	-2.67	-2.67	3.33	5.33	4.33	7.33	-6.67	10.33	2.33	0.33	6.33	-0.67	-0.67	3.33	1.33	9.33
1777	114.259	18.0	1.0	3.0	-3.0	4.0	5.0	7.0	0.0	5.0	-3.0	0.0	-2.0	1.0	-1.0	2.0	1.0	4.0	-1.0	-1.0	2.0	7.0	2.0	5.0	2.0	4.0	-9.0	7.0
1784	114.729	15.67	6.33	9.33	6.33	1.33	3.33	5.33	1.33	8.33	8.33	0.33	4.33	-4.67	2.33	4.33	15.33	7.33	4.33	4.33	-3.67	3.33	10.33	5.33	5.33	5.33	13.33	6.33
1791	115.2	16.0	-3.0	1.0	4.0	6.0	4.0	0.0	-4.0	3.0	1.0	10.0	6.0	-2.0	-3.0	10.0	-6.0	6.0	5.0	4.0	-2.0	-1.0	7.0	-7.0	1.0	5.0	6.0	2.0
1798	115.671	19.0	-4.0	7.0	-8.0	-2.0	-3.0	-6.0	-1.0	-3.0	-2.0	3.0	-1.0	-4.0	-3.0	-2.0	1.0	-1.0	1.0	3.0	-4.0	-8.0	-5.0	-6.0	-7.0	1.0	-2.0	0.0
1805	116.142	20.67	-9.67	-1.67	-2.67	-3.67	-2.67	-2.67	-6.67	-0.67	-0.67	-4.67	-4.67	-5.67	1.33	-6.67	-6.67	-9.67	-5.67	2.33	2.33	6.33	-2.67	-0.67	-11.67	0.33	-6.67	-4.67
1812	116.614	18.67	0.33	-4.67	-1.67	1.33	-4.67	-2.67	-3.67	5.33	0.33	-7.67	-10.67	-1.67	-0.67	3.33	1.33	1.33	3.33	-7.67	-6.67	-3.67	3.33	-2.67	-8.67	1.33	5.33	-0.67
1819	117.086	13.0	9.0	6.0	5.0	4.0	3.0	-4.0	7.0	5.0	0.0	6.0	9.0	7.0	2.0	3.0	0.0	1.0	7.0	4.0	2.0	-8.0	7.0	0.0	3.0	5.0	3.0	-3.0
1826	117.558	14.0	-1.0	0.0	-1.0	4.0	-2.0	6.0	3.0	-2.0	-2.0	0.0	2.0	5.0	3.0	5.0	5.0	3.0	5.0	9.0	4.0	-3.0	4.0	-1.0	-2.0	2.0	6.0	2.0
1833	118.03	12.67	6.33	0.33	4.33	5.33	1.33	-4.67	3.33	1.33	5.33	9.33	3.33	5.33	-1.67	5.33	9.33	6.33	-1.67	-4.67	0.33	2.33	5.33	3.33	2.33	4.33	4.33	-4.67
1840	118.503	15.0	-1.0	2.0	-3.0	-1.0	-1.0	0.0	-1.0	-4.0	-1.0	2.0	-9.0	9.0	1.0	1.0	-3.0	0.0	0.0	-5.0	-1.0	0.0	2.0	4.0	-3.0	1.0	-6.0	3.0
1847	118.976	10.0	2.0	12.0	6.0	6.0	11.0	6.0	8.0	11.0	10.0	3.0	6.0	5.0	5.0	8.0	8.0	7.0	8.0	7.0	6.0	3.0	7.0	5.0	0.0	13.0	10.0	7.0
1854	119.45	14.0	-6.0	-4.0	-5.0	4.0	3.0	0.0	2.0	2.0	2.0	-4.0	-3.0	1.0	8.0	1.0	1.0	2.0	2.0	4.0	3.0	0.0	5.0	2.0	5.0	3.0	2.0	2.0
1861	119.924	13.0	7.0	2.0	1.0	-3.0	1.0	2.0	1.0	2.0	0.0	0.0	2.0	-1.0	4.0	2.0	-3.0	-1.0	5.0	9.0	-3.0	-4.0	-3.0	0.0	5.0	5.0	6.0	-4.0
1868	120.398	12.67	1.33	1.33	0.33	-1.67	5.33	3.33	-0.67	3.33	1.33	-0.67	0.33	6.33	0.33	1.33	3.33	3.33	-3.67	6.33	3.33	8.33	-2.67	3.33	-1.67	7.33	0.33	5.33
1875	120.872	13.33	-1.33	4.67	0.67	-1.33	9.67	5.67	3.67	3.67	-4.33	-0.33	15.67	1.67	1.67	-3.33	-7.33	-2.33	-1.33	0.67	-4.33	1.67	3.67	1.67	-1.33	-3.33	-1.33	-3.33
1882	121.347	14.33	-10.33	-3.33	7.67	-1.33	-0.33	3.67	-8.33	-2.33	-5.33	0.67	10.67	3.67	-3.33	-3.33	0.67	-5.33	-4.33	0.67	2.67	5.67	-0.33	1.67	-6.33	1.67	6.67	-3.33
1889	121.822	11.67	10.33	5.33	0.33	6.33	8.33	-2.67	10.33	8.33	1.33	5.33	-1.67	-0.67	7.33	9.33	5.33	-0.67	-0.67	0.33	-3.67	1.33	3.33	0.33	1.33	3.33	3.33	0.33
1896	122.298	8.33	3.67	8.67	5.67	6.67	9.67	6.67	3.67	3.67	8.67	5.67	9.67	8.67	10.67	9.67	1.67	8.67	0.67	3.67	2.67	12.67	6.67	13.67	8.67	-1.33	7.67	6.67
1903	122.773	8.0	7.0	7.0	9.0	18.0	10.0	11.0	1.0	5.0	4.0	7.0	-1.0	3.0	5.0	2.0	7.0	5.0	14.0	8.0	5.0	0.0	2.0	10.0	6.0	4.0	11.0	7.0
1910	123.25	10.67	-1.67	5.33	-0.67	2.33	8.33	8.33	4.33	1.33	6.33	6.33	2.33	7.33	-0.67	6.33	3.33	4.33	4.33	9.33	13.33	6.33	6.33	-4.67	3.33	3.33	-0.67	-4.67
1917	123.726	9.0	1.0	7.0	7.0	15.0	0.0	3.0	4.0	2.0	11.0	5.0	6.0	6.0	7.0	13.0	2.0	9.0	11.0	5.0	3.0	2.0	5.0	-1.0	9.0	7.0	8.0	1.0
1924	124.203	8.67	0.33	2.33	3.33	5.33	1.33	5.33	5.33	2.33	9.33	14.33	-0.67	3.33	7.33	0.33	8.33	6.33	15.33	-1.67	7.33	3.33	5.33	6.33	-2.67	7.33	-4.67	5.33
1931	124.68	10.67	-2.67	-1.67	9.33	7.33	-1.67	1.33	2.33	3.33	5.33	3.33	0.33	2.33	0.33	6.33	4.33	3.33	-1.67	-1.67	-0.67	4.33	-0.67	3.33	4.33	1.33	0.33	9.33
1938	125.158	12.33	-4.33	-2.33	-3.33	-5.33	-1.33	-4.33	-4.33	-4.33	0.67	-3.33	-0.33	-3.33	6.67	-2.33	-0.33	1.67	0.67	2.67	0.67	-1.33	0.67	5.67	5.67	-1.33	-2.33	-3.33
1945	125.635	10.67	-3.67	2.33	-0.67	0.33	5.33	4.33	9.33	6.33	-1.67	-0.67	3.33	-4.67	4.33	-1.67	-0.67	-3.67	0.33	-1.67	-4.67	3.33	-4.67	-2.67	-0.67	5.33	-0.67	5.33
1952	126.114	11.67	0.33	-1.67	3.33	-5.67	-0.67	4.33	-2.67	3.33	4.33	6.33	3.33	-3.67	8.33	1.33	4.33	0.33	-1.67	4.33	-5.67	-3.67	2.33	0.33	-0.67	-1.67	-1.67	-2.67
1959	126.592	12.0	0.0	-7.0	-5.0	1.0	3.0	1.0	1.0	3.0	-4.0	-1.0	0.0	1.0	0.0	-7.0	5.0	-4.0	-1.0	-1.0	0.0	-1.0	-1.0	1.0	-1.0	-3.0	1.0	-3.0
1966	127.071	8.33	5.67	2.67	9.67	11.67	8.67	8.67	6.67	2.67	1.67	2.67	13.67	7.67	2.67	1.67	13.67	0.67	4.67	6.67	7.67	2.67	-2.33	10.67	2.67	4.67	6.67	-2.33
1973	127.55	11.67	-0.67	-1.67	-0.67	-3.67	2.33	0.33	2.33	-4.67	4.33	1.33	0.33	-0.67	-1.67	-2.67	-1.67	0.33	-0.67	-1.67	1.33	10.33	2.33	-2.67	1.33	5.33	-2.67	-3.67
1980	128.03	9.67	0.33	1.33	-2.67	1.33	8.33	3.33	3.33	5.33	-3.67	-0.67	-4.67	-0.67	13.33	-1.67	10.33	3.33	6.33	0.33	-0.67	5.33	4.33	-1.67	2.33	0.33	8.33	-4.67
1987	128.51	10.33	-3.33	-1.33	1.67	2.67	0.67	1.67	1.67	-1.33	-0.33	2.67	-4.33	0.67	-5.33	-2.33	-4.33	3.67	1.67	0.67	8.67	3.67	-4.33	4.67	-0.33	1.67	-0.33	0.67
1994	128.99	6.67	-0.67	-1.67	8.33	8.33	1.33	0.33	2.33	-0.67	-0.67	3.33	9.33	3.33	5.33	8.33	-0.67	3.33	4.33	4.33	1.33	7.33	8.33	6.33	8.33	5.33	-0.67	-2.67
2001	129.471	7.0	7.0	6.0	4.0	-2.0	6.0	2.0	6.0	0.0	4.0	2.0	2.0	1.0	1.0	-1.0	4.0	0.0	3.0	5.0	6.0	6.0	0.0	3.0	4.0	1.0	5.0	10.0
2008	129.952	8.33	-5.33	1.67	4.67	2.67	-0.33	3.67	0.67	2.67	-0.33	1.67	3.67	3.67	5.67	-3.33	4.67	3.67	1.67	3.67	3.67	5.67	2.67	7.67	-1.33	5.67	0.67	-1.33
2015	130.433	9.0	2.0	-5.0	-1.0	4.0	7.0	4.0	-2.0	-4.0	-5.0	1.0	-2.0	0.0	-1.0	1.0	-1.0	-2.0	-1.0	1.0	-1.0	-3.0	-5.0	6.0	10.0	-2.0	-4.0	-3.0
2022	130.915	9.67	-1.67	0.33	3.33	-2.67	-1.67	0.33	-0.67	2.33	-4.67	0.33	-0.67	0.33	-2.67	-0.67	6.33	5.33	1.33	0.33	-7.67	1.33	1.33	0.33	2.33	-5.67	5.33	0.33
2029	131.397	9.33	-2.33	-1.33	4.67	-2.33	-0.33	-1.33	2.67	3.67	-6.33	4.67	-3.33	-4.33	2.67	-4.33	1.67	3.67	-1.33	-0.33	2.67	1.67	-3.33	2.67	0.67	-3.33	-2.33	3.67
2036	131.879	9.67	2.33	-2.67	-3.67	1.33	0.33	2.33	-0.67	0.33	0.33	-2.67	-0.67	4.33	2.33	-3.67	-0.67	-1.67	3.33	-5.67	2.33	-3.67	0.33	-1.67	-0.67	-0.67	-0.67	-3.67
2043	132.362	8.33	-0.33	-3.33	-3.33	0.67	2.67	-5.33	-1.33	4.67	-2.33	-1.33	2.67	-1.33	-3.33	-0.33	1.67	-2.33	1.67	-2.33	1.67	4.67	-2.33	-2.33	-0.33	-0.33	0.67	-1.33
2047	132.638	9.0	1.0	2.0	-2.0	-2.0	2.0	-1.0	0.0	0.0	-6.0	0.0	1.0	0.0	-3.0	1.0	-2.0	-1.0	-2.0	-2.0	-1.0	2.0	0.0	-1.0	-1.0	1.0	0.0	-2.0