File: EDX Back Ups and Old Files/EDX Processed Data/High pH BL 25C 4d.txt
Name: High pH BL 25C 4d
Number of Scans: 29
Positions: [-13.0, -12.75, -12.5, -12.25, -12.0, -11.75, -11.5, -11.25, -11.0, -10.75, -10.5, -10.25, -10.0, -9.75, -9.5, -9.25, -9.0, -8.75, -8.5, -8.25, -8.0, -7.75, -7.5, -7.25, -7.0, -6.75, -6.5, -6.25, -6.0]
Points per Scan: 2048
Sample Edge: 3
Scans Off Sample: [0, 1, 2]
Conversion Features: [(275, 17444.3), (309, 19608.3), (913, 57981.7), (934, 59318.24), (1058, 67244.3)]
Degree of Fit: 3
Fit Coeffecients: [ 8.59183e-07 -0.001482  64.3003 -144.207]
pH: High
Steel Fiber: False
Aging Temp.: 25
Aging Atm.: 100% CO2
Aging Humidity: None
Aging Time: 4

*********
#Bins	Energy [keV]	Avg. Background	-12.25	-12.0	-11.75	-11.5	-11.25	-11.0	-10.75	-10.5	-10.25	-10.0	-9.75	-9.5	-9.25	-9.0	-8.75	-8.5	-8.25	-8.0	-7.75	-7.5	-7.25	-7.0	-6.75	-6.5	-6.25	-6.0
6	0.242	1847.33	-37.33	44.67	-190.33	-1.33	14.67	35.67	52.67	-61.33	-6.33	-45.33	51.67	-49.33	41.67	-43.33	-71.33	4.67	-9.33	-41.33	-4.33	8.67	6.67	-49.33	33.67	15.67	-45.33	-35.33
13	0.691	1246.0	17.0	-68.0	-32.0	-45.0	3.0	79.0	42.0	-48.0	-25.0	-20.0	45.0	95.0	-15.0	-20.0	36.0	-27.0	72.0	76.0	15.0	-15.0	37.0	-14.0	6.0	91.0	41.0	-27.0
20	1.141	327.33	0.67	-26.33	-12.33	-23.33	-6.33	0.67	-24.33	-17.33	4.67	29.67	-24.33	2.67	14.67	-43.33	19.67	-24.33	-4.33	4.67	-20.33	-33.33	23.67	-32.33	-10.33	4.67	-4.33	-47.33
27	1.591	51.0	-4.0	-3.0	-11.0	4.0	-1.0	14.0	-1.0	10.0	12.0	12.0	0.0	7.0	2.0	5.0	3.0	-1.0	3.0	-2.0	17.0	2.0	-2.0	4.0	10.0	7.0	8.0	8.0
34	2.04	6.67	0.33	1.33	0.33	-5.67	0.33	4.33	-3.67	4.33	0.33	-0.67	-2.67	1.33	0.33	-4.67	-1.67	-1.67	-0.67	-1.67	6.33	-2.67	-2.67	-6.67	5.33	3.33	2.33	0.33
41	2.49	1.67	-1.67	-0.67	-1.67	-1.67	-1.67	-0.67	-1.67	2.33	0.33	-0.67	-1.67	0.33	-0.67	-1.67	-0.67	-0.67	-0.67	0.33	-0.67	-1.67	-0.67	-0.67	-1.67	-0.67	0.33	1.33
48	2.939	0.33	-0.33	-0.33	-0.33	-0.33	1.67	0.67	-0.33	-0.33	-0.33	-0.33	-0.33	0.67	-0.33	0.67	-0.33	0.67	-0.33	-0.33	-0.33	0.67	-0.33	0.67	0.67	-0.33	-0.33	2.67
55	3.388	1.0	-1.0	-1.0	1.0	-1.0	-1.0	-1.0	-1.0	-1.0	-1.0	-1.0	-1.0	0.0	-1.0	0.0	-1.0	0.0	-1.0	0.0	-1.0	-1.0	0.0	0.0	-1.0	-1.0	-1.0	-1.0
62	3.837	0.67	-0.67	0.33	1.33	-0.67	-0.67	-0.67	-0.67	-0.67	0.33	-0.67	-0.67	-0.67	-0.67	-0.67	-0.67	-0.67	-0.67	0.33	-0.67	-0.67	0.33	-0.67	-0.67	0.33	-0.67	0.33
69	4.286	0.0	0.0	0.0	0.0	0.0	1.0	0.0	0.0	0.0	0.0	0.0	0.0	0.0	1.0	0.0	0.0	0.0	0.0	0.0	1.0	0.0	0.0	2.0	1.0	0.0	0.0	0.0
76	4.734	1.0	-1.0	0.0	-1.0	-1.0	0.0	-1.0	0.0	-1.0	0.0	-1.0	-1.0	1.0	0.0	-1.0	-1.0	-1.0	0.0	-1.0	-1.0	-1.0	-1.0	0.0	-1.0	-1.0	-1.0	-1.0
83	5.183	0.33	-0.33	0.67	0.67	-0.33	-0.33	-0.33	-0.33	-0.33	0.67	-0.33	-0.33	-0.33	-0.33	0.67	0.67	0.67	0.67	-0.33	-0.33	-0.33	-0.33	-0.33	-0.33	-0.33	0.67	0.67
90	5.631	1.0	0.0	-1.0	-1.0	-1.0	0.0	-1.0	0.0	0.0	0.0	-1.0	0.0	1.0	1.0	-1.0	0.0	0.0	2.0	0.0	0.0	-1.0	1.0	-1.0	0.0	-1.0	-1.0	0.0
97	6.08	0.67	-0.67	0.33	-0.67	-0.67	0.33	0.33	-0.67	-0.67	-0.67	-0.67	-0.67	-0.67	0.33	-0.67	2.33	0.33	0.33	-0.67	2.33	-0.67	1.33	0.33	0.33	0.33	-0.67	0.33
104	6.528	2.33	-2.33	0.67	-2.33	0.67	-1.33	-2.33	-2.33	0.67	-1.33	-0.33	-2.33	0.67	-2.33	-0.33	0.67	-0.33	-1.33	-1.33	-1.33	-1.33	2.67	-1.33	-2.33	0.67	-0.33	3.67
111	6.976	1.67	0.33	0.33	0.33	0.33	-0.67	-0.67	0.33	3.33	0.33	0.33	-0.67	-0.67	-1.67	-1.67	1.33	1.33	-1.67	1.33	1.33	0.33	-1.67	-0.67	0.33	-0.67	-0.67	0.33
118	7.424	4.0	-1.0	-3.0	-3.0	-2.0	3.0	2.0	1.0	1.0	-2.0	2.0	1.0	1.0	0.0	3.0	1.0	-4.0	-2.0	-3.0	-1.0	-1.0	-2.0	0.0	2.0	3.0	1.0	1.0
125	7.872	4.0	4.0	0.0	5.0	4.0	2.0	-2.0	0.0	3.0	1.0	-1.0	-1.0	2.0	3.0	1.0	0.0	0.0	2.0	-1.0	0.0	3.0	0.0	1.0	4.0	4.0	0.0	2.0
132	8.32	7.33	-0.33	-2.33	-4.33	-4.33	-2.33	-2.33	0.67	-0.33	-3.33	0.67	5.67	0.67	1.67	2.67	-5.33	-1.33	-0.33	0.67	2.67	-1.33	-5.33	-0.33	-5.33	0.67	-1.33	1.67
139	8.767	10.0	-1.0	-5.0	1.0	-2.0	-4.0	0.0	-4.0	0.0	1.0	-7.0	0.0	0.0	-2.0	-6.0	-5.0	-4.0	-4.0	-5.0	0.0	-5.0	0.0	-3.0	0.0	-1.0	1.0	0.0
146	9.215	8.0	5.0	-2.0	-3.0	1.0	3.0	6.0	2.0	-2.0	1.0	0.0	0.0	6.0	2.0	3.0	-1.0	0.0	1.0	-3.0	1.0	1.0	-1.0	0.0	8.0	1.0	-1.0	-1.0
153	9.662	7.33	1.67	-2.33	2.67	-0.33	7.67	6.67	-0.33	5.67	5.67	2.67	2.67	-0.33	6.67	4.67	-0.33	-1.33	4.67	3.67	10.67	4.67	3.67	7.67	-0.33	-0.33	3.67	3.67
160	10.109	8.33	2.67	5.67	-2.33	-4.33	3.67	-0.33	-1.33	-2.33	3.67	2.67	5.67	2.67	12.67	-3.33	-2.33	3.67	3.67	0.67	10.67	2.67	3.67	6.67	2.67	4.67	3.67	0.67
167	10.557	9.33	7.67	-0.33	-2.33	4.67	0.67	-0.33	1.67	7.67	8.67	-1.33	-1.33	-5.33	2.67	-2.33	-2.33	4.67	1.67	-2.33	4.67	6.67	-0.33	4.67	-3.33	1.67	1.67	2.67
174	11.004	9.67	1.33	5.33	1.33	3.33	0.33	1.33	3.33	-0.67	1.33	-2.67	3.33	-3.67	1.33	-3.67	-1.67	2.33	4.33	7.33	2.33	0.33	1.33	4.33	3.33	1.33	1.33	0.33
181	11.451	11.33	-4.33	4.67	-2.33	0.67	1.67	-2.33	-0.33	3.67	2.67	-3.33	6.67	-5.33	1.67	4.67	2.67	-3.33	-0.33	-4.33	-4.33	4.67	4.67	-6.33	3.67	-4.33	1.67	-5.33
188	11.898	10.67	-0.67	-3.67	-1.67	2.33	2.33	-3.67	4.33	-3.67	0.33	-0.67	2.33	-3.67	7.33	0.33	0.33	-4.67	0.33	3.33	4.33	-1.67	-0.67	4.33	8.33	-1.67	11.33	3.33
195	12.344	10.0	3.0	-1.0	1.0	2.0	5.0	3.0	-2.0	4.0	3.0	2.0	-2.0	-2.0	0.0	-3.0	5.0	6.0	0.0	0.0	-2.0	2.0	0.0	4.0	-2.0	5.0	-1.0	4.0
202	12.791	13.33	-7.33	-4.33	-4.33	-6.33	-4.33	-0.33	6.67	-2.33	-3.33	-4.33	1.67	-3.33	-2.33	9.67	-4.33	-2.33	-7.33	-1.33	4.67	-5.33	0.67	-5.33	8.67	-1.33	-2.33	-2.33
209	13.238	9.67	2.33	-2.67	4.33	5.33	1.33	3.33	3.33	1.33	3.33	-1.67	16.33	0.33	2.33	0.33	2.33	2.33	-2.67	-0.67	3.33	7.33	1.33	2.33	-3.67	6.33	5.33	4.33
216	13.684	7.0	6.0	3.0	1.0	2.0	5.0	4.0	5.0	3.0	2.0	8.0	5.0	3.0	2.0	0.0	2.0	2.0	2.0	6.0	5.0	5.0	9.0	5.0	5.0	3.0	5.0	6.0
223	14.131	7.67	6.33	-1.67	0.33	9.33	7.33	-0.67	2.33	7.33	7.33	9.33	5.33	9.33	5.33	5.33	6.33	6.33	4.33	-1.67	2.33	2.33	5.33	11.33	-0.67	6.33	6.33	3.33
230	14.577	10.0	5.0	-3.0	0.0	2.0	7.0	-3.0	1.0	-2.0	8.0	4.0	-2.0	0.0	3.0	-2.0	0.0	5.0	6.0	0.0	4.0	-5.0	-1.0	3.0	12.0	7.0	-5.0	7.0
237	15.023	10.0	-3.0	2.0	3.0	2.0	3.0	1.0	-3.0	1.0	0.0	6.0	5.0	8.0	0.0	-5.0	-3.0	5.0	-5.0	3.0	-1.0	6.0	9.0	2.0	4.0	0.0	1.0	-4.0
244	15.469	10.33	2.67	3.67	5.67	0.67	8.67	6.67	-2.33	-4.33	-1.33	-1.33	-1.33	-1.33	-2.33	2.67	-3.33	2.67	2.67	2.67	1.67	7.67	10.67	-3.33	5.67	7.67	3.67	5.67
251	15.915	7.67	5.33	5.33	-1.67	3.33	5.33	3.33	6.33	5.33	1.33	9.33	0.33	7.33	2.33	1.33	4.33	-0.67	-2.67	6.33	2.33	1.33	5.33	8.33	2.33	5.33	2.33	0.33
258	16.361	9.67	0.33	-3.67	0.33	3.33	0.33	4.33	1.33	6.33	3.33	-0.67	2.33	5.33	7.33	3.33	0.33	3.33	12.33	-1.67	4.33	-3.67	1.33	-4.67	3.33	4.33	7.33	0.33
265	16.807	8.67	1.33	3.33	2.33	2.33	5.33	-1.67	2.33	1.33	3.33	4.33	-2.67	-0.67	5.33	0.33	3.33	4.33	6.33	2.33	3.33	2.33	3.33	-5.67	-0.67	7.33	4.33	2.33
272	17.253	7.0	6.0	-3.0	0.0	-1.0	3.0	5.0	11.0	-1.0	-2.0	2.0	6.0	2.0	0.0	4.0	10.0	4.0	5.0	4.0	2.0	5.0	5.0	7.0	6.0	8.0	1.0	12.0
279	17.699	11.67	1.33	-0.67	4.33	0.33	-4.67	4.33	6.33	0.33	1.33	-3.67	-4.67	-0.67	1.33	-3.67	-5.67	2.33	-3.67	1.33	-2.67	-2.67	-2.67	-2.67	5.33	-6.67	4.33	2.33
286	18.145	11.0	4.0	-1.0	-1.0	2.0	-1.0	-2.0	3.0	0.0	-2.0	-3.0	-1.0	-1.0	4.0	-1.0	2.0	7.0	1.0	-4.0	-2.0	2.0	-2.0	3.0	2.0	4.0	4.0	3.0
293	18.59	10.67	-2.67	-5.67	-1.67	-3.67	1.33	1.33	0.33	4.33	-1.67	3.33	-1.67	3.33	4.33	-6.67	-0.67	-6.67	2.33	1.33	-0.67	0.33	8.33	0.33	10.33	-0.67	-4.67	-1.67
300	19.036	5.0	6.0	4.0	4.0	5.0	5.0	12.0	2.0	10.0	0.0	1.0	8.0	1.0	4.0	9.0	4.0	6.0	5.0	5.0	5.0	1.0	6.0	2.0	8.0	7.0	10.0	10.0
307	19.481	9.0	5.0	-2.0	-2.0	3.0	3.0	2.0	1.0	8.0	1.0	2.0	4.0	0.0	6.0	1.0	4.0	2.0	1.0	-2.0	0.0	-2.0	11.0	9.0	2.0	2.0	7.0	4.0
314	19.927	7.67	-0.67	2.33	3.33	6.33	1.33	6.33	8.33	2.33	-0.67	-0.67	-0.67	2.33	-0.67	8.33	6.33	4.33	8.33	4.33	3.33	4.33	3.33	4.33	-3.67	9.33	6.33	3.33
321	20.372	12.0	-2.0	1.0	-1.0	1.0	2.0	-5.0	0.0	4.0	-3.0	-5.0	4.0	0.0	-3.0	0.0	0.0	-1.0	-3.0	-2.0	1.0	2.0	-3.0	4.0	-6.0	2.0	-1.0	-3.0
328	20.817	10.67	2.33	2.33	3.33	1.33	-3.67	0.33	-0.67	-1.67	2.33	-3.67	0.33	-2.67	1.33	-0.67	-0.67	0.33	2.33	-2.67	0.33	1.33	5.33	1.33	5.33	2.33	8.33	1.33
335	21.262	11.0	-1.0	1.0	0.0	4.0	-1.0	-8.0	-2.0	0.0	-1.0	0.0	-1.0	0.0	1.0	0.0	-5.0	-6.0	0.0	2.0	1.0	-2.0	2.0	1.0	5.0	1.0	2.0	-3.0
342	21.708	12.0	-1.0	-5.0	-4.0	3.0	2.0	-4.0	4.0	1.0	-3.0	-2.0	1.0	-5.0	-2.0	5.0	2.0	0.0	-2.0	-1.0	-3.0	-2.0	-4.0	-4.0	-3.0	6.0	0.0	-1.0
349	22.153	10.0	-3.0	4.0	7.0	9.0	-2.0	2.0	4.0	-2.0	5.0	-3.0	2.0	-3.0	2.0	2.0	4.0	7.0	1.0	1.0	-6.0	-3.0	6.0	6.0	-3.0	0.0	-3.0	6.0
356	22.598	8.33	-0.33	3.67	1.67	5.67	5.67	-0.33	0.67	-0.33	-0.33	4.67	1.67	-5.33	5.67	0.67	-1.33	-3.33	3.67	6.67	2.67	0.67	1.67	2.67	-1.33	0.67	6.67	1.67
363	23.043	12.33	-1.33	-6.33	-3.33	-8.33	-6.33	-6.33	-0.33	-9.33	-1.33	-1.33	-4.33	6.67	-8.33	7.67	-2.33	-4.33	-5.33	3.67	-5.33	-1.33	-1.33	-3.33	-7.33	-2.33	3.67	-2.33
370	23.488	7.33	-3.33	-2.33	0.67	-2.33	4.67	-1.33	3.67	1.67	4.67	-1.33	0.67	1.67	4.67	1.67	4.67	4.67	-0.33	2.67	-2.33	0.67	5.67	7.67	3.67	1.67	0.67	2.67
377	23.932	10.33	2.67	-2.33	-4.33	-7.33	-1.33	2.67	2.67	-3.33	1.67	-0.33	1.67	1.67	0.67	4.67	-0.33	1.67	0.67	-1.33	-0.33	-4.33	1.67	3.67	1.67	-1.33	-5.33	4.67
384	24.377	8.0	3.0	-2.0	2.0	0.0	8.0	3.0	1.0	1.0	0.0	-3.0	2.0	-3.0	4.0	3.0	4.0	4.0	6.0	2.0	-1.0	3.0	1.0	0.0	-3.0	-1.0	10.0	3.0
391	24.822	7.0	0.0	6.0	-2.0	-2.0	-3.0	7.0	5.0	7.0	1.0	1.0	-4.0	0.0	2.0	0.0	0.0	4.0	-2.0	4.0	-3.0	4.0	0.0	2.0	4.0	-1.0	-1.0	3.0
398	25.267	8.0	-3.0	-4.0	1.0	1.0	2.0	4.0	2.0	4.0	1.0	-1.0	3.0	2.0	-5.0	7.0	-1.0	6.0	2.0	4.0	7.0	-4.0	3.0	2.0	-2.0	4.0	1.0	0.0
405	25.711	7.0	-1.0	-2.0	-1.0	2.0	4.0	3.0	-4.0	6.0	8.0	0.0	-1.0	-1.0	6.0	-3.0	0.0	-1.0	5.0	0.0	12.0	1.0	6.0	1.0	2.0	8.0	4.0	-2.0
412	26.156	8.0	1.0	0.0	-1.0	-1.0	1.0	-5.0	1.0	-1.0	2.0	0.0	0.0	-1.0	5.0	0.0	3.0	-5.0	-3.0	4.0	0.0	0.0	1.0	3.0	4.0	1.0	-2.0	6.0
419	26.601	7.33	-3.33	-3.33	-2.33	1.67	-5.33	5.67	1.67	6.67	1.67	-0.33	4.67	6.67	-1.33	-2.33	1.67	-0.33	6.67	-2.33	3.67	5.67	5.67	0.67	-0.33	6.67	5.67	3.67
426	27.045	8.0	-3.0	-4.0	-3.0	1.0	-1.0	2.0	-3.0	2.0	2.0	-3.0	-2.0	0.0	-1.0	-1.0	2.0	3.0	0.0	1.0	-4.0	3.0	1.0	1.0	-5.0	-1.0	0.0	2.0
433	27.49	6.33	2.67	-0.33	0.67	6.67	3.67	3.67	6.67	1.67	3.67	-1.33	1.67	-4.33	-0.33	-0.33	3.67	-2.33	1.67	2.67	2.67	1.67	1.67	2.67	-1.33	-2.33	-2.33	0.67
440	27.934	6.33	-1.33	2.67	6.67	6.67	-0.33	-0.33	6.67	-2.33	1.67	7.67	0.67	1.67	-0.33	-0.33	6.67	6.67	5.67	2.67	3.67	-4.33	-2.33	5.67	3.67	3.67	-2.33	3.67
447	28.379	9.0	-1.0	0.0	-3.0	-4.0	-1.0	0.0	-2.0	0.0	-1.0	-1.0	1.0	-5.0	2.0	-1.0	5.0	-3.0	-4.0	-1.0	3.0	-5.0	1.0	3.0	-1.0	1.0	-1.0	-4.0
454	28.823	7.67	-0.67	3.33	-2.67	3.33	-1.67	1.33	-0.67	3.33	1.33	0.33	-0.67	-2.67	-2.67	1.33	2.33	3.33	2.33	-0.67	1.33	2.33	3.33	0.33	2.33	4.33	-2.67	0.33
461	29.267	5.33	-0.33	3.67	4.67	1.67	4.67	0.67	1.67	-2.33	3.67	-0.33	4.67	3.67	5.67	3.67	2.67	-1.33	6.67	-2.33	1.67	3.67	0.67	1.67	1.67	-0.33	-0.33	0.67
468	29.712	7.33	-2.33	-3.33	0.67	2.67	-3.33	-3.33	-0.33	-2.33	2.67	-5.33	1.67	-2.33	-4.33	0.67	5.67	1.67	-1.33	4.67	0.67	1.67	2.67	2.67	0.67	-2.33	4.67	-3.33
475	30.156	4.0	1.0	7.0	-2.0	6.0	8.0	3.0	3.0	4.0	1.0	1.0	0.0	1.0	4.0	-1.0	4.0	8.0	2.0	11.0	4.0	-1.0	4.0	-1.0	4.0	4.0	1.0	1.0
482	30.6	4.67	6.33	4.33	5.33	3.33	0.33	5.33	-0.67	2.33	2.33	3.33	5.33	-0.67	3.33	1.33	2.33	1.33	1.33	-0.67	1.33	-2.67	3.33	3.33	-0.67	5.33	2.33	5.33
489	31.045	5.67	-1.67	2.33	0.33	-1.67	3.33	-2.67	1.33	6.33	-1.67	-2.67	6.33	-1.67	3.33	-1.67	0.33	-2.67	5.33	1.33	-3.67	-4.67	1.33	4.33	8.33	-2.67	3.33	2.33
496	31.489	4.67	3.33	1.33	-2.67	-2.67	2.33	4.33	3.33	8.33	0.33	-1.67	-0.67	2.33	4.33	1.33	4.33	0.33	5.33	2.33	4.33	3.33	0.33	1.33	-0.67	4.33	5.33	5.33
503	31.933	5.33	0.67	4.67	2.67	4.67	1.67	-0.33	7.67	2.67	3.67	0.67	2.67	-0.33	-1.33	-0.33	-0.33	0.67	3.67	1.67	3.67	3.67	2.67	0.67	-2.33	2.67	-1.33	0.67
510	32.377	6.0	-1.0	-2.0	1.0	2.0	1.0	-1.0	3.0	2.0	1.0	0.0	1.0	1.0	0.0	0.0	-1.0	0.0	1.0	-1.0	2.0	1.0	1.0	2.0	-3.0	3.0	-2.0	-5.0
517	32.822	5.0	-2.0	-1.0	2.0	8.0	5.0	2.0	4.0	1.0	1.0	3.0	1.0	1.0	2.0	0.0	0.0	3.0	1.0	-1.0	0.0	3.0	2.0	5.0	4.0	3.0	1.0	1.0
524	33.266	5.67	0.33	1.33	1.33	-2.67	1.33	3.33	-0.67	2.33	1.33	-2.67	3.33	7.33	2.33	1.33	1.33	-1.67	-1.67	1.33	-1.67	-1.67	3.33	1.33	1.33	-0.67	0.33	-0.67
531	33.71	5.33	2.67	2.67	-1.33	6.67	-0.33	1.67	-1.33	-4.33	7.67	0.67	-0.33	0.67	4.67	0.67	-1.33	4.67	1.67	-1.33	-3.33	3.67	-0.33	-0.33	0.67	1.67	2.67	3.67
538	34.154	4.0	2.0	4.0	2.0	-2.0	1.0	-2.0	-2.0	2.0	-1.0	3.0	2.0	-2.0	0.0	8.0	4.0	1.0	2.0	1.0	8.0	9.0	2.0	-1.0	3.0	1.0	1.0	5.0
545	34.598	5.33	0.67	0.67	0.67	-3.33	1.67	0.67	3.67	1.67	-0.33	0.67	0.67	-0.33	2.67	4.67	-0.33	-1.33	6.67	0.67	1.67	-0.33	5.67	2.67	3.67	0.67	1.67	-0.33
552	35.043	6.0	-1.0	1.0	1.0	-1.0	-1.0	2.0	-3.0	-2.0	-2.0	3.0	3.0	-2.0	3.0	-3.0	-1.0	-5.0	2.0	-3.0	0.0	0.0	2.0	-1.0	3.0	3.0	4.0	1.0
559	35.487	4.33	-3.33	-0.33	0.67	6.67	1.67	0.67	0.67	-3.33	-0.33	-2.33	2.67	0.67	-0.33	1.67	-0.33	2.67	-1.33	1.67	0.67	3.67	-1.33	0.67	-2.33	2.67	1.67	2.67
566	35.931	4.33	3.67	0.67	2.67	-0.33	-1.33	-0.33	2.67	1.67	0.67	-0.33	-1.33	0.67	-1.33	1.67	-1.33	0.67	0.67	-2.33	0.67	4.67	3.67	2.67	-1.33	0.67	1.67	2.67
573	36.375	6.0	0.0	0.0	-1.0	-1.0	2.0	-2.0	-3.0	-2.0	-1.0	3.0	0.0	-2.0	2.0	0.0	-3.0	3.0	-3.0	0.0	0.0	0.0	-1.0	3.0	1.0	-3.0	0.0	-2.0
580	36.819	6.33	1.67	-0.33	-2.33	-0.33	-1.33	-4.33	-2.33	2.67	-3.33	-1.33	0.67	-2.33	-1.33	-2.33	1.67	-1.33	-4.33	1.67	-2.33	1.67	2.67	1.67	-0.33	0.67	0.67	4.67
587	37.263	6.0	-1.0	-1.0	-2.0	-3.0	0.0	-2.0	-4.0	2.0	0.0	-1.0	-2.0	1.0	3.0	0.0	-1.0	0.0	-2.0	-2.0	-1.0	0.0	2.0	3.0	-1.0	-1.0	-1.0	1.0
594	37.707	6.33	-1.33	-0.33	-0.33	-3.33	-4.33	-3.33	-0.33	0.67	-4.33	-3.33	-2.33	-5.33	-1.33	-2.33	2.67	-0.33	0.67	-1.33	-0.33	-0.33	1.67	-1.33	0.67	0.67	-2.33	-0.33
601	38.152	3.67	5.33	1.33	3.33	0.33	1.33	1.33	-2.67	5.33	0.33	0.33	-1.67	-0.67	0.33	1.33	-0.67	4.33	-0.67	4.33	4.33	1.33	4.33	-1.67	2.33	5.33	-0.67	3.33
608	38.596	5.33	-2.33	-0.33	-0.33	0.67	0.67	-2.33	-0.33	-1.33	2.67	0.67	-1.33	-2.33	1.67	1.67	-3.33	-2.33	1.67	-1.33	-4.33	1.67	-0.33	4.67	2.67	0.67	-3.33	-2.33
615	39.04	7.67	0.33	-2.67	-4.67	0.33	1.33	1.33	-6.67	-0.67	-2.67	-2.67	-4.67	-0.67	-4.67	-2.67	-4.67	-1.67	-4.67	1.33	-4.67	0.33	-2.67	0.33	-3.67	-0.67	0.33	-0.67
622	39.484	6.0	0.0	-3.0	5.0	-1.0	-3.0	-3.0	-1.0	-2.0	-3.0	-1.0	-1.0	-5.0	3.0	1.0	0.0	2.0	-1.0	-1.0	-4.0	1.0	-1.0	0.0	-5.0	0.0	0.0	2.0
629	39.928	5.67	-1.67	-0.67	-0.67	-1.67	-1.67	-0.67	-0.67	-0.67	-3.67	3.33	-1.67	-1.67	2.33	-4.67	-3.67	-0.67	-0.67	-2.67	1.33	-0.67	0.33	0.33	-1.67	0.33	1.33	-3.67
636	40.372	5.0	2.0	6.0	0.0	3.0	-3.0	5.0	1.0	-3.0	4.0	-1.0	3.0	2.0	-2.0	1.0	0.0	-1.0	3.0	4.0	0.0	0.0	3.0	1.0	0.0	3.0	-1.0	0.0
643	40.817	5.33	0.67	-0.33	-1.33	-3.33	2.67	3.67	-0.33	2.67	2.67	2.67	-0.33	4.67	0.67	-1.33	-0.33	0.67	2.67	2.67	-1.33	5.67	-2.33	0.67	-0.33	2.67	4.67	5.67
650	41.261	7.0	-1.0	0.0	1.0	-2.0	0.0	-4.0	1.0	-4.0	3.0	-3.0	-5.0	-5.0	-3.0	-2.0	0.0	0.0	-2.0	2.0	-1.0	0.0	2.0	-1.0	-1.0	0.0	-5.0	-1.0
657	41.705	4.67	-1.67	5.33	-0.67	2.33	3.33	5.33	-1.67	1.33	0.33	4.33	4.33	-0.67	1.33	0.33	2.33	2.33	-1.67	-0.67	-1.67	1.33	-0.67	1.33	3.33	0.33	2.33	3.33
664	42.149	5.33	3.67	-0.33	2.67	4.67	-0.33	-1.33	-1.33	2.67	-0.33	2.67	-0.33	1.67	-0.33	1.67	3.67	2.67	0.67	-0.33	-0.33	0.67	-0.33	0.67	-1.33	-0.33	0.67	0.67
671	42.594	5.33	9.67	1.67	0.67	-1.33	-1.33	-0.33	-0.33	1.67	0.67	0.67	2.67	-0.33	-2.33	-0.33	4.67	5.67	1.67	-1.33	-2.33	1.67	1.67	-0.33	-0.33	2.67	0.67	0.67
678	43.038	4.67	7.33	1.33	-2.67	0.33	0.33	3.33	-2.67	-0.67	4.33	3.33	4.33	2.33	3.33	-1.67	1.33	0.33	2.33	0.33	4.33	2.33	1.33	-2.67	4.33	-2.67	3.33	0.33
685	43.482	4.67	0.33	2.33	-2.67	1.33	5.33	1.33	0.33	5.33	2.33	2.33	8.33	-1.67	1.33	2.33	3.33	3.33	6.33	2.33	0.33	1.33	0.33	0.33	-0.67	-2.67	4.33	8.33
692	43.927	6.67	3.33	-0.67	-1.67	0.33	-2.67	0.33	0.33	-4.67	-1.67	-0.67	-1.67	-2.67	0.33	-3.67	4.33	2.33	-1.67	-2.67	-0.67	4.33	-2.67	2.33	-1.67	-2.67	5.33	2.33
699	44.371	6.33	3.67	1.67	4.67	0.67	-1.33	-1.33	4.67	-1.33	-0.33	1.67	-2.33	0.67	-2.33	2.67	3.67	-0.33	-1.33	-0.33	-1.33	2.67	-2.33	3.67	4.67	0.67	-1.33	0.67
706	44.815	5.33	5.67	-0.33	3.67	-2.33	6.67	2.67	0.67	6.67	3.67	0.67	2.67	2.67	0.67	3.67	1.67	3.67	-0.33	0.67	4.67	2.67	2.67	-0.33	10.67	1.67	4.67	5.67
713	45.26	4.33	0.67	1.67	2.67	13.67	-1.33	4.67	2.67	3.67	7.67	2.67	7.67	-0.33	4.67	8.67	3.67	1.67	2.67	1.67	3.67	2.67	2.67	1.67	3.67	1.67	7.67	1.67
720	45.704	7.33	2.67	-2.33	0.67	4.67	8.67	1.67	3.67	1.67	3.67	2.67	7.67	0.67	-2.33	1.67	0.67	4.67	1.67	-1.33	-1.33	-0.33	4.67	5.67	2.67	1.67	1.67	-2.33
727	46.149	9.0	7.0	-2.0	-2.0	0.0	7.0	-5.0	3.0	-1.0	-2.0	-3.0	-5.0	-7.0	-4.0	-2.0	-4.0	1.0	1.0	-4.0	1.0	-1.0	1.0	-5.0	-1.0	-6.0	1.0	-3.0
734	46.594	5.67	10.33	0.33	2.33	0.33	8.33	0.33	3.33	-0.67	2.33	-0.67	2.33	4.33	-1.67	-0.67	1.33	6.33	2.33	3.33	0.33	-0.67	-0.67	2.33	-0.67	4.33	8.33	1.33
741	47.038	6.0	7.0	1.0	-1.0	4.0	1.0	5.0	1.0	1.0	-1.0	0.0	4.0	-1.0	-2.0	9.0	2.0	0.0	-2.0	7.0	1.0	4.0	3.0	3.0	2.0	2.0	2.0	0.0
748	47.483	6.0	5.0	3.0	-2.0	6.0	3.0	5.0	-2.0	4.0	4.0	3.0	-2.0	2.0	-2.0	2.0	4.0	2.0	-4.0	-2.0	5.0	2.0	7.0	-5.0	8.0	4.0	2.0	-1.0
755	47.928	5.0	10.0	3.0	3.0	4.0	-3.0	3.0	3.0	10.0	4.0	3.0	6.0	7.0	1.0	0.0	11.0	5.0	1.0	6.0	3.0	1.0	2.0	1.0	0.0	8.0	4.0	0.0
762	48.372	5.67	14.33	5.33	6.33	4.33	4.33	2.33	8.33	0.33	3.33	5.33	9.33	5.33	1.33	4.33	5.33	-2.67	1.33	-0.67	2.33	4.33	0.33	10.33	1.33	3.33	1.33	2.33
769	48.817	7.33	-1.33	4.67	4.67	1.67	4.67	2.67	-0.33	-4.33	-2.33	3.67	0.67	1.67	1.67	0.67	8.67	4.67	-0.33	-0.33	5.67	-1.33	-1.33	-3.33	5.67	4.67	-0.33	5.67
776	49.262	9.67	3.33	-0.67	-0.67	-1.67	-0.67	0.33	-0.67	1.33	-2.67	-1.67	-6.67	-2.67	-2.67	-1.67	-2.67	1.33	-0.67	-4.67	-2.67	1.33	0.33	-0.67	-4.67	5.33	-2.67	4.33
783	49.707	7.33	3.67	-1.33	-4.33	5.67	-4.33	-0.33	5.67	4.67	-1.33	0.67	6.67	4.67	5.67	6.67	-1.33	4.67	-2.33	2.67	10.67	5.67	3.67	5.67	3.67	-1.33	-1.33	3.67
790	50.152	9.67	-2.67	0.33	0.33	-1.67	-6.67	2.33	5.33	1.33	2.33	1.33	0.33	-1.67	-0.67	0.33	0.33	-1.67	-3.67	-2.67	4.33	1.33	1.33	-3.67	5.33	-3.67	4.33	5.33
797	50.597	8.0	5.0	-1.0	1.0	7.0	13.0	5.0	10.0	12.0	16.0	4.0	12.0	3.0	3.0	16.0	9.0	9.0	7.0	3.0	2.0	7.0	2.0	7.0	2.0	5.0	0.0	7.0
804	51.042	6.0	6.0	7.0	3.0	16.0	24.0	28.0	26.0	30.0	28.0	18.0	23.0	20.0	20.0	20.0	19.0	18.0	18.0	11.0	23.0	20.0	18.0	16.0	23.0	8.0	16.0	18.0
811	51.487	8.0	5.0	5.0	4.0	26.0	33.0	44.0	44.0	43.0	41.0	36.0	33.0	32.0	32.0	32.0	28.0	15.0	26.0	33.0	21.0	22.0	27.0	29.0	24.0	17.0	30.0	22.0
818	51.932	7.33	2.67	2.67	1.67	10.67	34.67	37.67	34.67	44.67	39.67	37.67	31.67	36.67	24.67	28.67	26.67	21.67	25.67	26.67	15.67	20.67	28.67	16.67	31.67	12.67	21.67	30.67
825	52.377	6.33	5.67	2.67	6.67	10.67	7.67	6.67	15.67	15.67	15.67	19.67	14.67	22.67	12.67	15.67	11.67	11.67	13.67	11.67	16.67	11.67	10.67	13.67	1.67	10.67	9.67	5.67
832	52.823	6.33	12.67	2.67	1.67	6.67	9.67	17.67	12.67	11.67	5.67	12.67	1.67	9.67	10.67	13.67	7.67	9.67	23.67	9.67	15.67	8.67	6.67	4.67	9.67	10.67	6.67	7.67
839	53.268	12.33	-0.33	4.67	-0.33	-2.33	2.67	0.67	7.67	-1.33	5.67	3.67	1.67	0.67	-2.33	-0.33	-4.33	-1.33	0.67	-2.33	-2.33	-1.33	3.67	-0.33	3.67	0.67	2.67	4.67
846	53.713	7.67	5.33	8.33	1.33	5.33	-2.67	6.33	5.33	4.33	0.33	0.33	7.33	5.33	3.33	17.33	8.33	4.33	10.33	3.33	6.33	2.33	5.33	1.33	7.33	6.33	5.33	11.33
853	54.159	3.67	7.33	10.33	12.33	16.33	18.33	4.33	15.33	16.33	8.33	19.33	9.33	12.33	14.33	7.33	15.33	6.33	10.33	7.33	4.33	12.33	14.33	8.33	5.33	14.33	8.33	8.33
860	54.604	6.67	5.33	8.33	8.33	4.33	5.33	11.33	10.33	8.33	8.33	4.33	12.33	11.33	5.33	8.33	4.33	3.33	3.33	8.33	3.33	8.33	4.33	3.33	7.33	4.33	8.33	8.33
867	55.05	8.33	-0.33	5.67	5.67	4.67	6.67	5.67	2.67	4.67	3.67	8.67	0.67	4.67	5.67	2.67	-1.33	0.67	7.67	3.67	0.67	6.67	0.67	1.67	9.67	0.67	4.67	7.67
874	55.496	6.33	6.67	12.67	5.67	3.67	4.67	8.67	7.67	11.67	2.67	9.67	5.67	12.67	4.67	6.67	2.67	10.67	2.67	6.67	4.67	10.67	4.67	2.67	6.67	4.67	6.67	6.67
881	55.942	11.67	-0.67	3.33	3.33	-1.67	-0.67	-0.67	0.33	11.33	1.33	-0.67	2.33	-0.67	-0.67	-2.67	-2.67	5.33	-0.67	-3.67	-3.67	-2.67	2.33	3.33	1.33	-1.67	4.33	4.33
888	56.387	8.33	3.67	10.67	2.67	17.67	12.67	2.67	5.67	5.67	4.67	2.67	2.67	10.67	5.67	5.67	3.67	2.67	2.67	2.67	1.67	6.67	2.67	1.67	6.67	4.67	4.67	9.67
895	56.833	9.0	8.0	9.0	-2.0	4.0	6.0	9.0	7.0	13.0	7.0	-1.0	5.0	5.0	3.0	4.0	4.0	6.0	5.0	11.0	4.0	4.0	3.0	-1.0	6.0	-1.0	7.0	6.0
902	57.279	11.33	2.67	3.67	0.67	1.67	5.67	6.67	3.67	2.67	-0.33	5.67	3.67	3.67	3.67	4.67	3.67	4.67	5.67	1.67	-2.33	2.67	0.67	14.67	7.67	8.67	-2.33	-5.33
909	57.726	15.33	3.67	-0.33	0.67	4.67	2.67	-0.33	-1.33	8.67	5.67	5.67	1.67	-1.33	4.67	-4.33	1.67	-2.33	-2.33	5.67	-5.33	1.67	1.67	5.67	-3.33	-2.33	10.67	-4.33
916	58.172	16.0	0.0	-2.0	-7.0	7.0	7.0	-3.0	5.0	-1.0	6.0	0.0	2.0	8.0	-2.0	6.0	1.0	1.0	3.0	0.0	1.0	2.0	1.0	-7.0	-4.0	1.0	8.0	10.0
923	58.618	10.67	8.33	2.33	7.33	3.33	10.33	1.33	5.33	9.33	0.33	12.33	5.33	3.33	-0.67	6.33	13.33	4.33	4.33	7.33	-2.67	4.33	-4.67	7.33	0.33	9.33	0.33	4.33
930	59.064	10.33	12.67	2.67	2.67	8.67	11.67	7.67	6.67	14.67	13.67	4.67	9.67	3.67	10.67	8.67	1.67	9.67	13.67	13.67	11.67	11.67	6.67	0.67	6.67	8.67	14.67	6.67
937	59.511	13.33	8.67	5.67	5.67	-3.33	7.67	11.67	0.67	7.67	9.67	7.67	10.67	4.67	9.67	4.67	3.67	7.67	4.67	8.67	3.67	7.67	10.67	8.67	-2.33	9.67	-0.33	7.67
944	59.957	10.67	3.33	7.33	7.33	0.33	-1.67	9.33	-1.67	8.33	7.33	4.33	4.33	6.33	2.33	1.33	3.33	2.33	3.33	0.33	2.33	-0.67	3.33	1.33	5.33	4.33	2.33	6.33
951	60.404	10.33	3.67	2.67	4.67	12.67	17.67	4.67	1.67	0.67	9.67	14.67	6.67	-0.33	3.67	3.67	0.67	5.67	5.67	3.67	4.67	0.67	5.67	-0.33	-3.33	-1.33	2.67	13.67
958	60.851	13.33	-0.33	-0.33	-3.33	2.67	4.67	0.67	5.67	0.67	2.67	2.67	11.67	-2.33	4.67	-0.33	4.67	-8.33	-0.33	-1.33	8.67	-0.33	-4.33	-0.33	-2.33	-0.33	4.67	5.67
965	61.298	14.33	6.67	2.67	1.67	-3.33	-1.33	-2.33	-3.33	0.67	-0.33	2.67	-1.33	1.67	3.67	1.67	5.67	-2.33	-1.33	-0.33	5.67	4.67	-0.33	-1.33	-2.33	1.67	1.67	12.67
972	61.745	11.67	11.33	9.33	0.33	7.33	-3.67	5.33	8.33	3.33	7.33	5.33	1.33	8.33	10.33	5.33	10.33	3.33	7.33	5.33	5.33	-3.67	-0.67	1.33	8.33	1.33	2.33	6.33
979	62.192	11.0	5.0	8.0	7.0	5.0	2.0	7.0	1.0	8.0	12.0	4.0	1.0	3.0	4.0	0.0	7.0	-1.0	1.0	5.0	6.0	1.0	-1.0	3.0	5.0	10.0	1.0	6.0
986	62.639	9.33	5.67	6.67	10.67	12.67	11.67	2.67	10.67	7.67	6.67	5.67	18.67	5.67	8.67	4.67	6.67	4.67	7.67	2.67	5.67	3.67	2.67	16.67	5.67	9.67	6.67	2.67
993	63.086	9.33	21.67	7.67	3.67	1.67	11.67	4.67	0.67	12.67	5.67	8.67	3.67	5.67	10.67	5.67	-0.33	6.67	11.67	3.67	10.67	-1.33	10.67	8.67	-0.33	8.67	2.67	7.67
1000	63.533	9.0	14.0	1.0	13.0	8.0	6.0	3.0	8.0	7.0	7.0	9.0	8.0	9.0	3.0	4.0	5.0	1.0	14.0	7.0	7.0	5.0	4.0	5.0	8.0	8.0	-5.0	4.0
1007	63.981	8.0	22.0	8.0	9.0	7.0	9.0	11.0	9.0	4.0	8.0	9.0	7.0	10.0	6.0	9.0	6.0	21.0	10.0	9.0	14.0	11.0	15.0	7.0	9.0	12.0	2.0	4.0
1014	64.428	12.0	10.0	13.0	4.0	7.0	10.0	5.0	2.0	9.0	6.0	4.0	-1.0	7.0	8.0	12.0	2.0	10.0	10.0	0.0	11.0	1.0	1.0	0.0	5.0	3.0	3.0	4.0
1021	64.876	13.33	24.67	17.67	7.67	22.67	1.67	2.67	6.67	15.67	7.67	12.67	5.67	10.67	10.67	15.67	8.67	12.67	1.67	2.67	15.67	11.67	-2.33	3.67	8.67	10.67	9.67	14.67
1028	65.324	10.67	38.33	19.33	43.33	27.33	28.33	30.33	28.33	20.33	25.33	23.33	15.33	20.33	27.33	24.33	13.33	14.33	19.33	10.33	20.33	24.33	10.33	8.33	19.33	21.33	10.33	20.33
1035	65.772	11.67	31.33	43.33	47.33	43.33	28.33	23.33	38.33	33.33	27.33	38.33	26.33	28.33	18.33	16.33	21.33	28.33	22.33	26.33	18.33	16.33	18.33	20.33	15.33	25.33	13.33	16.33
1042	66.22	14.67	24.33	29.33	32.33	31.33	23.33	22.33	16.33	13.33	20.33	7.33	21.33	13.33	14.33	13.33	13.33	13.33	12.33	26.33	13.33	7.33	5.33	14.33	14.33	8.33	8.33	8.33
1049	66.668	15.0	19.0	18.0	21.0	15.0	5.0	16.0	6.0	11.0	9.0	7.0	15.0	12.0	14.0	5.0	5.0	15.0	4.0	4.0	5.0	15.0	14.0	2.0	3.0	6.0	5.0	7.0
1056	67.116	16.67	11.33	11.33	6.33	1.33	10.33	0.33	21.33	11.33	8.33	-0.67	6.33	-0.67	2.33	9.33	3.33	-0.67	1.33	10.33	3.33	2.33	1.33	8.33	9.33	-8.67	8.33	2.33
1063	67.564	11.67	9.33	21.33	16.33	7.33	10.33	8.33	4.33	9.33	10.33	4.33	11.33	10.33	4.33	6.33	4.33	5.33	11.33	6.33	14.33	11.33	4.33	7.33	4.33	4.33	5.33	4.33
1070	68.013	12.67	7.33	17.33	9.33	8.33	8.33	9.33	7.33	5.33	14.33	10.33	6.33	2.33	15.33	12.33	6.33	2.33	2.33	2.33	9.33	9.33	2.33	19.33	3.33	11.33	8.33	13.33
1077	68.462	9.33	8.67	15.67	13.67	15.67	9.67	8.67	7.67	12.67	8.67	0.67	11.67	5.67	8.67	3.67	11.67	11.67	5.67	9.67	3.67	8.67	9.67	2.67	14.67	3.67	17.67	9.67
1084	68.91	13.0	3.0	-4.0	3.0	14.0	8.0	10.0	15.0	2.0	6.0	5.0	5.0	2.0	14.0	3.0	11.0	8.0	3.0	16.0	10.0	0.0	5.0	9.0	10.0	7.0	10.0	8.0
1091	69.359	10.33	8.67	9.67	14.67	20.67	14.67	12.67	8.67	9.67	13.67	12.67	8.67	7.67	15.67	9.67	6.67	3.67	4.67	2.67	4.67	19.67	7.67	16.67	9.67	15.67	5.67	3.67
1098	69.808	11.33	0.67	4.67	4.67	4.67	-1.33	-0.33	11.67	8.67	11.67	7.67	11.67	7.67	9.67	11.67	14.67	7.67	9.67	12.67	7.67	-0.33	8.67	4.67	8.67	0.67	2.67	1.67
1105	70.257	10.67	4.33	7.33	10.33	10.33	12.33	13.33	13.33	9.33	2.33	9.33	3.33	6.33	11.33	4.33	5.33	3.33	11.33	11.33	4.33	10.33	6.33	10.33	15.33	8.33	0.33	3.33
1112	70.707	13.67	3.33	3.33	0.33	0.33	4.33	5.33	11.33	12.33	5.33	0.33	8.33	0.33	5.33	6.33	9.33	8.33	8.33	6.33	5.33	13.33	2.33	-0.67	10.33	1.33	4.33	11.33
1119	71.156	11.0	6.0	11.0	10.0	8.0	6.0	10.0	17.0	2.0	4.0	5.0	8.0	9.0	7.0	1.0	8.0	11.0	10.0	12.0	11.0	15.0	7.0	6.0	-1.0	15.0	11.0	8.0
1126	71.606	8.67	9.33	20.33	17.33	18.33	15.33	18.33	15.33	7.33	16.33	5.33	13.33	10.33	11.33	7.33	12.33	4.33	9.33	10.33	8.33	17.33	14.33	11.33	4.33	11.33	8.33	9.33
1133	72.055	9.33	2.67	0.67	14.67	16.67	12.67	8.67	11.67	9.67	11.67	8.67	14.67	6.67	8.67	4.67	10.67	9.67	5.67	10.67	6.67	7.67	6.67	11.67	4.67	15.67	21.67	14.67
1140	72.505	14.33	4.67	11.67	17.67	11.67	2.67	7.67	7.67	7.67	9.67	6.67	4.67	4.67	5.67	12.67	6.67	15.67	5.67	8.67	12.67	7.67	5.67	7.67	9.67	13.67	12.67	7.67
1147	72.955	24.67	8.33	8.33	20.33	22.33	12.33	9.33	19.33	1.33	15.33	11.33	13.33	16.33	18.33	0.33	4.33	5.33	9.33	11.33	12.33	10.33	14.33	1.33	17.33	6.33	12.33	4.33
1154	73.405	20.33	5.67	4.67	18.67	4.67	5.67	12.67	8.67	1.67	2.67	21.67	0.67	0.67	1.67	4.67	4.67	10.67	9.67	0.67	0.67	11.67	19.67	9.67	11.67	12.67	15.67	3.67
1161	73.855	14.33	4.67	14.67	10.67	5.67	5.67	9.67	19.67	6.67	15.67	8.67	6.67	0.67	14.67	6.67	11.67	7.67	16.67	3.67	5.67	7.67	6.67	3.67	1.67	15.67	7.67	11.67
1168	74.306	13.33	5.67	14.67	15.67	8.67	12.67	11.67	14.67	13.67	10.67	6.67	5.67	2.67	8.67	8.67	11.67	13.67	5.67	9.67	9.67	12.67	5.67	14.67	6.67	7.67	3.67	4.67
1175	74.756	20.67	7.33	1.33	16.33	5.33	10.33	17.33	8.33	14.33	4.33	15.33	16.33	15.33	19.33	13.33	8.33	15.33	21.33	7.33	10.33	19.33	-1.67	13.33	24.33	19.33	5.33	6.33
1182	75.207	39.0	2.0	7.0	18.0	15.0	-3.0	5.0	20.0	17.0	6.0	2.0	6.0	15.0	13.0	8.0	20.0	12.0	19.0	15.0	7.0	-4.0	7.0	0.0	11.0	21.0	17.0	15.0
1189	75.658	24.0	-1.0	21.0	3.0	18.0	13.0	17.0	14.0	20.0	6.0	10.0	-4.0	11.0	10.0	10.0	5.0	11.0	7.0	11.0	12.0	15.0	8.0	9.0	7.0	7.0	19.0	8.0
1196	76.109	14.0	5.0	10.0	13.0	12.0	6.0	8.0	14.0	10.0	9.0	8.0	12.0	8.0	4.0	4.0	6.0	4.0	8.0	0.0	17.0	7.0	5.0	7.0	1.0	9.0	8.0	-7.0
1203	76.56	13.0	6.0	4.0	-2.0	0.0	8.0	9.0	7.0	2.0	0.0	8.0	14.0	8.0	7.0	5.0	6.0	7.0	3.0	6.0	8.0	6.0	5.0	3.0	6.0	7.0	8.0	14.0
1210	77.011	8.33	5.67	8.67	11.67	14.67	19.67	4.67	12.67	11.67	12.67	16.67	11.67	24.67	14.67	10.67	17.67	18.67	8.67	14.67	8.67	7.67	9.67	12.67	17.67	8.67	13.67	9.67
1217	77.463	18.0	5.0	1.0	7.0	2.0	2.0	9.0	5.0	4.0	0.0	6.0	6.0	1.0	6.0	4.0	8.0	5.0	-3.0	1.0	0.0	5.0	5.0	3.0	5.0	3.0	9.0	5.0
1224	77.915	13.67	1.33	16.33	8.33	17.33	3.33	6.33	9.33	8.33	13.33	1.33	4.33	2.33	6.33	8.33	1.33	8.33	11.33	11.33	12.33	5.33	9.33	10.33	6.33	9.33	10.33	7.33
1231	78.366	11.0	9.0	11.0	17.0	8.0	13.0	12.0	8.0	16.0	13.0	2.0	18.0	2.0	9.0	10.0	5.0	7.0	19.0	9.0	14.0	12.0	16.0	12.0	19.0	15.0	7.0	14.0
1238	78.818	13.67	8.33	4.33	16.33	23.33	13.33	6.33	5.33	8.33	12.33	7.33	11.33	6.33	-2.67	6.33	14.33	10.33	8.33	12.33	9.33	10.33	5.33	8.33	8.33	6.33	6.33	11.33
1245	79.271	12.67	7.33	15.33	17.33	14.33	6.33	7.33	17.33	10.33	3.33	7.33	9.33	3.33	5.33	7.33	12.33	4.33	14.33	6.33	6.33	14.33	13.33	8.33	10.33	4.33	3.33	0.33
1252	79.723	13.67	4.33	21.33	12.33	11.33	7.33	13.33	3.33	10.33	14.33	2.33	4.33	14.33	15.33	0.33	6.33	11.33	5.33	0.33	6.33	2.33	7.33	4.33	6.33	13.33	5.33	2.33
1259	80.175	9.67	10.33	17.33	13.33	12.33	17.33	21.33	20.33	15.33	9.33	6.33	11.33	16.33	11.33	12.33	14.33	16.33	14.33	16.33	17.33	16.33	19.33	7.33	6.33	6.33	8.33	14.33
1266	80.628	14.0	16.0	6.0	10.0	14.0	5.0	17.0	7.0	12.0	11.0	10.0	15.0	15.0	21.0	14.0	13.0	18.0	14.0	13.0	14.0	10.0	17.0	17.0	13.0	14.0	0.0	16.0
1273	81.081	11.0	8.0	18.0	15.0	15.0	8.0	13.0	13.0	16.0	28.0	24.0	21.0	19.0	3.0	20.0	19.0	14.0	12.0	17.0	25.0	15.0	27.0	11.0	15.0	13.0	15.0	21.0
1280	81.534	15.33	4.67	9.67	9.67	18.67	23.67	13.67	10.67	14.67	19.67	22.67	11.67	9.67	19.67	18.67	14.67	18.67	18.67	22.67	18.67	21.67	21.67	9.67	23.67	24.67	18.67	19.67
1287	81.987	13.33	12.67	18.67	24.67	28.67	20.67	21.67	27.67	16.67	22.67	30.67	34.67	31.67	28.67	20.67	20.67	19.67	26.67	25.67	35.67	18.67	37.67	15.67	18.67	21.67	25.67	16.67
1294	82.441	11.67	23.33	51.33	39.33	48.33	37.33	38.33	29.33	40.33	37.33	48.33	23.33	35.33	26.33	33.33	30.33	33.33	26.33	35.33	26.33	19.33	35.33	32.33	25.33	22.33	27.33	33.33
1301	82.894	17.0	74.0	112.0	92.0	82.0	74.0	69.0	55.0	43.0	53.0	41.0	42.0	51.0	52.0	46.0	34.0	52.0	44.0	44.0	39.0	28.0	37.0	49.0	38.0	33.0	42.0	41.0
1308	83.348	16.0	153.0	226.0	175.0	178.0	159.0	133.0	117.0	88.0	93.0	83.0	102.0	107.0	94.0	84.0	82.0	80.0	65.0	75.0	81.0	67.0	77.0	72.0	76.0	81.0	83.0	71.0
1315	83.802	22.33	145.67	292.67	241.67	222.67	193.67	175.67	137.67	143.67	99.67	126.67	115.67	117.67	108.67	114.67	93.67	94.67	89.67	103.67	108.67	102.67	100.67	103.67	83.67	103.67	82.67	100.67
1322	84.256	21.0	176.0	263.0	231.0	201.0	180.0	147.0	140.0	114.0	107.0	124.0	123.0	90.0	105.0	107.0	82.0	92.0	91.0	96.0	89.0	82.0	97.0	69.0	95.0	92.0	80.0	64.0
1329	84.71	23.0	112.0	130.0	133.0	77.0	115.0	90.0	85.0	73.0	85.0	63.0	53.0	58.0	57.0	47.0	49.0	43.0	51.0	37.0	63.0	49.0	56.0	51.0	61.0	56.0	47.0	56.0
1336	85.165	27.33	31.67	51.67	50.67	62.67	32.67	35.67	37.67	27.67	34.67	18.67	31.67	36.67	7.67	29.67	21.67	37.67	30.67	20.67	30.67	25.67	14.67	32.67	30.67	18.67	25.67	25.67
1343	85.619	23.33	20.67	30.67	23.67	20.67	27.67	20.67	22.67	14.67	28.67	17.67	21.67	10.67	2.67	16.67	17.67	14.67	15.67	12.67	20.67	21.67	14.67	14.67	16.67	10.67	8.67	19.67
1350	86.074	24.33	0.67	10.67	16.67	6.67	2.67	18.67	3.67	11.67	4.67	5.67	3.67	-4.33	13.67	15.67	7.67	6.67	-2.33	9.67	1.67	8.67	2.67	-1.33	19.67	11.67	5.67	13.67
1357	86.529	20.0	7.0	7.0	15.0	13.0	8.0	6.0	14.0	2.0	13.0	13.0	-4.0	6.0	10.0	4.0	10.0	0.0	15.0	13.0	15.0	13.0	4.0	7.0	17.0	13.0	18.0	15.0
1364	86.985	19.0	0.0	13.0	19.0	16.0	8.0	13.0	2.0	7.0	23.0	25.0	15.0	8.0	11.0	17.0	16.0	11.0	8.0	18.0	9.0	8.0	10.0	19.0	15.0	11.0	11.0	11.0
1371	87.44	20.67	-0.67	10.33	9.33	11.33	13.33	3.33	6.33	14.33	18.33	14.33	8.33	15.33	19.33	19.33	22.33	18.33	20.33	10.33	15.33	11.33	18.33	11.33	9.33	15.33	14.33	8.33
1378	87.896	24.67	12.33	13.33	6.33	9.33	8.33	19.33	-1.67	7.33	16.33	9.33	4.33	11.33	13.33	11.33	24.33	10.33	9.33	6.33	1.33	14.33	4.33	6.33	8.33	11.33	13.33	-1.67
1385	88.352	22.33	6.67	19.67	13.67	14.67	8.67	13.67	7.67	-1.33	15.67	6.67	-1.33	10.67	14.67	3.67	-0.33	-1.33	4.67	14.67	12.67	9.67	13.67	5.67	10.67	8.67	20.67	-1.33
1392	88.808	25.67	3.33	6.33	9.33	8.33	2.33	9.33	3.33	-0.67	7.33	6.33	15.33	12.33	10.33	0.33	1.33	11.33	2.33	8.33	-2.67	5.33	3.33	8.33	3.33	4.33	5.33	-3.67
1399	89.264	22.67	1.33	11.33	4.33	11.33	6.33	4.33	12.33	5.33	5.33	5.33	7.33	8.33	13.33	6.33	8.33	11.33	18.33	12.33	13.33	-1.67	10.33	13.33	3.33	14.33	5.33	16.33
1406	89.72	26.67	0.33	1.33	12.33	22.33	0.33	8.33	-4.67	3.33	9.33	10.33	-0.67	8.33	16.33	19.33	7.33	3.33	11.33	-4.67	6.33	-2.67	4.33	-0.67	9.33	1.33	-1.67	1.33
1413	90.177	19.67	1.33	19.33	13.33	17.33	8.33	10.33	6.33	16.33	4.33	10.33	21.33	6.33	16.33	16.33	14.33	17.33	1.33	11.33	9.33	9.33	10.33	23.33	7.33	15.33	18.33	10.33
1420	90.634	21.67	12.33	7.33	8.33	11.33	11.33	19.33	2.33	8.33	7.33	12.33	10.33	7.33	1.33	15.33	4.33	9.33	9.33	18.33	15.33	5.33	2.33	11.33	16.33	14.33	18.33	4.33
1427	91.091	23.33	-5.33	5.67	-0.33	10.67	21.67	10.67	10.67	5.67	7.67	4.67	17.67	8.67	0.67	11.67	6.67	11.67	8.67	2.67	8.67	6.67	11.67	8.67	13.67	7.67	0.67	4.67
1434	91.549	28.67	0.33	-2.67	3.33	-1.67	0.33	3.33	2.33	11.33	7.33	3.33	4.33	13.33	15.33	10.33	11.33	6.33	-1.67	11.33	-1.67	5.33	0.33	-1.67	5.33	5.33	13.33	12.33
1441	92.006	22.67	14.33	9.33	16.33	11.33	7.33	19.33	15.33	13.33	16.33	17.33	21.33	10.33	5.33	16.33	12.33	-2.67	16.33	14.33	4.33	12.33	4.33	18.33	16.33	11.33	14.33	13.33
1448	92.464	22.0	0.0	9.0	11.0	24.0	3.0	11.0	13.0	13.0	12.0	11.0	12.0	10.0	11.0	4.0	7.0	9.0	14.0	8.0	9.0	21.0	7.0	17.0	10.0	10.0	18.0	19.0
1455	92.922	23.0	16.0	4.0	13.0	15.0	16.0	5.0	7.0	15.0	12.0	7.0	12.0	4.0	13.0	13.0	16.0	12.0	10.0	8.0	11.0	12.0	12.0	10.0	7.0	5.0	15.0	16.0
1462	93.38	27.67	9.33	15.33	-6.67	2.33	8.33	7.33	-1.67	5.33	3.33	2.33	9.33	0.33	-0.67	-0.67	2.33	6.33	5.33	10.33	4.33	-0.67	14.33	9.33	6.33	-3.67	17.33	9.33
1469	93.839	28.33	-4.33	-1.33	12.67	2.67	1.67	11.67	2.67	3.67	11.67	5.67	8.67	-3.33	16.67	4.67	-0.33	3.67	12.67	0.67	1.67	3.67	7.67	0.67	15.67	5.67	10.67	2.67
1476	94.297	25.67	-0.67	14.33	-1.67	10.33	16.33	3.33	13.33	0.33	9.33	0.33	3.33	12.33	-1.67	8.33	2.33	3.33	2.33	11.33	13.33	5.33	6.33	10.33	4.33	9.33	6.33	7.33
1483	94.756	31.0	-11.0	13.0	2.0	4.0	-6.0	-3.0	3.0	4.0	3.0	1.0	-3.0	9.0	0.0	7.0	5.0	7.0	6.0	10.0	4.0	-9.0	-6.0	3.0	-2.0	18.0	6.0	6.0
1490	95.215	28.33	1.67	6.67	5.67	8.67	3.67	7.67	-3.33	3.67	3.67	5.67	13.67	13.67	14.67	14.67	-5.33	5.67	5.67	10.67	1.67	12.67	3.67	6.67	5.67	5.67	5.67	-0.33
1497	95.675	26.33	8.67	5.67	-1.33	13.67	14.67	17.67	10.67	7.67	18.67	9.67	0.67	6.67	18.67	9.67	3.67	14.67	14.67	8.67	3.67	15.67	2.67	14.67	16.67	18.67	25.67	1.67
1504	96.134	28.33	2.67	16.67	8.67	10.67	12.67	20.67	17.67	11.67	15.67	21.67	15.67	21.67	22.67	27.67	13.67	10.67	15.67	27.67	10.67	28.67	14.67	15.67	12.67	11.67	16.67	18.67
1511	96.594	31.67	4.33	9.33	8.33	11.33	23.33	11.33	22.33	3.33	25.33	16.33	21.33	27.33	16.33	20.33	13.33	23.33	19.33	33.33	23.33	12.33	10.33	20.33	12.33	22.33	19.33	30.33
1518	97.054	28.67	8.33	18.33	4.33	14.33	28.33	34.33	35.33	41.33	41.33	27.33	30.33	32.33	9.33	29.33	39.33	39.33	27.33	27.33	31.33	17.33	29.33	31.33	21.33	23.33	27.33	28.33
1525	97.514	28.0	2.0	3.0	9.0	25.0	23.0	36.0	39.0	38.0	39.0	38.0	23.0	41.0	36.0	28.0	37.0	37.0	25.0	33.0	29.0	40.0	28.0	34.0	19.0	14.0	27.0	34.0
1532	97.975	35.33	-7.33	-10.33	-4.33	10.67	7.67	11.67	18.67	25.67	25.67	11.67	17.67	23.67	30.67	21.67	27.67	6.67	7.67	20.67	11.67	25.67	14.67	15.67	17.67	6.67	12.67	8.67
1539	98.436	34.33	-8.33	9.67	3.67	2.67	5.67	7.67	0.67	1.67	8.67	10.67	14.67	8.67	5.67	10.67	11.67	-2.33	11.67	23.67	20.67	21.67	8.67	2.67	15.67	12.67	6.67	-1.33
1546	98.897	28.0	7.0	4.0	-3.0	3.0	5.0	19.0	5.0	8.0	16.0	18.0	5.0	17.0	13.0	5.0	15.0	8.0	11.0	7.0	3.0	11.0	12.0	3.0	-4.0	13.0	8.0	5.0
1553	99.358	31.0	-2.0	2.0	-2.0	4.0	-1.0	1.0	-3.0	3.0	9.0	5.0	-10.0	9.0	8.0	0.0	14.0	6.0	-1.0	6.0	3.0	10.0	11.0	6.0	12.0	10.0	-3.0	4.0
1560	99.82	32.67	-1.67	5.33	8.33	-3.67	2.33	1.33	-2.67	0.33	8.33	4.33	-10.67	7.33	-0.67	6.33	7.33	0.33	8.33	-4.67	10.33	-6.67	0.33	5.33	3.33	5.33	6.33	-1.67
1567	100.281	27.67	1.33	13.33	5.33	12.33	8.33	2.33	-0.67	9.33	13.33	5.33	7.33	3.33	16.33	8.33	10.33	14.33	4.33	10.33	1.33	0.33	11.33	7.33	8.33	1.33	9.33	9.33
1574	100.743	32.67	-1.67	9.33	7.33	3.33	1.33	-3.67	7.33	-0.67	5.33	-4.67	9.33	-3.67	3.33	6.33	2.33	2.33	2.33	5.33	-0.67	5.33	2.33	2.33	-9.67	1.33	8.33	2.33
1581	101.206	29.0	4.0	-5.0	6.0	11.0	-4.0	12.0	12.0	19.0	5.0	8.0	0.0	9.0	8.0	1.0	14.0	1.0	-1.0	12.0	1.0	20.0	9.0	17.0	2.0	5.0	-6.0	17.0
1588	101.668	25.67	8.33	8.33	6.33	3.33	12.33	6.33	12.33	13.33	2.33	29.33	7.33	9.33	14.33	8.33	0.33	20.33	15.33	6.33	12.33	11.33	10.33	7.33	19.33	16.33	17.33	15.33
1595	102.131	27.0	15.0	6.0	16.0	26.0	1.0	27.0	9.0	10.0	13.0	0.0	14.0	15.0	4.0	19.0	17.0	2.0	10.0	13.0	17.0	1.0	2.0	10.0	10.0	19.0	13.0	16.0
1602	102.594	26.0	10.0	12.0	24.0	13.0	14.0	11.0	8.0	12.0	15.0	6.0	7.0	10.0	9.0	9.0	12.0	18.0	2.0	13.0	10.0	19.0	8.0	10.0	4.0	4.0	16.0	14.0
1609	103.057	25.0	15.0	16.0	23.0	17.0	3.0	20.0	-1.0	23.0	1.0	10.0	24.0	7.0	26.0	11.0	6.0	9.0	27.0	22.0	19.0	9.0	13.0	10.0	20.0	14.0	3.0	15.0
1616	103.521	28.0	0.0	9.0	14.0	10.0	-6.0	-2.0	-1.0	8.0	1.0	9.0	6.0	10.0	9.0	14.0	1.0	11.0	9.0	7.0	-1.0	8.0	3.0	7.0	7.0	3.0	28.0	4.0
1623	103.985	27.33	-9.33	3.67	0.67	5.67	7.67	6.67	3.67	-0.33	1.67	11.67	-2.33	6.67	8.67	6.67	1.67	15.67	5.67	2.67	-5.33	16.67	6.67	5.67	6.67	8.67	4.67	6.67
1630	104.449	34.67	-7.67	-6.67	8.33	-4.67	-0.67	-4.67	-3.67	2.33	-7.67	-8.67	-1.67	-5.67	-9.67	-11.67	3.33	-1.67	-3.67	3.33	-10.67	-10.67	1.33	8.33	-0.67	-13.67	-2.67	-2.67
1637	104.913	26.0	-3.0	11.0	1.0	-2.0	-1.0	0.0	3.0	13.0	-8.0	-2.0	12.0	2.0	8.0	4.0	3.0	10.0	5.0	10.0	6.0	2.0	6.0	2.0	0.0	1.0	6.0	2.0
1644	105.378	24.67	6.33	6.33	7.33	10.33	4.33	2.33	10.33	-3.67	-4.67	0.33	-2.67	6.33	-1.67	9.33	-0.67	1.33	2.33	8.33	1.33	3.33	6.33	13.33	9.33	10.33	-0.67	12.33
1651	105.843	21.67	1.33	5.33	16.33	8.33	7.33	7.33	1.33	3.33	7.33	9.33	18.33	6.33	8.33	10.33	8.33	11.33	7.33	8.33	11.33	8.33	0.33	8.33	1.33	12.33	0.33	-3.67
1658	106.308	20.33	2.67	5.67	3.67	9.67	0.67	11.67	19.67	7.67	15.67	7.67	11.67	11.67	6.67	22.67	17.67	7.67	10.67	19.67	10.67	16.67	20.67	10.67	7.67	7.67	5.67	2.67
1665	106.773	23.0	6.0	6.0	14.0	8.0	10.0	7.0	9.0	4.0	-1.0	5.0	2.0	1.0	4.0	12.0	3.0	-1.0	2.0	9.0	17.0	7.0	-1.0	-2.0	9.0	-2.0	0.0	9.0
1672	107.239	27.0	-7.0	2.0	-10.0	-2.0	-7.0	-5.0	-2.0	7.0	-6.0	4.0	6.0	9.0	10.0	-3.0	1.0	-1.0	-4.0	-2.0	-8.0	-5.0	1.0	3.0	-7.0	6.0	7.0	3.0
1679	107.705	22.67	13.33	0.33	6.33	5.33	2.33	12.33	5.33	3.33	10.33	3.33	1.33	-1.67	-7.67	-1.67	8.33	6.33	-1.67	0.33	1.33	5.33	-0.67	7.33	-2.67	11.33	5.33	1.33
1686	108.171	25.0	-3.0	1.0	7.0	9.0	4.0	-4.0	15.0	0.0	-9.0	8.0	-4.0	9.0	0.0	12.0	3.0	-5.0	5.0	-5.0	14.0	0.0	-3.0	5.0	3.0	-6.0	6.0	-4.0
1693	108.638	24.0	-3.0	3.0	0.0	2.0	-3.0	1.0	-4.0	-5.0	10.0	2.0	-5.0	5.0	6.0	-2.0	-1.0	0.0	11.0	2.0	5.0	8.0	-5.0	-5.0	4.0	-3.0	0.0	6.0
1700	109.105	21.67	3.33	7.33	2.33	3.33	4.33	5.33	-1.67	2.33	3.33	-0.67	8.33	6.33	1.33	1.33	7.33	16.33	3.33	4.33	7.33	-2.67	5.33	9.33	3.33	-0.67	3.33	6.33
1707	109.572	21.0	2.0	1.0	6.0	8.0	5.0	6.0	13.0	2.0	7.0	5.0	-2.0	12.0	12.0	1.0	9.0	5.0	12.0	9.0	3.0	1.0	1.0	3.0	13.0	2.0	-4.0	3.0
1714	110.039	22.33	0.67	5.67	-5.33	2.67	2.67	-1.33	-8.33	8.67	0.67	-1.33	-8.33	-1.33	-6.33	5.67	2.67	4.67	-1.33	7.67	0.67	-2.33	-2.33	16.67	-3.33	8.67	-5.33	1.67
1721	110.507	24.67	0.33	0.33	-7.67	-2.67	-3.67	2.33	-4.67	-3.67	-3.67	-4.67	4.33	-0.67	-5.67	-6.67	-3.67	0.33	-1.67	-4.67	-4.67	2.33	5.33	4.33	3.33	4.33	-3.67	-7.67
1728	110.975	18.33	13.67	8.67	3.67	9.67	6.67	6.67	5.67	5.67	4.67	9.67	4.67	18.67	2.67	-0.33	0.67	5.67	19.67	6.67	2.67	17.67	14.67	0.67	0.67	0.67	3.67	3.67
1735	111.443	19.33	4.67	5.67	5.67	7.67	2.67	6.67	5.67	8.67	4.67	-1.33	2.67	8.67	3.67	7.67	12.67	7.67	11.67	8.67	11.67	10.67	19.67	9.67	11.67	1.67	4.67	-1.33
1742	111.912	20.67	0.33	6.33	16.33	1.33	7.33	7.33	3.33	6.33	10.33	6.33	-6.67	-1.67	8.33	6.33	2.33	12.33	-1.67	-0.67	-6.67	-0.67	6.33	11.33	10.33	-2.67	0.33	9.33
1749	112.38	18.33	11.67	9.67	14.67	14.67	4.67	2.67	14.67	11.67	4.67	7.67	5.67	8.67	-0.33	11.67	7.67	1.67	4.67	0.67	1.67	13.67	6.67	10.67	11.67	9.67	8.67	4.67
1756	112.85	17.0	1.0	5.0	8.0	11.0	1.0	3.0	14.0	9.0	20.0	0.0	0.0	15.0	17.0	5.0	12.0	6.0	9.0	7.0	5.0	18.0	18.0	14.0	8.0	5.0	9.0	0.0
1763	113.319	14.0	6.0	21.0	12.0	16.0	13.0	6.0	9.0	3.0	8.0	17.0	9.0	5.0	0.0	14.0	11.0	10.0	8.0	12.0	12.0	15.0	10.0	9.0	12.0	12.0	6.0	10.0
1770	113.789	19.0	0.0	9.0	5.0	1.0	4.0	5.0	6.0	-3.0	9.0	4.0	1.0	0.0	8.0	-2.0	-1.0	6.0	9.0	3.0	10.0	-2.0	0.0	6.0	-1.0	5.0	5.0	3.0
1777	114.259	15.67	0.33	-2.67	7.33	1.33	6.33	2.33	4.33	2.33	0.33	6.33	6.33	4.33	8.33	2.33	3.33	5.33	-5.67	2.33	2.33	0.33	1.33	1.33	4.33	-4.67	1.33	11.33
1784	114.729	15.67	1.33	2.33	7.33	2.33	0.33	-1.67	-1.67	-1.67	6.33	3.33	1.33	0.33	6.33	7.33	7.33	9.33	2.33	3.33	3.33	6.33	6.33	9.33	4.33	3.33	2.33	8.33
1791	115.2	16.33	-0.33	5.67	1.67	1.67	9.67	0.67	5.67	-9.33	-2.33	2.67	-5.33	-2.33	1.67	9.67	10.67	-1.33	3.67	5.67	1.67	7.67	3.67	2.67	3.67	9.67	4.67	2.67
1798	115.671	17.67	1.33	-3.67	-0.67	4.33	-1.67	-1.67	-6.67	-7.67	-3.67	-0.67	0.33	-2.67	6.33	-0.67	-5.67	-0.67	2.33	3.33	1.33	-2.67	5.33	-1.67	4.33	-0.67	0.33	-1.67
1805	116.142	15.0	5.0	-8.0	8.0	-1.0	4.0	1.0	5.0	-1.0	-3.0	2.0	9.0	1.0	-1.0	10.0	3.0	1.0	-1.0	7.0	-1.0	6.0	2.0	6.0	5.0	2.0	7.0	8.0
1812	116.614	15.33	2.67	17.67	0.67	-0.33	-0.33	0.67	-2.33	2.67	-0.33	-0.33	3.67	4.67	2.67	-3.33	-2.33	2.67	5.67	7.67	0.67	9.67	-2.33	13.67	-1.33	6.67	7.67	4.67
1819	117.086	16.33	0.67	0.67	4.67	-5.33	-6.33	-3.33	1.67	5.67	2.67	2.67	4.67	2.67	-2.33	-0.33	-3.33	-2.33	-2.33	10.67	5.67	-10.33	-4.33	1.67	2.67	2.67	6.67	6.67
1826	117.558	15.0	8.0	-3.0	5.0	-3.0	-2.0	10.0	-2.0	0.0	0.0	13.0	-6.0	-5.0	-4.0	0.0	-1.0	3.0	3.0	-2.0	2.0	-6.0	-7.0	0.0	5.0	-4.0	-6.0	-2.0
1833	118.03	14.67	-3.67	-4.67	-2.67	6.33	-1.67	5.33	3.33	5.33	-4.67	3.33	5.33	0.33	-4.67	1.33	-0.67	-3.67	-6.67	-3.67	-0.67	4.33	0.33	9.33	6.33	6.33	3.33	-4.67
1840	118.503	12.0	0.0	1.0	7.0	3.0	3.0	0.0	10.0	-1.0	2.0	3.0	2.0	4.0	3.0	7.0	9.0	4.0	5.0	2.0	3.0	-3.0	1.0	7.0	7.0	6.0	3.0	11.0
1847	118.976	14.67	2.33	5.33	-3.67	-0.67	0.33	-5.67	-2.67	-2.67	-1.67	4.33	-3.67	0.33	5.33	2.33	2.33	2.33	-4.67	1.33	2.33	-8.67	1.33	-2.67	3.33	0.33	9.33	1.33
1854	119.45	15.33	1.67	1.67	1.67	4.67	-0.33	3.67	-4.33	-5.33	-4.33	8.67	-4.33	0.67	-5.33	5.67	-3.33	-4.33	-3.33	1.67	-0.33	6.67	2.67	-1.33	2.67	7.67	1.67	-2.33
1861	119.924	12.33	8.67	-0.33	1.67	4.67	2.67	-0.33	0.67	0.67	7.67	-3.33	-1.33	0.67	5.67	6.67	8.67	4.67	3.67	6.67	-4.33	3.67	10.67	0.67	1.67	0.67	3.67	8.67
1868	120.398	13.33	-5.33	1.67	-2.33	2.67	6.67	-2.33	1.67	-1.33	-0.33	7.67	10.67	1.67	-2.33	1.67	-1.33	-2.33	5.67	-4.33	5.67	-3.33	1.67	11.67	-5.33	1.67	0.67	-0.33
1875	120.872	12.67	2.33	6.33	-2.67	0.33	4.33	3.33	-2.67	2.33	7.33	1.33	-3.67	1.33	0.33	0.33	-2.67	6.33	8.33	-2.67	-3.67	1.33	-1.67	1.33	0.33	4.33	0.33	1.33
1882	121.347	14.0	-2.0	7.0	4.0	-8.0	-7.0	-5.0	4.0	1.0	-1.0	5.0	3.0	3.0	-2.0	3.0	-2.0	0.0	4.0	4.0	-4.0	-2.0	3.0	8.0	-7.0	-2.0	2.0	0.0
1889	121.822	10.33	-0.33	0.67	5.67	1.67	8.67	5.67	1.67	0.67	5.67	-4.33	1.67	4.67	1.67	5.67	9.67	3.67	-0.33	6.67	-0.33	4.67	12.67	9.67	3.67	3.67	0.67	3.67
1896	122.298	9.67	2.33	5.33	9.33	1.33	4.33	-0.67	5.33	7.33	9.33	6.33	10.33	8.33	7.33	7.33	1.33	-2.67	14.33	2.33	4.33	3.33	4.33	6.33	5.33	-1.67	6.33	0.33
1903	122.773	10.33	3.67	1.67	12.67	4.67	9.67	1.67	7.67	0.67	8.67	4.67	5.67	2.67	8.67	4.67	4.67	-1.33	-2.33	3.67	8.67	1.67	2.67	-3.33	8.67	-1.33	4.67	6.67
1910	123.25	9.67	7.33	8.33	10.33	2.33	4.33	9.33	4.33	-0.67	5.33	7.33	10.33	6.33	5.33	6.33	3.33	6.33	5.33	2.33	3.33	10.33	5.33	3.33	6.33	8.33	8.33	7.33
1917	123.726	9.0	10.0	4.0	3.0	3.0	6.0	5.0	0.0	5.0	4.0	8.0	4.0	3.0	11.0	2.0	4.0	6.0	3.0	11.0	6.0	10.0	1.0	7.0	7.0	-3.0	2.0	5.0
1924	124.203	12.0	-2.0	1.0	-2.0	-2.0	0.0	-6.0	9.0	-1.0	-1.0	10.0	-5.0	1.0	1.0	9.0	5.0	5.0	-8.0	3.0	1.0	1.0	0.0	7.0	4.0	5.0	4.0	-2.0
1931	124.68	9.0	2.0	1.0	0.0	1.0	2.0	0.0	5.0	-1.0	2.0	4.0	0.0	9.0	5.0	-1.0	1.0	1.0	-1.0	6.0	6.0	11.0	7.0	-4.0	0.0	7.0	4.0	6.0
1938	125.158	9.33	-4.33	10.67	-2.33	8.67	5.67	0.67	-0.33	-2.33	0.67	-3.33	10.67	8.67	2.67	2.67	2.67	-2.33	4.67	-0.33	2.67	3.67	8.67	-0.33	-0.33	1.67	1.67	3.67
1945	125.635	10.67	-3.67	-2.67	-4.67	0.33	-0.67	-5.67	-2.67	0.33	-0.67	-0.67	-3.67	1.33	4.33	5.33	5.33	-4.67	0.33	-0.67	-1.67	-0.67	4.33	0.33	1.33	1.33	-2.67	3.33
1952	126.114	7.33	8.67	8.67	-2.33	0.67	2.67	3.67	1.67	2.67	10.67	3.67	2.67	2.67	2.67	-0.33	2.67	7.67	1.67	7.67	0.67	-0.33	0.67	7.67	6.67	1.67	2.67	0.67
1959	126.592	8.33	5.67	4.67	-0.33	-1.33	2.67	2.67	4.67	5.67	-1.33	1.67	-2.33	1.67	4.67	-1.33	0.67	6.67	1.67	3.67	1.67	3.67	0.67	-0.33	1.67	5.67	3.67	-0.33
1966	127.071	9.0	2.0	2.0	6.0	6.0	-1.0	5.0	-1.0	0.0	0.0	1.0	1.0	6.0	-1.0	-2.0	5.0	-5.0	-4.0	3.0	7.0	4.0	1.0	2.0	2.0	3.0	1.0	-2.0
1973	127.55	10.33	-0.33	2.67	-3.33	0.67	-1.33	-1.33	-0.33	-0.33	1.67	3.67	-3.33	7.67	3.67	-3.33	-4.33	-3.33	-3.33	1.67	-6.33	1.67	5.67	0.67	2.67	-2.33	6.67	-1.33
1980	128.03	10.0	-4.0	-3.0	1.0	1.0	9.0	2.0	2.0	-3.0	-3.0	2.0	-6.0	-3.0	4.0	-4.0	2.0	2.0	-4.0	1.0	4.0	4.0	2.0	3.0	4.0	-7.0	6.0	3.0
1987	128.51	9.67	-0.67	4.33	5.33	2.33	-0.67	1.33	4.33	3.33	-3.67	2.33	1.33	2.33	-2.67	-1.67	-2.67	-2.67	0.33	3.33	1.33	-1.67	1.33	-4.67	-4.67	1.33	-2.67	1.33
1994	128.99	8.67	3.33	0.33	13.33	4.33	0.33	-0.67	-5.67	5.33	0.33	-1.67	1.33	8.33	5.33	0.33	0.33	6.33	4.33	-1.67	-1.67	-2.67	2.33	3.33	1.33	0.33	4.33	4.33
2001	129.471	9.0	0.0	-2.0	7.0	-1.0	-1.0	2.0	-1.0	4.0	-2.0	6.0	-2.0	4.0	-5.0	-1.0	5.0	5.0	4.0	-1.0	-2.0	0.0	-1.0	-3.0	4.0	1.0	2.0	-2.0
2008	129.952	9.0	2.0	0.0	9.0	3.0	-2.0	6.0	-2.0	2.0	4.0	-1.0	1.0	3.0	0.0	-3.0	-1.0	-5.0	4.0	-2.0	-3.0	-3.0	1.0	1.0	-4.0	6.0	7.0	-4.0
2015	130.433	8.33	0.67	1.67	0.67	-2.33	2.67	-2.33	0.67	6.67	0.67	0.67	-2.33	-1.33	0.67	-4.33	1.67	0.67	1.67	3.67	-5.33	1.67	-1.33	-1.33	1.67	6.67	1.67	-0.33
2022	130.915	7.33	1.67	3.67	0.67	2.67	0.67	5.67	7.67	-0.33	3.67	1.67	-3.33	-1.33	0.67	-2.33	-2.33	4.67	-1.33	-1.33	-1.33	4.67	1.67	-2.33	4.67	6.67	-0.33	-0.33
2029	131.397	10.67	-2.67	-0.67	-3.67	-3.67	-0.67	-3.67	6.33	-4.67	-1.67	-2.67	-2.67	10.33	0.33	1.33	0.33	-3.67	-1.67	-1.67	-3.67	-4.67	0.33	-0.67	0.33	0.33	-2.67	-2.67
2036	131.879	6.67	-0.67	-0.67	3.33	3.33	3.33	2.33	0.33	4.33	4.33	7.33	2.33	3.33	1.33	2.33	0.33	1.33	4.33	-1.67	1.33	1.33	7.33	2.33	5.33	0.33	6.33	6.33
2043	132.362	6.0	0.0	1.0	1.0	7.0	-2.0	0.0	3.0	2.0	3.0	6.0	0.0	3.0	1.0	6.0	7.0	3.0	-1.0	2.0	-4.0	2.0	4.0	-1.0	3.0	0.0	-2.0	2.0
2047	132.638	6.33	1.67	1.67	4.67	5.67	3.67	-2.33	-1.33	2.67	2.67	1.67	0.67	5.67	-2.33	-1.33	4.67	5.67	-2.33	3.67	-0.33	1.67	4.67	-1.33	3.67	0.67	-0.33	8.67