File: EDX Back Ups and Old Files/EDX Processed Data/High pH SF 60C 6d.txt
Name: High pH SF 60C 6d
Number of Scans: 29
Positions: [-13.0, -12.75, -12.5, -12.25, -12.0, -11.75, -11.5, -11.25, -11.0, -10.75, -10.5, -10.25, -10.0, -9.75, -9.5, -9.25, -9.0, -8.75, -8.5, -8.25, -8.0, -7.75, -7.5, -7.25, -7.0, -6.75, -6.5, -6.25, -6.0]
Points per Scan: 2048
Sample Edge: 3
Scans Off Sample: [0, 1, 2]
Conversion Features: [(275, 17444.3), (309, 19608.3), (913, 57981.7), (934, 59318.24), (1058, 67244.3)]
Degree of Fit: 3
Fit Coeffecients: [ 8.59183e-07 -0.001482  64.3003 -144.207]
pH: High
Steel Fiber: True
Aging Temp.: 60
Aging Atm.: 100% CO2
Aging Humidity: None
Aging Time: 6

*********
#Bins	Energy [keV]	Avg. Background	-12.25	-12.0	-11.75	-11.5	-11.25	-11.0	-10.75	-10.5	-10.25	-10.0	-9.75	-9.5	-9.25	-9.0	-8.75	-8.5	-8.25	-8.0	-7.75	-7.5	-7.25	-7.0	-6.75	-6.5	-6.25	-6.0
6	0.242	1809.67	58.33	63.33	-36.67	-47.67	60.33	-9.67	-11.67	-91.67	-10.67	-18.67	46.33	17.33	51.33	-4.67	-84.67	-31.67	-92.67	54.33	26.33	52.33	18.33	-49.67	-17.67	43.33	-36.67	-118.67
13	0.691	1260.0	51.0	-45.0	-47.0	-90.0	-122.0	-54.0	-38.0	-59.0	-71.0	-88.0	-44.0	-41.0	-54.0	-55.0	-32.0	-16.0	-5.0	-4.0	23.0	-96.0	-78.0	-77.0	31.0	-1.0	-40.0	-13.0
20	1.141	308.67	16.33	13.33	15.33	-13.67	-7.67	-43.67	-4.67	23.33	17.33	0.33	-41.67	32.33	3.33	33.33	-7.67	-20.67	-16.67	-33.67	16.33	-9.67	-5.67	4.33	13.33	-9.67	-29.67	2.33
27	1.591	41.0	15.0	6.0	5.0	14.0	-2.0	15.0	14.0	14.0	6.0	-1.0	7.0	7.0	15.0	2.0	13.0	13.0	8.0	17.0	11.0	0.0	6.0	2.0	24.0	27.0	7.0	-3.0
34	2.04	7.67	-3.67	0.33	-3.67	-3.67	-6.67	-3.67	0.33	-5.67	-4.67	-2.67	5.33	-4.67	2.33	-0.67	0.33	-4.67	-1.67	-4.67	-4.67	-2.67	-1.67	-1.67	-4.67	-3.67	4.33	5.33
41	2.49	0.33	0.67	1.67	2.67	1.67	-0.33	0.67	1.67	0.67	2.67	-0.33	-0.33	-0.33	1.67	1.67	0.67	0.67	-0.33	-0.33	2.67	0.67	-0.33	0.67	0.67	0.67	-0.33	1.67
48	2.939	0.33	-0.33	-0.33	-0.33	-0.33	-0.33	0.67	1.67	-0.33	-0.33	-0.33	2.67	-0.33	0.67	0.67	-0.33	-0.33	-0.33	0.67	-0.33	-0.33	0.67	-0.33	-0.33	-0.33	-0.33	-0.33
55	3.388	0.0	0.0	0.0	0.0	0.0	1.0	0.0	1.0	0.0	0.0	0.0	0.0	0.0	0.0	0.0	1.0	1.0	0.0	2.0	0.0	0.0	0.0	0.0	0.0	3.0	0.0	0.0
62	3.837	0.67	-0.67	-0.67	-0.67	0.33	-0.67	0.33	-0.67	-0.67	-0.67	0.33	-0.67	-0.67	0.33	-0.67	1.33	-0.67	-0.67	0.33	-0.67	0.33	-0.67	-0.67	-0.67	-0.67	-0.67	-0.67
69	4.286	0.67	-0.67	-0.67	2.33	-0.67	0.33	-0.67	-0.67	-0.67	0.33	0.33	-0.67	0.33	-0.67	-0.67	-0.67	-0.67	1.33	-0.67	0.33	-0.67	3.33	-0.67	-0.67	-0.67	-0.67	-0.67
76	4.734	0.33	-0.33	1.67	-0.33	-0.33	-0.33	0.67	-0.33	-0.33	0.67	1.67	-0.33	-0.33	2.67	-0.33	-0.33	0.67	1.67	-0.33	-0.33	-0.33	-0.33	-0.33	-0.33	-0.33	-0.33	-0.33
83	5.183	0.67	-0.67	-0.67	-0.67	-0.67	1.33	0.33	-0.67	-0.67	-0.67	0.33	-0.67	1.33	0.33	1.33	-0.67	0.33	0.33	-0.67	-0.67	0.33	-0.67	0.33	0.33	-0.67	0.33	-0.67
90	5.631	0.33	-0.33	0.67	-0.33	-0.33	0.67	0.67	-0.33	0.67	-0.33	-0.33	-0.33	0.67	-0.33	1.67	-0.33	0.67	0.67	-0.33	-0.33	-0.33	1.67	-0.33	1.67	-0.33	-0.33	-0.33
97	6.08	1.0	-1.0	0.0	-1.0	-1.0	-1.0	-1.0	0.0	0.0	-1.0	0.0	-1.0	0.0	0.0	1.0	0.0	-1.0	0.0	-1.0	2.0	0.0	3.0	1.0	1.0	-1.0	-1.0	2.0
104	6.528	1.33	-0.33	-1.33	-1.33	-0.33	-1.33	2.67	-0.33	-0.33	-0.33	-0.33	0.67	0.67	2.67	1.67	-0.33	1.67	0.67	3.67	0.67	-0.33	2.67	-0.33	-0.33	1.67	-1.33	1.67
111	6.976	2.33	-1.33	-0.33	-0.33	-1.33	0.67	-0.33	-2.33	-1.33	-1.33	1.67	1.67	2.67	0.67	0.67	-0.33	-1.33	-2.33	2.67	-2.33	-1.33	0.67	2.67	0.67	1.67	-0.33	0.67
118	7.424	1.67	2.33	2.33	1.33	1.33	2.33	0.33	0.33	3.33	3.33	-0.67	5.33	3.33	1.33	3.33	1.33	4.33	-1.67	1.33	0.33	2.33	0.33	4.33	2.33	-0.67	0.33	4.33
125	7.872	6.33	-6.33	-4.33	-3.33	1.67	-1.33	-0.33	2.67	-5.33	-1.33	-2.33	-0.33	-0.33	-0.33	-2.33	-2.33	-0.33	-4.33	1.67	-1.33	1.67	-3.33	-2.33	-0.33	1.67	-4.33	-1.33
132	8.32	5.0	0.0	0.0	4.0	3.0	-2.0	6.0	2.0	0.0	2.0	0.0	3.0	1.0	0.0	-2.0	2.0	1.0	4.0	1.0	1.0	1.0	5.0	2.0	8.0	1.0	0.0	3.0
139	8.767	8.67	-0.67	-0.67	-3.67	0.33	-0.67	-1.67	-3.67	0.33	2.33	1.33	-0.67	-0.67	-2.67	-4.67	2.33	1.33	2.33	0.33	3.33	-3.67	1.33	0.33	-1.67	-0.67	0.33	1.33
146	9.215	9.33	-4.33	0.67	-2.33	-0.33	-1.33	0.67	-3.33	1.67	1.67	3.67	-1.33	0.67	-1.33	1.67	2.67	-1.33	-1.33	7.67	-2.33	2.67	3.67	-4.33	1.67	-3.33	-3.33	-3.33
153	9.662	9.0	1.0	-1.0	7.0	-2.0	5.0	0.0	5.0	1.0	8.0	5.0	1.0	2.0	6.0	4.0	4.0	1.0	-2.0	1.0	3.0	4.0	-2.0	3.0	10.0	2.0	2.0	2.0
160	10.109	9.0	1.0	1.0	1.0	3.0	1.0	2.0	-1.0	2.0	5.0	14.0	-1.0	1.0	3.0	-2.0	2.0	-4.0	2.0	-1.0	-2.0	-2.0	13.0	4.0	4.0	2.0	1.0	2.0
167	10.557	12.0	0.0	-4.0	-5.0	-6.0	-1.0	0.0	-2.0	-5.0	-6.0	1.0	-1.0	-2.0	3.0	3.0	1.0	-2.0	2.0	5.0	-3.0	-3.0	-4.0	-5.0	1.0	-1.0	0.0	3.0
174	11.004	10.67	-2.67	-1.67	-1.67	-0.67	7.33	-3.67	1.33	0.33	1.33	3.33	0.33	-4.67	4.33	10.33	-3.67	6.33	2.33	1.33	-2.67	4.33	2.33	6.33	0.33	2.33	0.33	-6.67
181	11.451	9.33	2.67	9.67	-1.33	7.67	2.67	0.67	-4.33	0.67	-0.33	-2.33	5.67	1.67	5.67	2.67	3.67	0.67	-3.33	2.67	1.67	4.67	3.67	3.67	3.67	6.67	2.67	5.67
188	11.898	11.67	-4.67	2.33	0.33	-1.67	5.33	3.33	0.33	8.33	-5.67	-2.67	3.33	4.33	-0.67	5.33	-1.67	2.33	1.33	2.33	-3.67	2.33	4.33	0.33	2.33	3.33	-3.67	-6.67
195	12.344	9.67	1.33	3.33	2.33	1.33	4.33	-0.67	2.33	3.33	-1.67	2.33	1.33	3.33	0.33	-3.67	4.33	5.33	6.33	3.33	1.33	2.33	7.33	3.33	5.33	0.33	1.33	1.33
202	12.791	12.67	1.33	0.33	-2.67	-2.67	-1.67	-0.67	4.33	1.33	-0.67	-2.67	-5.67	-8.67	-3.67	0.33	-3.67	-3.67	-0.67	-5.67	-0.67	-5.67	9.33	-2.67	4.33	-0.67	1.33	-6.67
209	13.238	8.67	8.33	1.33	3.33	5.33	4.33	-0.67	2.33	-0.67	9.33	5.33	6.33	-4.67	-3.67	4.33	1.33	0.33	-0.67	2.33	1.33	-0.67	-0.67	-0.67	3.33	3.33	3.33	3.33
216	13.684	9.0	3.0	0.0	9.0	-3.0	9.0	-2.0	-1.0	10.0	5.0	-5.0	2.0	-1.0	3.0	-2.0	5.0	3.0	2.0	1.0	3.0	10.0	7.0	7.0	-3.0	0.0	1.0	11.0
223	14.131	11.33	-1.33	-2.33	5.67	2.67	-2.33	-0.33	5.67	-3.33	0.67	-1.33	2.67	0.67	-6.33	-1.33	5.67	1.67	-0.33	-4.33	-1.33	0.67	6.67	3.67	0.67	3.67	7.67	0.67
230	14.577	9.67	1.33	0.33	8.33	6.33	-0.67	-0.67	3.33	3.33	-2.67	-1.67	10.33	-3.67	2.33	1.33	2.33	2.33	7.33	4.33	8.33	6.33	-0.67	2.33	0.33	2.33	2.33	8.33
237	15.023	8.33	1.67	3.67	8.67	7.67	-1.33	5.67	6.67	7.67	1.67	3.67	2.67	3.67	1.67	-0.33	3.67	2.67	1.67	4.67	3.67	4.67	5.67	5.67	1.67	-0.33	4.67	3.67
244	15.469	10.67	-0.67	-3.67	1.33	0.33	-0.67	-2.67	-0.67	3.33	-0.67	7.33	-2.67	-2.67	0.33	8.33	3.33	2.33	-1.67	-2.67	-6.67	7.33	2.33	-2.67	1.33	0.33	3.33	-3.67
251	15.915	6.67	4.33	11.33	0.33	6.33	9.33	1.33	10.33	2.33	4.33	5.33	3.33	8.33	5.33	2.33	8.33	1.33	-0.67	6.33	12.33	8.33	9.33	2.33	2.33	9.33	4.33	3.33
258	16.361	12.33	2.67	-5.33	0.67	2.67	-6.33	-2.33	-4.33	0.67	-2.33	-2.33	1.67	0.67	-3.33	-1.33	-4.33	0.67	3.67	-4.33	0.67	4.67	-6.33	-0.33	-1.33	2.67	-1.33	-0.33
265	16.807	10.67	-5.67	-1.67	-3.67	-1.67	-2.67	3.33	9.33	3.33	3.33	-3.67	0.33	-1.67	-2.67	-0.67	3.33	4.33	-0.67	1.33	0.33	-0.67	-1.67	3.33	0.33	0.33	5.33	2.33
272	17.253	7.67	3.33	2.33	3.33	2.33	5.33	2.33	1.33	4.33	2.33	1.33	1.33	9.33	-0.67	-0.67	7.33	3.33	4.33	8.33	0.33	1.33	1.33	5.33	-1.67	13.33	6.33	8.33
279	17.699	11.0	-7.0	3.0	-3.0	2.0	6.0	3.0	-4.0	4.0	5.0	-1.0	2.0	1.0	1.0	1.0	-2.0	3.0	2.0	5.0	0.0	-1.0	3.0	1.0	-1.0	4.0	-3.0	5.0
286	18.145	9.33	-3.33	-2.33	1.67	0.67	3.67	-1.33	7.67	1.67	4.67	0.67	3.67	4.67	6.67	2.67	6.67	-3.33	0.67	1.67	-1.33	11.67	5.67	-2.33	4.67	2.67	3.67	-5.33
293	18.59	8.33	1.67	1.67	-4.33	6.67	4.67	2.67	1.67	0.67	3.67	-0.33	3.67	-0.33	11.67	0.67	8.67	3.67	4.67	4.67	8.67	3.67	6.67	10.67	7.67	1.67	6.67	0.67
300	19.036	10.33	-4.33	2.67	-2.33	0.67	3.67	6.67	-1.33	1.67	7.67	-0.33	6.67	0.67	0.67	-2.33	1.67	1.67	0.67	-2.33	4.67	-2.33	-2.33	2.67	2.67	1.67	8.67	-0.33
307	19.481	10.0	-3.0	4.0	10.0	1.0	-3.0	3.0	-1.0	0.0	-3.0	9.0	5.0	8.0	1.0	-3.0	-1.0	-3.0	1.0	3.0	2.0	4.0	0.0	0.0	7.0	2.0	4.0	1.0
314	19.927	8.67	0.33	1.33	-3.67	9.33	-2.67	7.33	-2.67	0.33	3.33	2.33	3.33	3.33	10.33	-2.67	-1.67	3.33	2.33	2.33	2.33	6.33	1.33	8.33	0.33	-2.67	10.33	2.33
321	20.372	11.33	-0.33	-1.33	2.67	-0.33	0.67	-1.33	-0.33	-2.33	-0.33	-2.33	2.67	3.67	3.67	-2.33	2.67	-0.33	-6.33	1.67	-2.33	2.67	2.67	5.67	-0.33	1.67	1.67	-0.33
328	20.817	10.67	2.33	-0.67	-2.67	0.33	-5.67	-1.67	0.33	1.33	1.33	-0.67	2.33	-1.67	6.33	2.33	-2.67	-2.67	2.33	-1.67	-1.67	2.33	2.33	2.33	-1.67	2.33	1.33	3.33
335	21.262	10.0	9.0	0.0	-4.0	2.0	-3.0	2.0	2.0	0.0	2.0	4.0	-5.0	1.0	0.0	-3.0	5.0	-1.0	0.0	5.0	0.0	0.0	1.0	3.0	-2.0	-2.0	4.0	3.0
342	21.708	8.0	-4.0	0.0	-5.0	-1.0	2.0	2.0	8.0	-1.0	8.0	-2.0	8.0	8.0	7.0	6.0	3.0	-1.0	2.0	0.0	0.0	0.0	1.0	-4.0	3.0	3.0	5.0	1.0
349	22.153	6.0	3.0	2.0	2.0	4.0	3.0	9.0	9.0	9.0	4.0	5.0	1.0	5.0	0.0	5.0	4.0	6.0	6.0	3.0	-2.0	6.0	3.0	7.0	3.0	2.0	5.0	3.0
356	22.598	7.67	-3.67	5.33	4.33	-1.67	2.33	3.33	1.33	2.33	3.33	0.33	3.33	8.33	3.33	2.33	5.33	6.33	-0.67	3.33	-1.67	-1.67	1.33	10.33	-6.67	-1.67	-0.67	6.33
363	23.043	7.0	0.0	4.0	6.0	3.0	3.0	0.0	2.0	-2.0	4.0	-1.0	4.0	4.0	3.0	1.0	4.0	2.0	1.0	2.0	7.0	9.0	3.0	6.0	4.0	5.0	0.0	3.0
370	23.488	8.0	5.0	0.0	0.0	6.0	3.0	-3.0	3.0	2.0	5.0	-1.0	2.0	3.0	8.0	4.0	8.0	2.0	0.0	1.0	0.0	-2.0	-2.0	-3.0	3.0	4.0	2.0	3.0
377	23.932	7.0	0.0	3.0	-5.0	10.0	4.0	4.0	2.0	1.0	2.0	0.0	1.0	5.0	4.0	11.0	3.0	2.0	6.0	6.0	3.0	9.0	5.0	4.0	8.0	2.0	0.0	1.0
384	24.377	7.0	0.0	5.0	6.0	6.0	-3.0	4.0	3.0	11.0	-4.0	8.0	9.0	4.0	1.0	4.0	10.0	3.0	2.0	3.0	6.0	3.0	4.0	5.0	4.0	2.0	0.0	-2.0
391	24.822	8.67	-4.67	-3.67	3.33	-2.67	-3.67	2.33	-5.67	3.33	4.33	6.33	1.33	-1.67	-3.67	2.33	0.33	-0.67	-2.67	-3.67	0.33	-3.67	7.33	1.33	5.33	2.33	-1.67	1.33
398	25.267	9.0	-1.0	1.0	1.0	-1.0	-1.0	-3.0	-1.0	4.0	-3.0	-2.0	-1.0	3.0	0.0	-2.0	0.0	4.0	1.0	5.0	-2.0	14.0	2.0	3.0	-1.0	0.0	3.0	-2.0
405	25.711	7.67	-0.67	-2.67	0.33	-2.67	1.33	6.33	2.33	0.33	1.33	3.33	-0.67	-2.67	0.33	-2.67	-2.67	3.33	-2.67	1.33	3.33	2.33	3.33	10.33	0.33	2.33	4.33	4.33
412	26.156	6.0	1.0	1.0	6.0	5.0	2.0	-2.0	0.0	-1.0	4.0	1.0	0.0	6.0	3.0	1.0	0.0	1.0	6.0	4.0	4.0	2.0	2.0	5.0	-1.0	-1.0	0.0	6.0
419	26.601	7.67	4.33	-2.67	-3.67	-7.67	0.33	0.33	0.33	3.33	1.33	5.33	0.33	2.33	3.33	2.33	2.33	4.33	2.33	3.33	3.33	-1.67	-0.67	-2.67	1.33	4.33	-2.67	-0.67
426	27.045	7.0	1.0	4.0	1.0	2.0	1.0	3.0	2.0	3.0	5.0	1.0	-3.0	6.0	-1.0	5.0	4.0	5.0	1.0	4.0	7.0	-1.0	-3.0	-4.0	-3.0	5.0	2.0	4.0
433	27.49	10.0	-6.0	2.0	-2.0	-6.0	-3.0	-7.0	5.0	-1.0	-5.0	3.0	-2.0	-1.0	-3.0	0.0	-4.0	-2.0	2.0	-6.0	-3.0	4.0	-6.0	0.0	-1.0	3.0	0.0	3.0
440	27.934	7.33	-1.33	4.67	-3.33	4.67	-4.33	0.67	-2.33	-4.33	7.67	0.67	5.67	-1.33	3.67	3.67	-3.33	0.67	0.67	0.67	-3.33	1.67	2.67	1.67	-3.33	0.67	-4.33	0.67
447	28.379	6.0	3.0	0.0	1.0	1.0	4.0	2.0	5.0	-1.0	-5.0	1.0	5.0	3.0	1.0	-2.0	-4.0	-1.0	1.0	1.0	3.0	-2.0	1.0	6.0	4.0	6.0	5.0	1.0
454	28.823	4.67	3.33	3.33	2.33	4.33	2.33	2.33	7.33	-1.67	2.33	4.33	1.33	0.33	7.33	1.33	6.33	0.33	6.33	5.33	3.33	0.33	5.33	2.33	9.33	2.33	4.33	3.33
461	29.267	7.33	-1.33	1.67	-0.33	-1.33	-2.33	-0.33	6.67	0.67	-3.33	1.67	0.67	0.67	-0.33	-2.33	0.67	2.67	-3.33	2.67	2.67	2.67	1.67	-0.33	-3.33	-0.33	4.67	4.67
468	29.712	4.0	8.0	8.0	2.0	7.0	6.0	11.0	3.0	3.0	5.0	4.0	8.0	2.0	5.0	2.0	2.0	4.0	3.0	8.0	6.0	3.0	6.0	5.0	6.0	1.0	1.0	6.0
475	30.156	6.33	-1.33	-2.33	-1.33	4.67	-2.33	-3.33	-0.33	-2.33	3.67	3.67	2.67	-2.33	-3.33	-0.33	1.67	-4.33	-0.33	1.67	0.67	2.67	-2.33	-2.33	-1.33	3.67	2.67	1.67
482	30.6	7.33	-1.33	3.67	1.67	0.67	-2.33	-4.33	2.67	0.67	1.67	3.67	-5.33	-1.33	1.67	0.67	-4.33	-2.33	2.67	0.67	4.67	-2.33	-0.33	-0.33	0.67	-0.33	0.67	9.67
489	31.045	4.67	2.33	1.33	-0.67	1.33	-1.67	1.33	8.33	0.33	-0.67	2.33	0.33	3.33	4.33	0.33	10.33	8.33	-1.67	2.33	3.33	7.33	5.33	4.33	2.33	2.33	3.33	4.33
496	31.489	4.33	0.67	-0.33	4.67	1.67	3.67	1.67	2.67	0.67	-1.33	0.67	5.67	-0.33	4.67	6.67	7.67	2.67	0.67	13.67	3.67	3.67	0.67	1.67	0.67	3.67	0.67	0.67
503	31.933	5.0	0.0	0.0	6.0	3.0	1.0	5.0	5.0	1.0	-1.0	2.0	5.0	1.0	-3.0	1.0	1.0	-3.0	1.0	2.0	7.0	2.0	4.0	-1.0	3.0	5.0	4.0	5.0
510	32.377	7.33	0.67	-3.33	-1.33	0.67	0.67	-3.33	-1.33	-0.33	-0.33	-2.33	-5.33	1.67	1.67	1.67	3.67	-2.33	2.67	-0.33	-1.33	-2.33	-1.33	2.67	8.67	-3.33	4.67	-4.33
517	32.822	5.33	-0.33	-0.33	6.67	2.67	-1.33	3.67	-0.33	2.67	0.67	2.67	-0.33	-1.33	5.67	1.67	-0.33	0.67	1.67	3.67	0.67	-0.33	0.67	4.67	-1.33	1.67	3.67	1.67
524	33.266	4.33	2.67	-0.33	-0.33	-1.33	0.67	3.67	0.67	1.67	0.67	3.67	1.67	3.67	1.67	-0.33	-0.33	-1.33	0.67	5.67	2.67	3.67	-3.33	0.67	1.67	2.67	2.67	-1.33
531	33.71	2.67	2.33	1.33	2.33	4.33	7.33	2.33	0.33	2.33	4.33	2.33	2.33	2.33	0.33	1.33	6.33	3.33	1.33	2.33	2.33	9.33	8.33	1.33	2.33	6.33	2.33	6.33
538	34.154	5.67	1.33	-4.67	-3.67	1.33	-4.67	4.33	-1.67	1.33	3.33	-3.67	-1.67	0.33	4.33	0.33	4.33	-0.67	-3.67	-0.67	3.33	2.33	0.33	1.33	-0.67	4.33	5.33	3.33
545	34.598	3.67	4.33	1.33	2.33	3.33	5.33	-1.67	4.33	-0.67	1.33	3.33	2.33	2.33	3.33	3.33	6.33	2.33	0.33	3.33	-1.67	2.33	0.33	2.33	5.33	2.33	1.33	7.33
552	35.043	6.33	0.67	-1.33	0.67	2.67	1.67	-0.33	-0.33	2.67	0.67	-1.33	0.67	-2.33	-1.33	-3.33	0.67	4.67	0.67	-1.33	-0.33	-0.33	-2.33	-0.33	-2.33	5.67	-1.33	-0.33
559	35.487	8.33	-3.33	-1.33	-6.33	-4.33	-1.33	-3.33	-5.33	-0.33	0.67	-3.33	-3.33	-3.33	-3.33	-2.33	-5.33	-5.33	-0.33	-1.33	-2.33	-3.33	-2.33	-2.33	1.67	1.67	-0.33	0.67
566	35.931	7.0	2.0	-2.0	-1.0	-2.0	-3.0	-1.0	-2.0	1.0	2.0	1.0	-2.0	-1.0	2.0	-1.0	3.0	-4.0	0.0	-4.0	0.0	0.0	-1.0	-2.0	-1.0	-2.0	-1.0	-1.0
573	36.375	6.33	-2.33	-2.33	-0.33	-0.33	1.67	-0.33	4.67	1.67	0.67	-2.33	-1.33	4.67	-1.33	1.67	-2.33	-3.33	-4.33	1.67	0.67	0.67	-0.33	1.67	8.67	4.67	-4.33	-1.33
580	36.819	5.0	-1.0	2.0	-1.0	1.0	-1.0	-1.0	-2.0	0.0	0.0	-1.0	0.0	3.0	-2.0	-1.0	3.0	-1.0	0.0	6.0	0.0	-1.0	7.0	0.0	2.0	0.0	-2.0	0.0
587	37.263	9.67	-4.67	-7.67	-5.67	-5.67	-5.67	-1.67	-1.67	-5.67	-6.67	-3.67	-2.67	-7.67	-4.67	-1.67	-3.67	-3.67	4.33	-6.67	-6.67	-1.67	-3.67	-7.67	-3.67	-1.67	-4.67	-3.67
594	37.707	5.0	3.0	-2.0	-4.0	-2.0	3.0	0.0	0.0	2.0	2.0	0.0	2.0	-2.0	1.0	-2.0	5.0	4.0	-3.0	-3.0	3.0	0.0	-1.0	0.0	-1.0	0.0	1.0	-2.0
601	38.152	5.67	-2.67	-0.67	2.33	2.33	-0.67	0.33	-2.67	1.33	2.33	-0.67	-2.67	0.33	4.33	0.33	-1.67	-0.67	-0.67	-2.67	3.33	0.33	-3.67	-0.67	2.33	-0.67	-3.67	-1.67
608	38.596	4.67	5.33	-1.67	1.33	-1.67	3.33	7.33	1.33	1.33	0.33	-2.67	0.33	-1.67	-4.67	-3.67	0.33	0.33	2.33	2.33	0.33	-2.67	5.33	2.33	2.33	2.33	-0.67	0.33
615	39.04	6.0	-4.0	3.0	-2.0	-2.0	-3.0	-2.0	-1.0	0.0	-4.0	-2.0	2.0	-2.0	0.0	-4.0	2.0	-2.0	-2.0	-1.0	-2.0	0.0	9.0	3.0	2.0	-3.0	-5.0	1.0
622	39.484	7.33	-1.33	-5.33	-3.33	-2.33	-1.33	0.67	-1.33	-2.33	3.67	-2.33	-2.33	-4.33	-0.33	-1.33	-2.33	-2.33	-1.33	-3.33	0.67	-4.33	-1.33	-2.33	-5.33	-1.33	-0.33	3.67
629	39.928	4.33	-1.33	0.67	2.67	0.67	-1.33	-1.33	0.67	2.67	0.67	4.67	2.67	-2.33	-1.33	-0.33	3.67	0.67	2.67	4.67	1.67	3.67	-3.33	0.67	0.67	0.67	6.67	-0.33
636	40.372	9.0	-6.0	-3.0	-2.0	-3.0	-5.0	-4.0	0.0	-4.0	-4.0	-5.0	3.0	-5.0	-5.0	-4.0	-3.0	-5.0	-5.0	-7.0	-2.0	-1.0	-2.0	-1.0	-4.0	-6.0	1.0	-1.0
643	40.817	7.67	-6.67	-1.67	-5.67	-1.67	0.33	-4.67	-6.67	-1.67	-1.67	-2.67	-1.67	-2.67	-0.67	-4.67	1.33	-0.67	2.33	-3.67	-2.67	0.33	-4.67	-0.67	-0.67	-4.67	0.33	-3.67
650	41.261	7.0	-1.0	-1.0	3.0	-1.0	-4.0	0.0	0.0	-3.0	3.0	0.0	3.0	-2.0	-4.0	0.0	-3.0	-1.0	1.0	1.0	0.0	-4.0	2.0	-1.0	-5.0	-2.0	-1.0	4.0
657	41.705	9.33	-4.33	-3.33	-3.33	-5.33	-5.33	-1.33	-3.33	-6.33	-1.33	-5.33	3.67	-4.33	-5.33	-6.33	-4.33	-5.33	-0.33	-6.33	-0.33	-4.33	-2.33	-0.33	-1.33	-4.33	-4.33	-4.33
664	42.149	7.0	-2.0	-5.0	0.0	0.0	-5.0	-1.0	-1.0	-2.0	-2.0	-5.0	2.0	-2.0	-3.0	-2.0	-1.0	-1.0	-1.0	2.0	-3.0	2.0	1.0	0.0	0.0	-2.0	-2.0	-2.0
671	42.594	8.0	-3.0	-3.0	-3.0	-3.0	-3.0	0.0	-3.0	-4.0	-5.0	-4.0	0.0	-4.0	-2.0	-1.0	-3.0	-3.0	1.0	0.0	2.0	0.0	-2.0	-5.0	-4.0	-4.0	-2.0	2.0
678	43.038	8.67	2.33	-3.67	-5.67	0.33	-4.67	-3.67	-2.67	-6.67	-3.67	-2.67	-2.67	-1.67	-5.67	-3.67	-4.67	-1.67	-3.67	-4.67	-2.67	-0.67	-2.67	2.33	0.33	-2.67	2.33	-0.67
685	43.482	10.67	-5.67	-4.67	-7.67	-1.67	-6.67	-1.67	-5.67	-6.67	-5.67	-5.67	-3.67	-2.67	-4.67	-2.67	-5.67	-3.67	-6.67	-2.67	-7.67	-6.67	-5.67	-7.67	-5.67	-4.67	-2.67	-3.67
692	43.927	11.67	-5.67	-2.67	-8.67	-4.67	-6.67	-7.67	-4.67	-4.67	-3.67	-3.67	-4.67	-6.67	-7.67	-6.67	1.33	-4.67	-4.67	-5.67	-2.67	-1.67	-5.67	-6.67	-6.67	-4.67	-5.67	-6.67
699	44.371	11.33	-5.33	-0.33	-7.33	-4.33	-0.33	-4.33	-2.33	-7.33	-5.33	-1.33	-4.33	-5.33	-6.33	-1.33	-7.33	-8.33	-3.33	-3.33	-7.33	-3.33	-3.33	-3.33	-5.33	-5.33	0.67	-5.33
706	44.815	9.0	-2.0	-1.0	0.0	-4.0	-5.0	-2.0	-1.0	-3.0	-1.0	1.0	1.0	-6.0	-6.0	0.0	-4.0	-1.0	-1.0	-3.0	0.0	-5.0	1.0	-3.0	-3.0	-3.0	0.0	0.0
713	45.26	9.0	-3.0	-4.0	-4.0	-5.0	2.0	-7.0	1.0	-5.0	2.0	-6.0	0.0	-2.0	2.0	-4.0	-3.0	0.0	-7.0	-3.0	-1.0	-5.0	-3.0	-5.0	1.0	2.0	-3.0	0.0
720	45.704	15.0	-8.0	-7.0	-6.0	-11.0	-13.0	-11.0	-8.0	-14.0	-10.0	-5.0	-11.0	-5.0	-5.0	-8.0	-9.0	-4.0	-9.0	-5.0	-6.0	-6.0	-2.0	-7.0	-6.0	-12.0	-8.0	-13.0
727	46.149	8.67	5.33	-2.67	-2.67	-2.67	0.33	-4.67	4.33	-3.67	-2.67	-0.67	-3.67	-2.67	-0.67	-2.67	0.33	0.33	-1.67	-0.67	-1.67	-3.67	0.33	-1.67	-4.67	3.33	-0.67	-1.67
734	46.594	12.0	-7.0	0.0	-5.0	2.0	-2.0	-5.0	0.0	-8.0	-5.0	-4.0	-5.0	-4.0	-5.0	-7.0	-4.0	-5.0	-3.0	-3.0	-7.0	-3.0	-3.0	-4.0	-4.0	-9.0	-3.0	-10.0
741	47.038	11.0	-1.0	-4.0	-5.0	-5.0	-6.0	0.0	-7.0	2.0	0.0	-2.0	0.0	-3.0	-3.0	-2.0	-1.0	-1.0	-6.0	-4.0	-6.0	-5.0	-2.0	-5.0	-2.0	2.0	-5.0	-6.0
748	47.483	14.33	-3.33	-8.33	-7.33	-5.33	-9.33	-3.33	-5.33	-4.33	-11.33	-3.33	-6.33	-10.33	-12.33	-8.33	-7.33	-2.33	-9.33	-7.33	-6.33	-6.33	-7.33	-8.33	-7.33	-7.33	-4.33	-5.33
755	47.928	14.0	-7.0	-7.0	-8.0	-9.0	-2.0	-7.0	-7.0	-8.0	-6.0	-3.0	-5.0	-9.0	-11.0	-3.0	-7.0	-5.0	-5.0	-8.0	-6.0	-8.0	-4.0	1.0	-2.0	-9.0	-2.0	-2.0
762	48.372	10.67	5.33	-0.67	3.33	0.33	-2.67	0.33	-5.67	-3.67	-0.67	-3.67	-5.67	-0.67	-3.67	-0.67	-3.67	-1.67	-1.67	-3.67	0.33	-1.67	0.33	-5.67	-4.67	-2.67	-1.67	-0.67
769	48.817	11.33	0.67	6.67	-3.33	-0.33	-5.33	-3.33	-3.33	-3.33	-1.33	-2.33	-3.33	-0.33	-6.33	-1.33	1.67	-2.33	-6.33	-4.33	-6.33	-2.33	-6.33	-2.33	-1.33	-5.33	-0.33	-5.33
776	49.262	11.0	2.0	-5.0	0.0	-3.0	-1.0	5.0	-5.0	-2.0	-4.0	-3.0	-1.0	-4.0	-3.0	-3.0	-6.0	1.0	-4.0	-1.0	-1.0	-3.0	0.0	-3.0	-3.0	-3.0	3.0	-5.0
783	49.707	12.33	3.67	-4.33	-6.33	-1.33	-9.33	1.67	-1.33	-1.33	-5.33	-4.33	-4.33	-0.33	-5.33	-4.33	-5.33	-8.33	-3.33	-4.33	-0.33	-4.33	-5.33	-1.33	2.67	-4.33	-5.33	-2.33
790	50.152	12.0	5.0	-7.0	3.0	-6.0	-2.0	-5.0	-3.0	-2.0	-3.0	-1.0	-5.0	-1.0	5.0	3.0	-3.0	-4.0	0.0	-5.0	-2.0	1.0	4.0	1.0	-7.0	4.0	-4.0	0.0
797	50.597	14.33	-3.33	-3.33	-4.33	-4.33	-7.33	-0.33	-4.33	0.67	-7.33	-1.33	-8.33	-1.33	-3.33	5.67	-3.33	-3.33	-4.33	1.67	1.67	2.67	0.67	2.67	5.67	-3.33	-2.33	3.67
804	51.042	18.0	0.0	-8.0	-7.0	-5.0	-7.0	-8.0	-4.0	-3.0	2.0	1.0	-3.0	2.0	0.0	18.0	8.0	12.0	7.0	18.0	21.0	11.0	14.0	-9.0	5.0	13.0	5.0	4.0
811	51.487	12.33	5.67	-3.33	-7.33	-2.33	-1.33	-4.33	-0.33	12.67	12.67	17.67	24.67	23.67	26.67	18.67	21.67	26.67	19.67	20.67	18.67	19.67	20.67	18.67	14.67	20.67	18.67	14.67
818	51.932	16.0	-3.0	-6.0	-3.0	-2.0	-9.0	-8.0	-4.0	8.0	11.0	17.0	13.0	3.0	20.0	22.0	17.0	15.0	12.0	22.0	8.0	11.0	20.0	6.0	10.0	14.0	18.0	17.0
825	52.377	18.67	-9.67	-5.67	-6.67	-10.67	-4.67	-12.67	-9.67	-2.67	-0.67	-0.67	-2.67	-2.67	-3.67	-7.67	0.33	3.33	1.33	-2.67	1.33	0.33	-0.67	-8.67	-3.67	-0.67	-6.67	-3.67
832	52.823	12.33	-0.33	-5.33	-8.33	-4.33	-3.33	-3.33	-6.33	-2.33	-3.33	2.67	-1.33	-4.33	1.67	1.67	0.67	-2.33	2.67	0.67	1.67	-0.33	3.67	4.67	-2.33	1.67	0.67	5.67
839	53.268	16.33	-8.33	-3.33	-6.33	-0.33	-2.33	-8.33	-3.33	-4.33	-6.33	-3.33	0.67	-11.33	-7.33	-3.33	-8.33	-9.33	-10.33	-4.33	-0.33	-2.33	-0.33	-5.33	-9.33	-5.33	2.67	4.67
846	53.713	13.0	-1.0	2.0	-5.0	-6.0	3.0	3.0	-2.0	2.0	-4.0	-7.0	-1.0	3.0	-6.0	-3.0	-4.0	-1.0	-1.0	5.0	-1.0	-3.0	-7.0	-5.0	-3.0	0.0	7.0	-2.0
853	54.159	18.33	-9.33	-7.33	-8.33	-4.33	-12.33	-5.33	-2.33	-6.33	-11.33	-13.33	-9.33	-3.33	-6.33	-6.33	-9.33	-7.33	-1.33	-4.33	-11.33	-9.33	-8.33	-9.33	-6.33	-5.33	-9.33	-7.33
860	54.604	19.33	-10.33	-5.33	-11.33	-13.33	-13.33	-8.33	-4.33	-9.33	-5.33	-4.33	-5.33	-8.33	-11.33	-10.33	-12.33	-10.33	-8.33	-9.33	-2.33	-13.33	-3.33	-2.33	-0.33	-12.33	-6.33	-11.33
867	55.05	15.0	-5.0	0.0	-3.0	-4.0	-6.0	-8.0	-3.0	-5.0	1.0	-7.0	-1.0	0.0	-9.0	-10.0	-6.0	0.0	-4.0	-6.0	-2.0	-1.0	-2.0	-8.0	-4.0	0.0	-3.0	-6.0
874	55.496	17.67	0.33	-6.67	-10.67	-2.67	-6.67	-6.67	0.33	-1.67	0.33	-6.67	-9.67	-9.67	-3.67	-8.67	-2.67	-9.67	-2.67	-10.67	-4.67	-7.67	-6.67	-5.67	-6.67	-6.67	-1.67	-4.67
881	55.942	23.0	-13.0	-9.0	-14.0	-9.0	-13.0	-16.0	-14.0	-12.0	-12.0	-14.0	-9.0	-3.0	-15.0	-7.0	-7.0	-12.0	-18.0	-11.0	-10.0	-16.0	-8.0	-8.0	-10.0	-16.0	-15.0	-7.0
888	56.387	15.33	0.67	-1.33	-2.33	-1.33	0.67	-4.33	-5.33	-7.33	2.67	-4.33	3.67	3.67	-4.33	-1.33	-8.33	-2.33	-6.33	-5.33	-10.33	-9.33	-3.33	-3.33	-2.33	1.67	-0.33	-5.33
895	56.833	19.67	-6.67	-7.67	-5.67	-6.67	-9.67	-11.67	-8.67	-8.67	2.33	-2.67	-8.67	-6.67	-9.67	-2.67	-6.67	-9.67	-6.67	-0.67	-6.67	-7.67	-5.67	-7.67	4.33	-6.67	-4.67	-3.67
902	57.279	19.67	-6.67	-6.67	-4.67	-11.67	-5.67	1.33	-1.67	-9.67	-2.67	-3.67	-8.67	1.33	-10.67	0.33	-7.67	-1.67	-2.67	-2.67	-3.67	-5.67	-2.67	1.33	-9.67	-1.67	-4.67	-4.67
909	57.726	20.0	-5.0	-10.0	-4.0	4.0	-8.0	1.0	-4.0	-7.0	-3.0	-3.0	-1.0	-6.0	-11.0	-7.0	-11.0	-8.0	3.0	-2.0	-3.0	-12.0	-5.0	-6.0	-3.0	-3.0	-5.0	-1.0
916	58.172	23.67	-6.67	-4.67	-7.67	-4.67	-11.67	-13.67	-5.67	-4.67	-3.67	-8.67	-10.67	0.33	-4.67	-12.67	-5.67	-2.67	-11.67	0.33	-9.67	-11.67	-10.67	-5.67	-3.67	-7.67	-13.67	-8.67
923	58.618	20.33	-6.33	-5.33	1.67	-2.33	-7.33	-11.33	-5.33	-1.33	-8.33	-9.33	-9.33	-8.33	-6.33	-10.33	-5.33	-7.33	-2.33	-16.33	-8.33	-14.33	-13.33	-8.33	-8.33	-9.33	-8.33	-5.33
930	59.064	26.0	-22.0	-8.0	-10.0	4.0	-14.0	-7.0	-4.0	-11.0	-13.0	-3.0	-3.0	-5.0	-5.0	-6.0	-13.0	-11.0	-9.0	-13.0	-3.0	-10.0	-10.0	-5.0	-9.0	-10.0	-14.0	-18.0
937	59.511	27.0	-16.0	-12.0	-2.0	-10.0	-4.0	-12.0	-17.0	-15.0	-7.0	-11.0	-8.0	-13.0	-10.0	-5.0	-12.0	-4.0	-3.0	-7.0	-12.0	-9.0	-7.0	-10.0	-6.0	-12.0	-4.0	-2.0
944	59.957	17.33	4.67	0.67	-3.33	-9.33	2.67	-7.33	-0.33	-4.33	0.67	-6.33	-5.33	-5.33	3.67	1.67	-3.33	1.67	-5.33	-6.33	-0.33	3.67	-5.33	-1.33	-0.33	-3.33	-6.33	-5.33
951	60.404	22.67	-11.67	-9.67	-10.67	-10.67	-11.67	-10.67	-14.67	-15.67	-1.67	-2.67	-14.67	-4.67	-7.67	-10.67	-9.67	-7.67	-8.67	-13.67	-6.67	-15.67	-6.67	-1.67	-16.67	-12.67	-5.67	-9.67
958	60.851	12.67	1.33	-4.67	-3.67	1.33	0.33	0.33	2.33	-0.67	7.33	-3.67	6.33	7.33	2.33	1.33	1.33	-1.67	-1.67	-1.67	5.33	7.33	-1.67	-1.67	-5.67	3.33	3.33	-5.67
965	61.298	19.0	4.0	-7.0	-4.0	2.0	-6.0	-2.0	-13.0	-2.0	-3.0	-10.0	-7.0	-3.0	-2.0	-7.0	-1.0	-6.0	0.0	-5.0	-4.0	-12.0	-12.0	-8.0	-7.0	-4.0	-9.0	-9.0
972	61.745	20.0	-5.0	-12.0	-6.0	-10.0	-8.0	-5.0	-11.0	-5.0	-4.0	-10.0	1.0	-6.0	-4.0	-10.0	-10.0	-7.0	-10.0	-6.0	-7.0	-7.0	-2.0	-3.0	-9.0	-8.0	-7.0	-8.0
979	62.192	15.33	-5.33	-1.33	-6.33	1.67	-7.33	0.67	4.67	2.67	-5.33	-4.33	-3.33	5.67	-3.33	0.67	-1.33	0.67	-1.33	-6.33	-0.33	1.67	3.67	-7.33	-0.33	1.67	2.67	-1.33
986	62.639	15.67	14.33	-0.67	-1.67	0.33	3.33	-8.67	0.33	-3.67	-3.67	1.33	4.33	-1.67	5.33	-5.67	-10.67	-1.67	-2.67	-7.67	0.33	-1.67	9.33	1.33	1.33	-2.67	-0.67	-2.67
993	63.086	19.0	1.0	-2.0	-3.0	-1.0	-5.0	-2.0	-11.0	-5.0	-7.0	-3.0	-5.0	1.0	-13.0	-3.0	-8.0	-4.0	0.0	-6.0	-3.0	-1.0	-5.0	-6.0	-6.0	-6.0	-8.0	-5.0
1000	63.533	17.67	8.33	-8.67	-3.67	-0.67	-3.67	-8.67	-8.67	-2.67	-4.67	0.33	-8.67	4.33	-0.67	-6.67	-0.67	-4.67	1.33	-10.67	-3.67	-2.67	-6.67	-4.67	-2.67	-5.67	-6.67	1.33
1007	63.981	18.67	-1.67	1.33	1.33	-2.67	-11.67	-2.67	-3.67	-5.67	-3.67	-4.67	-3.67	0.33	-5.67	-8.67	-10.67	0.33	-4.67	-0.67	3.33	-7.67	-5.67	-11.67	-2.67	-4.67	-3.67	-7.67
1014	64.428	16.33	3.67	-2.33	17.67	-2.33	-3.33	-4.33	-0.33	-1.33	3.67	1.67	-2.33	-0.33	-4.33	5.67	-1.33	4.67	-1.33	0.67	-3.33	-7.33	-3.33	-4.33	3.67	0.67	-3.33	4.67
1021	64.876	17.67	12.33	-0.67	-2.67	18.33	2.33	0.33	15.33	11.33	4.33	4.33	9.33	6.33	4.33	2.33	0.33	9.33	-2.67	-7.67	-2.67	1.33	-2.67	-11.67	-1.67	4.33	7.33	-3.67
1028	65.324	18.33	5.67	26.67	29.67	16.67	26.67	31.67	21.67	32.67	8.67	11.67	17.67	14.67	11.67	7.67	2.67	1.67	1.67	16.67	3.67	6.67	12.67	9.67	-1.33	1.67	2.67	4.67
1035	65.772	18.67	18.33	39.33	34.33	37.33	34.33	29.33	27.33	23.33	23.33	17.33	26.33	20.33	20.33	17.33	11.33	25.33	11.33	11.33	17.33	5.33	14.33	7.33	15.33	20.33	2.33	7.33
1042	66.22	17.33	13.67	16.67	20.67	32.67	25.67	24.67	10.67	10.67	17.67	11.67	13.67	12.67	10.67	9.67	15.67	14.67	2.67	4.67	7.67	7.67	8.67	0.67	6.67	7.67	0.67	7.67
1049	66.668	23.33	5.67	8.67	12.67	7.67	0.67	2.67	3.67	0.67	-2.33	3.67	-4.33	0.67	1.67	-4.33	-10.33	-1.33	-8.33	-8.33	0.67	-0.33	-10.33	-7.33	3.67	2.67	-6.33	2.67
1056	67.116	23.33	0.67	2.67	-0.33	-4.33	-7.33	1.67	-3.33	-7.33	-7.33	-7.33	-8.33	-7.33	-7.33	1.67	-12.33	-7.33	-7.33	-7.33	-4.33	-3.33	-1.33	-8.33	-9.33	-2.33	-2.33	-5.33
1063	67.564	19.0	6.0	3.0	-1.0	-3.0	6.0	0.0	1.0	-3.0	3.0	1.0	-6.0	0.0	0.0	3.0	0.0	-5.0	1.0	2.0	2.0	-3.0	-1.0	-7.0	0.0	0.0	5.0	-2.0
1070	68.013	16.0	4.0	2.0	-3.0	0.0	2.0	3.0	4.0	-2.0	0.0	0.0	1.0	1.0	-4.0	-1.0	0.0	-4.0	0.0	1.0	4.0	5.0	0.0	10.0	7.0	-7.0	5.0	1.0
1077	68.462	15.67	0.33	-0.67	3.33	2.33	4.33	7.33	-0.67	-0.67	-0.67	8.33	3.33	0.33	2.33	0.33	5.33	9.33	0.33	-2.67	2.33	0.33	8.33	-3.67	-3.67	0.33	-1.67	7.33
1084	68.91	13.0	8.0	12.0	-2.0	-1.0	3.0	2.0	3.0	0.0	8.0	2.0	7.0	6.0	6.0	4.0	6.0	-1.0	4.0	7.0	1.0	6.0	-1.0	3.0	-2.0	4.0	2.0	10.0
1091	69.359	13.67	12.33	6.33	20.33	5.33	1.33	6.33	5.33	4.33	2.33	9.33	-2.67	0.33	11.33	7.33	1.33	6.33	13.33	6.33	9.33	6.33	12.33	1.33	6.33	6.33	-0.67	2.33
1098	69.808	11.67	0.33	1.33	7.33	4.33	2.33	7.33	10.33	6.33	9.33	-4.67	8.33	9.33	5.33	4.33	6.33	1.33	5.33	11.33	16.33	3.33	2.33	2.33	2.33	12.33	4.33	3.33
1105	70.257	13.67	0.33	2.33	8.33	-3.67	-2.67	0.33	4.33	-2.67	3.33	5.33	2.33	4.33	0.33	4.33	-0.67	-0.67	9.33	6.33	2.33	-0.67	6.33	-0.67	0.33	7.33	2.33	-1.67
1112	70.707	13.67	-4.67	4.33	-0.67	-0.67	1.33	3.33	-6.67	-0.67	4.33	8.33	7.33	3.33	0.33	1.33	1.33	2.33	11.33	-3.67	3.33	7.33	-0.67	0.33	5.33	-0.67	2.33	1.33
1119	71.156	12.33	4.67	3.67	2.67	2.67	5.67	4.67	0.67	7.67	6.67	5.67	-2.33	6.67	7.67	5.67	6.67	9.67	5.67	5.67	-3.33	-5.33	3.67	10.67	0.67	0.67	1.67	10.67
1126	71.606	15.0	-2.0	-1.0	1.0	-5.0	-2.0	3.0	1.0	-3.0	-3.0	2.0	7.0	-4.0	9.0	-3.0	1.0	4.0	-3.0	-3.0	4.0	2.0	-3.0	-3.0	1.0	1.0	3.0	0.0
1133	72.055	13.67	1.33	5.33	4.33	0.33	5.33	3.33	6.33	4.33	-1.67	6.33	4.33	4.33	1.33	-5.67	2.33	12.33	7.33	2.33	11.33	1.33	4.33	0.33	13.33	3.33	2.33	-2.67
1140	72.505	16.0	-2.0	12.0	7.0	-1.0	-2.0	5.0	14.0	7.0	3.0	7.0	16.0	-5.0	2.0	7.0	7.0	1.0	5.0	5.0	8.0	7.0	10.0	6.0	8.0	2.0	13.0	6.0
1147	72.955	31.0	1.0	-8.0	3.0	6.0	7.0	-6.0	-1.0	-7.0	-5.0	-11.0	-8.0	6.0	0.0	-4.0	-1.0	-10.0	4.0	3.0	6.0	5.0	10.0	3.0	5.0	-1.0	-2.0	7.0
1154	73.405	24.67	2.33	6.33	12.33	-0.67	-4.67	4.33	-2.67	-1.67	2.33	6.33	12.33	3.33	-0.67	-1.67	1.33	2.33	-2.67	3.33	0.33	-5.67	10.33	2.33	-7.67	1.33	1.33	7.33
1161	73.855	18.33	-7.33	0.67	10.67	-3.33	5.67	-2.33	2.67	4.67	5.67	-2.33	-4.33	-9.33	-5.33	-1.33	-5.33	-0.33	6.67	4.67	6.67	-4.33	-0.33	-4.33	-3.33	-5.33	3.67	3.67
1168	74.306	16.67	-5.67	4.33	3.33	4.33	4.33	9.33	6.33	0.33	4.33	-1.67	-0.67	5.33	2.33	0.33	3.33	1.33	0.33	3.33	0.33	9.33	-0.67	-0.67	2.33	6.33	6.33	8.33
1175	74.756	19.67	1.33	13.33	15.33	7.33	9.33	15.33	12.33	6.33	7.33	14.33	7.33	10.33	11.33	13.33	6.33	7.33	9.33	3.33	10.33	11.33	8.33	6.33	3.33	8.33	8.33	17.33
1182	75.207	40.0	-5.0	7.0	-1.0	15.0	6.0	14.0	10.0	15.0	-7.0	7.0	-3.0	9.0	11.0	2.0	2.0	9.0	9.0	-7.0	8.0	23.0	4.0	8.0	2.0	12.0	12.0	14.0
1189	75.658	23.67	5.33	6.33	2.33	1.33	-1.67	6.33	13.33	-0.67	6.33	6.33	4.33	8.33	-3.67	12.33	-3.67	-1.67	11.33	4.33	0.33	-0.67	0.33	9.33	8.33	9.33	9.33	8.33
1196	76.109	16.67	1.33	6.33	1.33	2.33	-1.67	-2.67	18.33	0.33	-1.67	4.33	-3.67	7.33	11.33	-1.67	-1.67	-0.67	6.33	1.33	5.33	-0.67	7.33	0.33	11.33	1.33	1.33	3.33
1203	76.56	7.33	10.67	13.67	12.67	13.67	2.67	8.67	6.67	8.67	11.67	6.67	12.67	6.67	12.67	8.67	10.67	10.67	16.67	21.67	10.67	19.67	3.67	8.67	8.67	10.67	12.67	11.67
1210	77.011	16.67	3.33	4.33	2.33	8.33	3.33	6.33	4.33	-1.67	-1.67	-1.67	6.33	12.33	-0.67	2.33	7.33	0.33	5.33	-0.67	4.33	3.33	2.33	0.33	0.33	5.33	-6.67	-1.67
1217	77.463	16.0	-4.0	2.0	-1.0	0.0	8.0	4.0	0.0	7.0	14.0	8.0	1.0	12.0	11.0	5.0	5.0	8.0	2.0	6.0	6.0	-2.0	4.0	6.0	1.0	3.0	2.0	0.0
1224	77.915	11.33	3.67	-1.33	12.67	19.67	7.67	9.67	2.67	13.67	10.67	6.67	14.67	8.67	1.67	11.67	10.67	7.67	15.67	3.67	7.67	12.67	8.67	20.67	6.67	10.67	2.67	2.67
1231	78.366	16.0	-2.0	5.0	2.0	3.0	-6.0	-2.0	3.0	11.0	13.0	6.0	3.0	8.0	9.0	1.0	12.0	-3.0	-1.0	9.0	6.0	3.0	16.0	1.0	3.0	3.0	-2.0	-4.0
1238	78.818	20.67	-4.67	2.33	3.33	-0.67	-0.67	-2.67	4.33	-4.67	4.33	-5.67	-0.67	2.33	1.33	-3.67	-1.67	1.33	1.33	0.33	-0.67	6.33	0.33	-2.67	5.33	-9.67	-6.67	7.33
1245	79.271	16.67	0.33	7.33	6.33	0.33	-0.67	-0.67	5.33	10.33	1.33	4.33	3.33	-1.67	2.33	4.33	4.33	3.33	5.33	-1.67	-1.67	3.33	2.33	4.33	2.33	3.33	-3.67	11.33
1252	79.723	17.67	-6.67	0.33	2.33	10.33	2.33	3.33	-0.67	-3.67	2.33	6.33	5.33	16.33	0.33	1.33	8.33	7.33	-4.67	-0.67	3.33	-6.67	8.33	6.33	7.33	9.33	6.33	1.33
1259	80.175	15.33	5.67	3.67	6.67	-1.33	2.67	14.67	6.67	13.67	13.67	9.67	5.67	8.67	5.67	5.67	7.67	3.67	4.67	6.67	10.67	8.67	7.67	12.67	11.67	6.67	13.67	-1.33
1266	80.628	11.33	1.67	17.67	13.67	8.67	1.67	6.67	10.67	1.67	6.67	7.67	4.67	13.67	16.67	12.67	17.67	13.67	20.67	2.67	23.67	4.67	15.67	8.67	6.67	9.67	10.67	7.67
1273	81.081	19.67	2.33	-0.67	4.33	15.33	-4.67	4.33	11.33	13.33	8.33	6.33	8.33	12.33	4.33	7.33	14.33	8.33	4.33	-0.67	11.33	10.33	6.33	3.33	2.33	8.33	5.33	8.33
1280	81.534	19.33	-1.33	2.67	0.67	-0.33	2.67	1.67	-2.33	7.67	3.67	4.67	3.67	15.67	15.67	12.67	14.67	7.67	11.67	15.67	13.67	21.67	14.67	17.67	7.67	17.67	8.67	14.67
1287	81.987	17.0	7.0	6.0	13.0	14.0	26.0	9.0	12.0	20.0	21.0	14.0	24.0	15.0	17.0	17.0	22.0	24.0	22.0	16.0	28.0	21.0	21.0	37.0	17.0	8.0	26.0	21.0
1294	82.441	13.67	23.33	35.33	39.33	24.33	37.33	35.33	42.33	41.33	42.33	30.33	42.33	19.33	48.33	33.33	27.33	22.33	38.33	30.33	28.33	26.33	22.33	22.33	20.33	29.33	26.33	14.33
1301	82.894	15.67	39.33	113.33	103.33	96.33	106.33	93.33	90.33	67.33	63.33	50.33	55.33	62.33	55.33	55.33	59.33	44.33	46.33	27.33	35.33	45.33	29.33	39.33	40.33	27.33	36.33	38.33
1308	83.348	17.0	79.0	225.0	196.0	220.0	171.0	164.0	156.0	128.0	124.0	110.0	115.0	104.0	111.0	70.0	89.0	87.0	91.0	57.0	61.0	76.0	88.0	68.0	66.0	69.0	70.0	70.0
1315	83.802	20.0	76.0	288.0	260.0	245.0	239.0	241.0	204.0	183.0	169.0	152.0	127.0	121.0	118.0	111.0	119.0	96.0	86.0	117.0	71.0	100.0	100.0	94.0	98.0	102.0	75.0	82.0
1322	84.256	25.0	80.0	253.0	236.0	215.0	174.0	182.0	204.0	142.0	136.0	121.0	136.0	113.0	91.0	103.0	97.0	79.0	80.0	90.0	71.0	76.0	67.0	75.0	66.0	73.0	66.0	71.0
1329	84.71	24.67	58.33	141.33	114.33	98.33	96.33	90.33	74.33	83.33	85.33	63.33	68.33	70.33	61.33	68.33	70.33	61.33	43.33	49.33	60.33	33.33	54.33	41.33	42.33	49.33	55.33	48.33
1336	85.165	26.67	17.33	48.33	38.33	29.33	27.33	17.33	43.33	39.33	30.33	37.33	19.33	30.33	30.33	20.33	38.33	17.33	25.33	21.33	19.33	27.33	27.33	25.33	30.33	22.33	28.33	28.33
1343	85.619	28.0	6.0	12.0	3.0	9.0	18.0	10.0	15.0	14.0	14.0	13.0	5.0	9.0	8.0	17.0	16.0	9.0	5.0	5.0	3.0	14.0	14.0	22.0	8.0	10.0	12.0	3.0
1350	86.074	28.67	0.33	4.33	0.33	2.33	-5.67	-10.67	11.33	6.33	-0.67	6.33	-3.67	-4.67	9.33	-0.67	-1.67	-5.67	0.33	-1.67	-3.67	8.33	-2.67	-0.67	0.33	4.33	8.33	-2.67
1357	86.529	19.33	0.67	11.67	7.67	2.67	-1.33	1.67	-0.33	7.67	13.67	3.67	13.67	14.67	13.67	12.67	10.67	1.67	4.67	5.67	1.67	14.67	7.67	12.67	1.67	1.67	11.67	8.67
1364	86.985	25.0	-4.0	-6.0	0.0	-3.0	0.0	-2.0	3.0	0.0	7.0	4.0	7.0	-8.0	-2.0	1.0	7.0	9.0	2.0	6.0	6.0	2.0	1.0	10.0	4.0	5.0	-2.0	8.0
1371	87.44	29.0	-6.0	-3.0	10.0	-9.0	2.0	8.0	2.0	1.0	5.0	-3.0	11.0	-1.0	-12.0	10.0	9.0	-3.0	-4.0	-1.0	5.0	-7.0	9.0	2.0	1.0	4.0	1.0	4.0
1378	87.896	22.33	7.67	13.67	10.67	11.67	-6.33	11.67	10.67	15.67	9.67	11.67	11.67	21.67	13.67	6.67	7.67	15.67	17.67	4.67	18.67	3.67	10.67	4.67	1.67	13.67	25.67	7.67
1385	88.352	25.33	1.67	0.67	-5.33	6.67	1.67	9.67	5.67	1.67	10.67	0.67	-2.33	1.67	12.67	-0.33	4.67	10.67	8.67	9.67	-3.33	9.67	4.67	0.67	7.67	12.67	-4.33	13.67
1392	88.808	20.33	-3.33	11.67	4.67	13.67	0.67	16.67	7.67	7.67	8.67	12.67	5.67	6.67	6.67	13.67	3.67	9.67	12.67	6.67	15.67	6.67	10.67	12.67	3.67	12.67	17.67	7.67
1399	89.264	15.67	11.33	13.33	23.33	27.33	29.33	6.33	11.33	16.33	15.33	13.33	8.33	12.33	10.33	10.33	14.33	11.33	10.33	9.33	20.33	18.33	12.33	24.33	11.33	12.33	18.33	20.33
1406	89.72	25.0	-6.0	1.0	8.0	3.0	10.0	5.0	-3.0	10.0	12.0	6.0	2.0	5.0	7.0	-2.0	7.0	5.0	-6.0	5.0	2.0	7.0	-5.0	9.0	4.0	6.0	3.0	5.0
1413	90.177	26.67	-5.67	10.33	13.33	0.33	1.33	6.33	-0.67	-3.67	6.33	-1.67	4.33	9.33	4.33	5.33	0.33	-1.67	11.33	1.33	8.33	12.33	14.33	5.33	5.33	5.33	7.33	-5.67
1420	90.634	20.33	5.67	7.67	1.67	9.67	12.67	2.67	2.67	5.67	1.67	0.67	5.67	17.67	10.67	22.67	14.67	5.67	16.67	22.67	12.67	-0.33	11.67	6.67	5.67	12.67	11.67	7.67
1427	91.091	27.0	0.0	1.0	2.0	6.0	0.0	-1.0	4.0	-2.0	7.0	2.0	3.0	-5.0	2.0	0.0	1.0	11.0	-2.0	2.0	4.0	11.0	0.0	-2.0	2.0	8.0	8.0	-6.0
1434	91.549	22.0	8.0	8.0	6.0	10.0	14.0	7.0	12.0	9.0	9.0	14.0	-3.0	10.0	11.0	11.0	21.0	1.0	3.0	10.0	24.0	0.0	15.0	12.0	16.0	5.0	5.0	10.0
1441	92.006	24.0	5.0	8.0	6.0	4.0	3.0	-4.0	0.0	8.0	4.0	3.0	9.0	4.0	6.0	5.0	17.0	0.0	17.0	10.0	20.0	10.0	10.0	6.0	-4.0	17.0	4.0	-1.0
1448	92.464	29.0	3.0	-5.0	-7.0	5.0	0.0	12.0	4.0	-4.0	6.0	12.0	10.0	9.0	7.0	2.0	-3.0	2.0	-6.0	-7.0	8.0	7.0	3.0	-6.0	2.0	9.0	-3.0	15.0
1455	92.922	26.0	-2.0	0.0	-6.0	7.0	5.0	3.0	-1.0	-5.0	-8.0	2.0	-3.0	7.0	3.0	12.0	8.0	-2.0	10.0	9.0	-8.0	4.0	12.0	-3.0	11.0	7.0	18.0	6.0
1462	93.38	26.0	-4.0	6.0	4.0	-2.0	1.0	5.0	10.0	5.0	-3.0	1.0	6.0	6.0	1.0	7.0	13.0	11.0	4.0	13.0	13.0	14.0	7.0	6.0	7.0	18.0	12.0	8.0
1469	93.839	21.33	10.67	9.67	6.67	3.67	4.67	7.67	11.67	14.67	12.67	11.67	6.67	13.67	7.67	5.67	8.67	14.67	10.67	14.67	11.67	4.67	8.67	22.67	18.67	11.67	0.67	16.67
1476	94.297	32.33	-7.33	-1.33	3.67	8.67	9.67	6.67	4.67	2.67	1.67	-1.33	4.67	4.67	-1.33	3.67	-5.33	-4.33	-6.33	5.67	6.67	14.67	-4.33	-0.33	-6.33	-3.33	-7.33	11.67
1483	94.756	29.33	-1.33	7.67	-2.33	5.67	0.67	0.67	-1.33	3.67	-1.33	3.67	6.67	3.67	6.67	6.67	3.67	2.67	9.67	0.67	2.67	7.67	-0.33	8.67	8.67	4.67	2.67	2.67
1490	95.215	30.67	8.33	-1.67	12.33	-4.67	6.33	-0.67	-0.67	5.33	-4.67	11.33	8.33	15.33	4.33	6.33	2.33	-3.67	2.33	14.33	0.33	1.33	7.33	6.33	2.33	13.33	3.33	-0.67
1497	95.675	26.33	-0.33	3.67	3.67	-2.33	-0.33	6.67	9.67	9.67	12.67	9.67	6.67	10.67	9.67	11.67	10.67	19.67	19.67	7.67	14.67	11.67	12.67	1.67	15.67	6.67	4.67	20.67
1504	96.134	31.67	9.33	0.33	1.33	-2.67	-0.67	-4.67	5.33	3.33	5.33	6.33	5.33	9.33	17.33	13.33	11.33	10.33	16.33	2.33	7.33	7.33	10.33	2.33	23.33	20.33	14.33	8.33
1511	96.594	29.0	-4.0	7.0	0.0	3.0	2.0	-4.0	6.0	5.0	14.0	14.0	15.0	20.0	16.0	14.0	9.0	16.0	25.0	39.0	14.0	10.0	23.0	23.0	24.0	18.0	15.0	28.0
1518	97.054	26.67	-0.67	1.33	14.33	3.33	2.33	5.33	3.33	10.33	6.33	29.33	20.33	15.33	32.33	21.33	36.33	33.33	41.33	30.33	22.33	36.33	15.33	40.33	46.33	32.33	42.33	32.33
1525	97.514	30.33	3.67	-3.33	-0.33	3.67	14.67	1.67	-0.33	10.67	11.67	11.67	6.67	31.67	21.67	30.67	22.67	17.67	22.67	8.67	26.67	14.67	32.67	6.67	34.67	34.67	33.67	29.67
1532	97.975	33.0	14.0	-3.0	-3.0	-10.0	-1.0	3.0	3.0	3.0	6.0	7.0	5.0	4.0	22.0	6.0	8.0	19.0	13.0	4.0	15.0	22.0	22.0	30.0	3.0	22.0	36.0	30.0
1539	98.436	33.67	-5.67	-4.67	-1.67	3.33	-2.67	-4.67	-1.67	-0.67	2.33	0.33	13.33	2.33	7.33	6.33	7.33	6.33	4.33	8.33	8.33	12.33	8.33	5.33	5.33	15.33	14.33	10.33
1546	98.897	38.0	-8.0	2.0	-6.0	-5.0	-4.0	-10.0	3.0	0.0	-3.0	-8.0	-6.0	-3.0	4.0	2.0	7.0	6.0	6.0	11.0	6.0	-6.0	-5.0	1.0	3.0	-7.0	-5.0	-9.0
1553	99.358	31.0	2.0	2.0	-6.0	-7.0	15.0	1.0	-8.0	-6.0	2.0	1.0	0.0	-4.0	10.0	1.0	5.0	5.0	-11.0	0.0	2.0	-5.0	-4.0	0.0	6.0	11.0	3.0	8.0
1560	99.82	35.0	-7.0	-4.0	-6.0	-6.0	-5.0	-15.0	9.0	1.0	-5.0	-3.0	8.0	-8.0	1.0	7.0	-1.0	-3.0	-1.0	1.0	1.0	3.0	0.0	3.0	0.0	0.0	5.0	-3.0
1567	100.281	29.0	5.0	10.0	7.0	5.0	1.0	9.0	3.0	8.0	11.0	3.0	9.0	6.0	9.0	-1.0	4.0	9.0	-1.0	11.0	9.0	11.0	18.0	16.0	5.0	5.0	5.0	14.0
1574	100.743	31.67	-7.67	1.33	-2.67	11.33	5.33	13.33	14.33	14.33	5.33	9.33	-0.67	-5.67	20.33	11.33	9.33	11.33	4.33	10.33	11.33	-5.67	-2.67	6.33	12.33	-1.67	1.33	-1.67
1581	101.206	34.67	-8.67	4.33	-0.67	2.33	5.33	-5.67	-2.67	16.33	5.33	4.33	0.33	-10.67	9.33	-2.67	4.33	-1.67	11.33	7.33	-6.67	5.33	1.33	11.33	3.33	-3.67	4.33	7.33
1588	101.668	34.0	2.0	-2.0	18.0	17.0	15.0	18.0	1.0	-4.0	11.0	9.0	9.0	5.0	3.0	-2.0	-9.0	7.0	10.0	13.0	6.0	1.0	-7.0	2.0	3.0	3.0	-1.0	13.0
1595	102.131	30.67	-1.67	3.33	-3.67	7.33	12.33	19.33	15.33	12.33	4.33	-1.67	3.33	7.33	8.33	6.33	5.33	15.33	4.33	3.33	2.33	6.33	3.33	11.33	1.33	-2.67	3.33	6.33
1602	102.594	35.0	-6.0	-3.0	10.0	1.0	1.0	12.0	17.0	0.0	8.0	-4.0	-1.0	-1.0	1.0	8.0	9.0	-6.0	9.0	3.0	5.0	-2.0	7.0	4.0	-1.0	-2.0	6.0	-3.0
1609	103.057	33.0	-6.0	6.0	22.0	1.0	13.0	4.0	12.0	-1.0	9.0	0.0	-6.0	-6.0	-2.0	-1.0	1.0	2.0	-2.0	0.0	5.0	-2.0	3.0	5.0	3.0	9.0	10.0	12.0
1616	103.521	31.0	-4.0	7.0	5.0	9.0	-8.0	0.0	4.0	-1.0	3.0	6.0	2.0	-6.0	-1.0	24.0	10.0	-3.0	5.0	-3.0	13.0	2.0	8.0	1.0	-7.0	0.0	9.0	3.0
1623	103.985	29.0	-3.0	1.0	-3.0	-3.0	1.0	-1.0	-3.0	20.0	1.0	1.0	-2.0	-6.0	10.0	3.0	-3.0	2.0	4.0	2.0	-1.0	4.0	3.0	11.0	-6.0	1.0	6.0	8.0
1630	104.449	24.67	5.33	8.33	9.33	13.33	6.33	6.33	7.33	11.33	13.33	8.33	3.33	14.33	6.33	4.33	8.33	8.33	10.33	11.33	-3.67	1.33	1.33	8.33	12.33	1.33	13.33	3.33
1637	104.913	25.67	-3.67	-0.67	2.33	3.33	6.33	5.33	4.33	12.33	3.33	18.33	6.33	12.33	3.33	8.33	3.33	0.33	1.33	12.33	0.33	2.33	6.33	5.33	6.33	-1.67	4.33	4.33
1644	105.378	28.67	-4.67	2.33	-6.67	-2.67	-0.67	1.33	8.33	4.33	11.33	0.33	5.33	-5.67	-8.67	11.33	6.33	-2.67	-2.67	3.33	-4.67	2.33	2.33	-2.67	9.33	-0.67	4.33	5.33
1651	105.843	24.0	0.0	3.0	-3.0	2.0	3.0	-4.0	10.0	8.0	-2.0	5.0	0.0	5.0	15.0	8.0	1.0	5.0	3.0	7.0	-3.0	7.0	1.0	6.0	12.0	11.0	-3.0	-3.0
1658	106.308	28.0	-7.0	-9.0	-4.0	-4.0	2.0	-4.0	4.0	-7.0	4.0	-10.0	-3.0	5.0	4.0	-1.0	3.0	-1.0	-6.0	-1.0	6.0	5.0	2.0	9.0	5.0	-1.0	0.0	-2.0
1665	106.773	25.0	2.0	-11.0	12.0	0.0	3.0	-5.0	13.0	0.0	-7.0	10.0	2.0	3.0	1.0	4.0	-1.0	0.0	-6.0	11.0	0.0	6.0	7.0	-2.0	-2.0	-5.0	4.0	12.0
1672	107.239	27.33	0.67	1.67	2.67	4.67	-0.33	-5.33	-5.33	-4.33	-5.33	-2.33	-4.33	-8.33	1.67	6.67	-0.33	-1.33	9.67	-0.33	0.67	2.67	7.67	-3.33	1.67	-4.33	3.67	0.67
1679	107.705	27.0	-2.0	-4.0	-2.0	0.0	7.0	2.0	4.0	-3.0	9.0	-11.0	2.0	17.0	2.0	3.0	4.0	-1.0	-2.0	11.0	7.0	10.0	5.0	6.0	0.0	4.0	1.0	-1.0
1686	108.171	25.0	-2.0	0.0	-3.0	-4.0	-4.0	2.0	12.0	4.0	0.0	2.0	10.0	13.0	2.0	7.0	4.0	9.0	3.0	11.0	-2.0	-1.0	9.0	3.0	-2.0	5.0	1.0	4.0
1693	108.638	22.67	-11.67	-3.67	3.33	5.33	14.33	0.33	3.33	7.33	7.33	-1.67	7.33	1.33	3.33	2.33	-1.67	-0.67	6.33	3.33	-7.67	1.33	2.33	3.33	-1.67	3.33	14.33	6.33
1700	109.105	23.0	3.0	1.0	0.0	3.0	1.0	-1.0	13.0	15.0	3.0	8.0	10.0	15.0	4.0	-3.0	-2.0	-9.0	-7.0	4.0	9.0	-4.0	10.0	-1.0	8.0	3.0	5.0	-5.0
1707	109.572	24.0	-12.0	-3.0	-9.0	-1.0	-2.0	-3.0	-3.0	11.0	-11.0	9.0	-3.0	-3.0	0.0	5.0	-4.0	10.0	-4.0	0.0	11.0	0.0	-5.0	9.0	2.0	-8.0	16.0	-2.0
1714	110.039	21.67	13.33	5.33	6.33	5.33	0.33	3.33	0.33	-1.67	4.33	2.33	6.33	1.33	9.33	-3.67	0.33	8.33	-1.67	-3.67	8.33	-3.67	5.33	-2.67	-6.67	0.33	8.33	7.33
1721	110.507	22.0	1.0	3.0	0.0	8.0	3.0	-4.0	-11.0	-3.0	0.0	1.0	-2.0	2.0	4.0	2.0	0.0	-2.0	-1.0	-3.0	-6.0	0.0	8.0	8.0	6.0	-3.0	6.0	-1.0
1728	110.975	26.67	-4.67	1.33	-1.67	-7.67	8.33	-3.67	-5.67	0.33	1.33	-11.67	-8.67	-1.67	-13.67	-4.67	-3.67	-2.67	-3.67	-3.67	-3.67	2.33	0.33	1.33	-0.67	-3.67	-2.67	-7.67
1735	111.443	21.33	7.67	3.67	6.67	-2.33	12.67	12.67	5.67	4.67	5.67	3.67	3.67	5.67	-1.33	2.67	-3.33	9.67	4.67	2.67	10.67	1.67	1.67	5.67	-4.33	8.67	8.67	9.67
1742	111.912	21.33	-2.33	7.67	2.67	13.67	4.67	8.67	14.67	12.67	11.67	5.67	6.67	8.67	0.67	1.67	-1.33	7.67	9.67	3.67	1.67	4.67	6.67	7.67	6.67	1.67	5.67	-0.33
1749	112.38	23.0	0.0	7.0	14.0	8.0	16.0	7.0	14.0	19.0	8.0	1.0	15.0	13.0	-5.0	-5.0	5.0	6.0	-1.0	-1.0	0.0	7.0	4.0	4.0	2.0	-3.0	4.0	3.0
1756	112.85	21.67	-1.67	8.33	0.33	5.33	-3.67	3.33	6.33	2.33	9.33	4.33	9.33	8.33	0.33	2.33	-0.67	-0.67	-1.67	6.33	4.33	1.33	14.33	-2.67	2.33	2.33	2.33	7.33
1763	113.319	15.33	4.67	6.67	9.67	10.67	12.67	10.67	5.67	17.67	13.67	4.67	5.67	11.67	16.67	7.67	6.67	6.67	13.67	6.67	4.67	4.67	5.67	10.67	14.67	3.67	14.67	9.67
1770	113.789	18.67	-3.67	3.33	4.33	3.33	2.33	4.33	8.33	2.33	3.33	-1.67	9.33	-1.67	1.33	-1.67	9.33	-0.67	7.33	-0.67	6.33	-1.67	15.33	-1.67	3.33	0.33	4.33	4.33
1777	114.259	17.33	-3.33	0.67	-4.33	-0.33	2.67	-0.33	3.67	3.67	-0.33	7.67	-1.33	2.67	-0.33	2.67	-2.33	6.67	1.67	-2.33	-1.33	2.67	1.67	6.67	-3.33	7.67	9.67	4.67
1784	114.729	17.33	0.67	-3.33	5.67	2.67	-2.33	2.67	-0.33	-1.33	-2.33	10.67	1.67	-1.33	2.67	1.67	1.67	1.67	4.67	1.67	1.67	9.67	2.67	5.67	3.67	2.67	6.67	3.67
1791	115.2	19.67	6.33	1.33	-4.67	3.33	1.33	3.33	-0.67	-2.67	-1.67	5.33	-0.67	-3.67	-0.67	3.33	0.33	2.33	-5.67	-0.67	5.33	2.33	-2.67	0.33	0.33	-2.67	-4.67	-3.67
1798	115.671	16.33	1.67	-4.33	0.67	-1.33	0.67	-7.33	-2.33	1.67	-2.33	-1.33	-3.33	3.67	1.67	-0.33	-5.33	-2.33	10.67	4.67	7.67	-0.33	-1.33	1.67	1.67	1.67	8.67	-5.33
1805	116.142	15.33	6.67	10.67	-3.33	9.67	4.67	-4.33	5.67	5.67	3.67	1.67	2.67	-2.33	3.67	-4.33	-1.33	0.67	3.67	6.67	-2.33	2.67	13.67	0.67	-0.33	6.67	0.67	1.67
1812	116.614	13.0	1.0	3.0	7.0	1.0	6.0	-2.0	7.0	3.0	4.0	5.0	-2.0	2.0	7.0	1.0	6.0	6.0	8.0	3.0	0.0	1.0	3.0	0.0	5.0	1.0	-1.0	6.0
1819	117.086	11.0	6.0	3.0	7.0	7.0	4.0	5.0	4.0	5.0	9.0	4.0	10.0	7.0	6.0	13.0	0.0	9.0	5.0	7.0	6.0	10.0	11.0	7.0	3.0	7.0	10.0	4.0
1826	117.558	18.33	-3.33	-5.33	-4.33	-2.33	-6.33	0.67	-9.33	-6.33	0.67	-1.33	-1.33	1.67	-0.33	-2.33	-8.33	-4.33	6.67	3.67	-1.33	5.67	-2.33	-1.33	-1.33	3.67	1.67	-7.33
1833	118.03	17.0	0.0	6.0	2.0	-2.0	-6.0	-2.0	-5.0	-1.0	-2.0	-2.0	-4.0	1.0	-1.0	1.0	5.0	-2.0	-1.0	-1.0	-3.0	3.0	3.0	5.0	-4.0	2.0	2.0	-3.0
1840	118.503	18.67	-2.67	-6.67	-1.67	2.33	-10.67	2.33	0.33	-5.67	-4.67	-1.67	-3.67	-0.67	-3.67	-7.67	-8.67	1.33	-0.67	7.33	-10.67	0.33	-10.67	-0.67	-4.67	-6.67	-3.67	-4.67
1847	118.976	17.0	-6.0	-2.0	-2.0	-8.0	-4.0	-3.0	-3.0	-11.0	0.0	-4.0	6.0	-7.0	-11.0	3.0	-1.0	-4.0	-6.0	-8.0	9.0	5.0	0.0	-5.0	5.0	3.0	-7.0	2.0
1854	119.45	17.67	2.33	-5.67	-4.67	-5.67	-1.67	-2.67	-6.67	-4.67	-3.67	-2.67	-7.67	2.33	-4.67	8.33	-3.67	-3.67	-7.67	-4.67	-0.67	-6.67	-5.67	0.33	-4.67	-2.67	-3.67	-2.67
1861	119.924	15.67	-0.67	1.33	-4.67	-1.67	-1.67	-2.67	-2.67	2.33	2.33	3.33	-3.67	-7.67	-5.67	-1.67	-1.67	-3.67	3.33	-4.67	-1.67	-1.67	-4.67	4.33	1.33	4.33	1.33	2.33
1868	120.398	17.0	-6.0	1.0	-6.0	-4.0	0.0	1.0	-1.0	1.0	-3.0	-4.0	-6.0	3.0	-7.0	-1.0	-1.0	-4.0	0.0	-4.0	-3.0	-2.0	-1.0	-1.0	3.0	-2.0	-4.0	-7.0
1875	120.872	10.33	1.67	3.67	3.67	2.67	1.67	7.67	2.67	-2.33	8.67	3.67	-0.33	-0.33	-4.33	5.67	9.67	1.67	3.67	7.67	-0.33	-2.33	0.67	5.67	2.67	1.67	6.67	0.67
1882	121.347	16.33	-9.33	-4.33	-6.33	-0.33	6.67	-10.33	-6.33	-1.33	-5.33	-2.33	0.67	1.67	-2.33	1.67	4.67	0.67	0.67	-8.33	6.67	-2.33	-2.33	-0.33	-1.33	1.67	-5.33	1.67
1889	121.822	12.67	-2.67	0.33	3.33	0.33	0.33	-1.67	0.33	1.33	1.33	7.33	1.33	-1.67	4.33	-3.67	-2.67	3.33	-3.67	-1.67	-3.67	2.33	0.33	11.33	3.33	12.33	0.33	5.33
1896	122.298	12.0	1.0	1.0	2.0	-2.0	0.0	10.0	8.0	5.0	-1.0	-2.0	4.0	4.0	-2.0	6.0	-4.0	-7.0	2.0	12.0	5.0	11.0	4.0	1.0	2.0	6.0	1.0	4.0
1903	122.773	14.0	0.0	13.0	0.0	5.0	3.0	7.0	5.0	-1.0	-1.0	-5.0	1.0	-1.0	-2.0	-5.0	1.0	0.0	3.0	-5.0	4.0	-3.0	9.0	1.0	-1.0	4.0	-2.0	-2.0
1910	123.25	12.33	5.67	3.67	4.67	10.67	8.67	2.67	-4.33	-0.33	7.67	4.67	5.67	4.67	2.67	0.67	8.67	2.67	-2.33	8.67	-1.33	-2.33	1.67	-0.33	0.67	5.67	2.67	1.67
1917	123.726	12.33	-1.33	4.67	3.67	8.67	1.67	1.67	0.67	1.67	0.67	5.67	-0.33	0.67	-0.33	-3.33	0.67	4.67	-0.33	-1.33	3.67	2.67	-1.33	-3.33	-6.33	-2.33	3.67	-2.33
1924	124.203	8.67	-0.67	-1.67	3.33	3.33	1.33	6.33	3.33	4.33	10.33	8.33	10.33	6.33	4.33	5.33	3.33	2.33	9.33	9.33	8.33	2.33	5.33	3.33	4.33	6.33	4.33	6.33
1931	124.68	13.33	-4.33	-5.33	-2.33	-0.33	-0.33	-2.33	2.67	-4.33	-2.33	-7.33	-1.33	2.67	0.67	2.67	0.67	1.67	-4.33	0.67	1.67	4.67	-4.33	3.67	1.67	-1.33	-2.33	3.67
1938	125.158	8.33	-1.33	6.67	4.67	3.67	2.67	3.67	2.67	5.67	1.67	3.67	4.67	8.67	-2.33	3.67	7.67	6.67	6.67	4.67	4.67	9.67	-2.33	0.67	4.67	1.67	0.67	3.67
1945	125.635	11.67	-4.67	5.33	-7.67	1.33	3.33	0.33	2.33	2.33	-2.67	-5.67	-6.67	3.33	-3.67	-0.67	1.33	1.33	-5.67	-3.67	-4.67	0.33	-1.67	-4.67	-5.67	0.33	-4.67	3.33
1952	126.114	10.33	-0.33	4.67	5.67	5.67	0.67	-1.33	-3.33	1.67	5.67	-0.33	-2.33	0.67	4.67	-3.33	6.67	3.67	-0.33	0.67	1.67	-0.33	10.67	1.67	6.67	-4.33	-0.33	6.67
1959	126.592	9.33	-0.33	5.67	1.67	1.67	-2.33	-0.33	1.67	3.67	2.67	2.67	1.67	2.67	3.67	5.67	0.67	1.67	0.67	0.67	2.67	-2.33	5.67	0.67	-1.33	5.67	5.67	4.67
1966	127.071	10.33	-2.33	-2.33	2.67	2.67	-7.33	3.67	5.67	-1.33	-1.33	0.67	-7.33	3.67	1.67	11.67	3.67	-0.33	4.67	-1.33	0.67	1.67	2.67	-2.33	8.67	-5.33	-3.33	4.67
1973	127.55	8.33	-0.33	1.67	-0.33	0.67	-2.33	0.67	2.67	-2.33	-0.33	3.67	-2.33	5.67	4.67	11.67	5.67	6.67	-1.33	2.67	3.67	1.67	-2.33	5.67	2.67	4.67	4.67	3.67
1980	128.03	8.0	-2.0	-1.0	1.0	0.0	-2.0	1.0	0.0	2.0	4.0	1.0	8.0	5.0	-2.0	2.0	2.0	3.0	1.0	-1.0	1.0	10.0	-1.0	4.0	7.0	7.0	3.0	-3.0
1987	128.51	6.0	4.0	9.0	0.0	7.0	5.0	6.0	3.0	2.0	3.0	5.0	2.0	-2.0	5.0	8.0	7.0	2.0	2.0	7.0	5.0	7.0	7.0	2.0	12.0	-2.0	2.0	7.0
1994	128.99	9.33	-5.33	-0.33	3.67	0.67	-2.33	-3.33	-1.33	1.67	-1.33	-1.33	-1.33	0.67	-1.33	2.67	5.67	-3.33	-4.33	-1.33	2.67	-0.33	-1.33	-0.33	-0.33	0.67	-0.33	-2.33
2001	129.471	6.0	4.0	0.0	11.0	5.0	0.0	11.0	10.0	1.0	0.0	0.0	1.0	2.0	2.0	6.0	5.0	6.0	2.0	4.0	5.0	0.0	2.0	1.0	7.0	13.0	4.0	4.0
2008	129.952	10.33	-1.33	-1.33	-0.33	2.67	-2.33	-1.33	-1.33	3.67	-3.33	-0.33	-0.33	5.67	1.67	-2.33	0.67	-4.33	-3.33	-1.33	-1.33	-3.33	1.67	1.67	-1.33	-1.33	-5.33	2.67
2015	130.433	7.33	-4.33	1.67	1.67	0.67	-3.33	0.67	2.67	4.67	3.67	-1.33	-0.33	2.67	1.67	-0.33	2.67	1.67	3.67	0.67	0.67	7.67	4.67	5.67	0.67	1.67	3.67	1.67
2022	130.915	6.33	4.67	6.67	-2.33	4.67	1.67	2.67	-3.33	4.67	2.67	0.67	2.67	2.67	3.67	0.67	3.67	-1.33	8.67	1.67	1.67	-4.33	-0.33	3.67	6.67	4.67	2.67	0.67
2029	131.397	7.33	-0.33	0.67	5.67	-1.33	-0.33	0.67	8.67	-0.33	0.67	1.67	1.67	-1.33	2.67	-3.33	-0.33	3.67	2.67	4.67	0.67	2.67	1.67	6.67	1.67	2.67	-0.33	4.67
2036	131.879	9.33	-3.33	-3.33	1.67	-2.33	-0.33	6.67	3.67	2.67	-6.33	-6.33	-0.33	3.67	0.67	-2.33	4.67	-6.33	-2.33	2.67	2.67	-1.33	-0.33	-2.33	-2.33	0.67	-5.33	1.67
2043	132.362	7.67	-2.67	2.33	-1.67	-0.67	1.33	0.33	-2.67	2.33	-2.67	3.33	0.33	2.33	4.33	1.33	8.33	6.33	-1.67	3.33	0.33	8.33	2.33	3.33	2.33	2.33	0.33	0.33
2047	132.638	5.33	8.67	2.67	3.67	2.67	2.67	5.67	3.67	-0.33	5.67	7.67	0.67	3.67	5.67	-0.33	7.67	0.67	0.67	5.67	4.67	3.67	1.67	3.67	2.67	11.67	7.67	7.67