File: EDX Back Ups and Old Files/EDX Processed Data/High pH BL 60C 2d.txt
Name: High pH BL 60C 2d
Number of Scans: 29
Positions: [-13.0, -12.75, -12.5, -12.25, -12.0, -11.75, -11.5, -11.25, -11.0, -10.75, -10.5, -10.25, -10.0, -9.75, -9.5, -9.25, -9.0, -8.75, -8.5, -8.25, -8.0, -7.75, -7.5, -7.25, -7.0, -6.75, -6.5, -6.25, -6.0]
Points per Scan: 2048
Sample Edge: 3
Scans Off Sample: [0, 1, 2]
Conversion Features: [(275, 17444.3), (309, 19608.3), (913, 57981.7), (934, 59318.24), (1058, 67244.3)]
Degree of Fit: 3
Fit Coeffecients: [ 8.59183e-07 -0.001482  64.3003 -144.207]
pH: High
Steel Fiber: False
Aging Temp.: 60
Aging Atm.: 100% CO2
Aging Humidity: None
Aging Time: 2

*********
#Bins	Energy [keV]	Avg. Background	-12.25	-12.0	-11.75	-11.5	-11.25	-11.0	-10.75	-10.5	-10.25	-10.0	-9.75	-9.5	-9.25	-9.0	-8.75	-8.5	-8.25	-8.0	-7.75	-7.5	-7.25	-7.0	-6.75	-6.5	-6.25	-6.0
6	0.242	1773.67	8.33	-84.67	-74.67	34.33	-9.67	-25.67	-73.67	21.33	17.33	-65.67	-63.67	-115.67	9.33	42.33	133.33	104.33	4.33	77.33	84.33	35.33	60.33	135.33	50.33	6.33	40.33	85.33
13	0.691	1229.67	-16.67	-81.67	-112.67	-14.67	-66.67	-37.67	-65.67	-2.67	-55.67	34.33	-31.67	-75.67	-118.67	-16.67	270.33	-1.67	-72.67	-46.67	-28.67	-7.67	84.33	9.33	8.33	-48.67	-52.67	-0.67
20	1.141	315.0	13.0	-18.0	14.0	-1.0	43.0	-46.0	2.0	-20.0	11.0	17.0	12.0	-14.0	12.0	0.0	108.0	7.0	0.0	-1.0	4.0	-1.0	27.0	-10.0	8.0	-22.0	-41.0	24.0
27	1.591	52.33	-6.33	-3.33	0.67	-9.33	-10.33	-5.33	-4.33	-5.33	-16.33	6.67	-1.33	-3.33	-0.33	-14.33	14.67	-4.33	-2.33	7.67	0.67	-1.33	-0.33	5.67	5.67	-4.33	2.67	-2.33
34	2.04	7.0	1.0	-4.0	-2.0	2.0	-5.0	0.0	-1.0	-2.0	-1.0	2.0	-1.0	2.0	3.0	2.0	3.0	-1.0	-1.0	4.0	-1.0	1.0	7.0	0.0	-1.0	2.0	3.0	4.0
41	2.49	1.0	-1.0	0.0	0.0	-1.0	0.0	-1.0	0.0	0.0	0.0	1.0	1.0	-1.0	1.0	0.0	1.0	-1.0	0.0	0.0	-1.0	-1.0	1.0	0.0	1.0	-1.0	3.0	-1.0
48	2.939	1.33	0.67	-0.33	-1.33	-0.33	-0.33	-0.33	0.67	-1.33	-1.33	-1.33	-0.33	-1.33	-0.33	-0.33	-1.33	-1.33	-0.33	-1.33	-1.33	-1.33	-1.33	-0.33	0.67	-0.33	-1.33	-1.33
55	3.388	0.33	-0.33	-0.33	-0.33	-0.33	-0.33	-0.33	0.67	0.67	-0.33	-0.33	-0.33	-0.33	-0.33	0.67	-0.33	0.67	-0.33	0.67	0.67	-0.33	-0.33	-0.33	0.67	0.67	-0.33	-0.33
62	3.837	0.67	0.33	-0.67	0.33	-0.67	-0.67	-0.67	-0.67	1.33	-0.67	-0.67	1.33	0.33	-0.67	0.33	-0.67	-0.67	-0.67	-0.67	-0.67	-0.67	-0.67	-0.67	-0.67	-0.67	0.33	-0.67
69	4.286	0.0	1.0	0.0	0.0	1.0	0.0	0.0	1.0	0.0	2.0	0.0	0.0	0.0	2.0	0.0	1.0	0.0	0.0	1.0	0.0	0.0	0.0	0.0	2.0	0.0	0.0	0.0
76	4.734	0.67	0.33	0.33	-0.67	-0.67	-0.67	-0.67	0.33	-0.67	-0.67	0.33	0.33	0.33	-0.67	1.33	1.33	-0.67	0.33	-0.67	-0.67	-0.67	0.33	-0.67	-0.67	1.33	1.33	-0.67
83	5.183	1.0	0.0	-1.0	0.0	-1.0	0.0	-1.0	0.0	-1.0	-1.0	-1.0	-1.0	0.0	-1.0	-1.0	1.0	1.0	-1.0	-1.0	0.0	2.0	-1.0	-1.0	-1.0	-1.0	0.0	-1.0
90	5.631	1.33	-0.33	1.67	-0.33	-0.33	-0.33	1.67	-1.33	0.67	-0.33	0.67	-0.33	-1.33	-0.33	-1.33	-0.33	-1.33	-0.33	0.67	-1.33	-1.33	0.67	-0.33	-1.33	-1.33	-1.33	0.67
97	6.08	1.0	0.0	3.0	-1.0	0.0	0.0	1.0	0.0	2.0	-1.0	-1.0	-1.0	0.0	-1.0	-1.0	2.0	0.0	0.0	0.0	0.0	1.0	1.0	-1.0	-1.0	1.0	1.0	-1.0
104	6.528	1.33	0.67	-0.33	0.67	0.67	-0.33	-0.33	0.67	-0.33	0.67	-0.33	-0.33	0.67	-0.33	-1.33	1.67	2.67	0.67	-0.33	0.67	0.67	0.67	-1.33	-1.33	0.67	-0.33	-1.33
111	6.976	2.33	-1.33	0.67	0.67	5.67	0.67	-2.33	-2.33	-1.33	-0.33	0.67	0.67	5.67	-1.33	-1.33	-0.33	-1.33	4.67	-1.33	-0.33	2.67	4.67	-0.33	-1.33	-1.33	0.67	0.67
118	7.424	4.67	-2.67	-1.67	-0.67	-2.67	-2.67	-3.67	-0.67	0.33	-2.67	-3.67	-4.67	-0.67	-0.67	0.33	-1.67	-1.67	-3.67	2.33	-1.67	0.33	-0.67	-1.67	-2.67	-0.67	0.33	-0.67
125	7.872	5.33	-1.33	2.67	0.67	1.67	0.67	0.67	-0.33	-0.33	-0.33	1.67	-0.33	0.67	0.67	1.67	-2.33	1.67	-1.33	0.67	5.67	1.67	4.67	2.67	1.67	-2.33	1.67	-2.33
132	8.32	5.67	-0.67	3.33	-2.67	3.33	3.33	3.33	3.33	3.33	1.33	-1.67	0.33	0.33	0.33	4.33	0.33	3.33	4.33	1.33	1.33	8.33	0.33	-0.67	1.33	0.33	4.33	4.33
139	8.767	11.67	-5.67	-2.67	-4.67	-5.67	-1.67	2.33	-6.67	-4.67	-1.67	-3.67	-3.67	0.33	1.33	0.33	-2.67	0.33	8.33	-6.67	-4.67	-0.67	-3.67	-3.67	-2.67	-2.67	-6.67	-1.67
146	9.215	8.67	3.33	-0.67	5.33	4.33	1.33	1.33	1.33	-0.67	1.33	1.33	5.33	0.33	2.33	-0.67	0.33	3.33	-4.67	4.33	3.33	-3.67	3.33	0.33	1.33	-0.67	0.33	2.33
153	9.662	13.0	-1.0	-7.0	5.0	-4.0	-2.0	-3.0	-5.0	0.0	-3.0	1.0	-6.0	-1.0	1.0	-5.0	-4.0	-2.0	2.0	-1.0	-4.0	-4.0	-5.0	3.0	0.0	1.0	-4.0	-1.0
160	10.109	10.0	-1.0	-5.0	0.0	2.0	2.0	-1.0	8.0	4.0	3.0	-3.0	-1.0	1.0	-1.0	3.0	1.0	-2.0	5.0	3.0	-4.0	1.0	1.0	2.0	0.0	-4.0	-4.0	6.0
167	10.557	13.33	-3.33	-3.33	-7.33	-8.33	-3.33	-4.33	3.67	2.67	-2.33	2.67	-2.33	-2.33	0.67	-4.33	-1.33	-2.33	-1.33	1.67	-4.33	2.67	-3.33	0.67	5.67	-6.33	3.67	1.67
174	11.004	9.33	3.67	-5.33	1.67	10.67	2.67	4.67	-1.33	2.67	6.67	0.67	-4.33	8.67	3.67	3.67	1.67	-2.33	6.67	1.67	9.67	9.67	3.67	4.67	1.67	11.67	-2.33	-3.33
181	11.451	10.67	0.33	-3.67	-2.67	6.33	-0.67	5.33	4.33	-3.67	14.33	1.33	7.33	5.33	9.33	-3.67	2.33	1.33	4.33	0.33	3.33	6.33	-4.67	-0.67	5.33	0.33	5.33	0.33
188	11.898	6.67	3.33	6.33	3.33	4.33	-1.67	11.33	3.33	5.33	1.33	9.33	7.33	4.33	4.33	5.33	12.33	5.33	11.33	3.33	7.33	9.33	7.33	3.33	9.33	3.33	6.33	6.33
195	12.344	11.33	-4.33	-2.33	-4.33	2.67	2.67	2.67	-3.33	-3.33	-0.33	1.67	1.67	8.67	6.67	-0.33	5.67	4.67	-5.33	2.67	2.67	1.67	2.67	-2.33	-2.33	-7.33	4.67	5.67
202	12.791	10.67	2.33	5.33	-4.67	7.33	3.33	6.33	-1.67	2.33	4.33	1.33	5.33	-1.67	6.33	0.33	1.33	2.33	1.33	-1.67	4.33	0.33	-0.67	1.33	-6.67	-1.67	2.33	7.33
209	13.238	13.0	-6.0	-4.0	-7.0	-4.0	-2.0	-6.0	-10.0	0.0	0.0	1.0	-5.0	0.0	-6.0	-2.0	2.0	2.0	-2.0	-2.0	2.0	1.0	-4.0	2.0	2.0	2.0	-6.0	-3.0
216	13.684	11.33	-7.33	1.67	1.67	-2.33	3.67	0.67	-0.33	-0.33	-1.33	1.67	1.67	-0.33	0.67	0.67	0.67	5.67	-0.33	-0.33	0.67	0.67	-1.33	8.67	2.67	-1.33	4.67	-1.33
223	14.131	9.0	1.0	4.0	-3.0	5.0	9.0	11.0	13.0	8.0	14.0	1.0	6.0	2.0	2.0	0.0	3.0	4.0	8.0	5.0	4.0	3.0	3.0	5.0	5.0	5.0	2.0	3.0
230	14.577	10.67	2.33	-0.67	0.33	-1.67	-2.67	-0.67	4.33	2.33	-1.67	2.33	1.33	-1.67	8.33	2.33	7.33	-3.67	-2.67	9.33	-0.67	5.33	2.33	1.33	-2.67	-0.67	3.33	2.33
237	15.023	8.33	4.67	2.67	8.67	1.67	7.67	1.67	4.67	0.67	11.67	4.67	3.67	0.67	0.67	2.67	4.67	5.67	3.67	7.67	3.67	3.67	2.67	14.67	5.67	5.67	4.67	-1.33
244	15.469	13.0	-4.0	-6.0	9.0	1.0	-2.0	3.0	2.0	0.0	5.0	-3.0	-1.0	0.0	4.0	-1.0	-4.0	-3.0	3.0	-4.0	-4.0	1.0	2.0	1.0	-1.0	-5.0	2.0	-1.0
251	15.915	9.33	8.67	-1.33	1.67	1.67	5.67	4.67	0.67	2.67	-2.33	5.67	5.67	3.67	2.67	-2.33	-1.33	3.67	6.67	-0.33	7.67	6.67	-0.33	5.67	0.67	3.67	2.67	3.67
258	16.361	8.33	0.67	4.67	3.67	4.67	2.67	1.67	4.67	0.67	6.67	-1.33	3.67	3.67	4.67	2.67	1.67	0.67	2.67	7.67	4.67	7.67	3.67	4.67	-0.33	4.67	2.67	3.67
265	16.807	11.0	4.0	-1.0	2.0	3.0	-2.0	6.0	2.0	5.0	4.0	-3.0	3.0	4.0	-2.0	1.0	3.0	-4.0	3.0	-6.0	-4.0	0.0	3.0	5.0	-1.0	1.0	3.0	0.0
272	17.253	13.67	-2.67	-4.67	-3.67	-6.67	-5.67	1.33	-4.67	-2.67	-3.67	-0.67	1.33	3.33	4.33	3.33	-3.67	-5.67	0.33	4.33	-1.67	-1.67	-4.67	-3.67	-3.67	3.33	-2.67	-0.67
279	17.699	10.0	0.0	-3.0	5.0	-5.0	9.0	1.0	3.0	1.0	-3.0	5.0	0.0	7.0	-2.0	5.0	-4.0	0.0	-3.0	8.0	3.0	1.0	8.0	1.0	-2.0	2.0	-3.0	1.0
286	18.145	9.67	4.33	-0.67	-0.67	2.33	3.33	2.33	0.33	7.33	0.33	6.33	-0.67	7.33	0.33	2.33	0.33	3.33	8.33	2.33	6.33	6.33	6.33	8.33	5.33	4.33	0.33	3.33
293	18.59	7.0	8.0	0.0	10.0	2.0	2.0	6.0	0.0	4.0	5.0	0.0	4.0	7.0	2.0	4.0	-1.0	6.0	6.0	9.0	6.0	0.0	-1.0	2.0	0.0	8.0	11.0	2.0
300	19.036	8.67	-2.67	1.33	-3.67	5.33	7.33	9.33	-1.67	1.33	-0.67	0.33	5.33	7.33	2.33	16.33	3.33	2.33	5.33	3.33	-0.67	1.33	-0.67	-1.67	10.33	7.33	8.33	5.33
307	19.481	9.67	4.33	-0.67	0.33	6.33	-3.67	1.33	3.33	4.33	0.33	-3.67	7.33	3.33	5.33	10.33	2.33	-0.67	2.33	5.33	3.33	7.33	-6.67	4.33	4.33	3.33	1.33	2.33
314	19.927	8.67	1.33	5.33	7.33	2.33	0.33	-0.67	7.33	0.33	1.33	0.33	5.33	2.33	3.33	1.33	-0.67	7.33	-2.67	2.33	-0.67	6.33	2.33	0.33	10.33	4.33	2.33	-0.67
321	20.372	11.0	-7.0	4.0	2.0	2.0	-2.0	-3.0	-1.0	1.0	2.0	2.0	0.0	-3.0	-1.0	3.0	2.0	0.0	-3.0	-3.0	5.0	0.0	3.0	-1.0	-1.0	0.0	-3.0	4.0
328	20.817	9.67	-1.67	2.33	-2.67	5.33	-0.67	3.33	3.33	3.33	6.33	1.33	-0.67	2.33	1.33	-0.67	-0.67	4.33	-0.67	-1.67	3.33	0.33	-5.67	-0.67	0.33	4.33	3.33	0.33
335	21.262	12.33	0.67	-5.33	-0.33	0.67	-0.33	-4.33	2.67	-4.33	-0.33	-5.33	-0.33	-7.33	-5.33	-3.33	-0.33	-3.33	-0.33	-0.33	-1.33	7.67	0.67	-4.33	0.67	0.67	-1.33	-2.33
342	21.708	6.33	-1.33	6.67	1.67	5.67	0.67	2.67	4.67	7.67	2.67	0.67	3.67	4.67	8.67	2.67	-0.33	5.67	0.67	7.67	2.67	10.67	11.67	1.67	5.67	0.67	4.67	5.67
349	22.153	10.67	-3.67	1.33	-4.67	3.33	-1.67	-5.67	-1.67	-1.67	4.33	-2.67	2.33	3.33	5.33	1.33	7.33	1.33	-2.67	4.33	2.33	0.33	-1.67	1.33	-0.67	-1.67	1.33	1.33
356	22.598	10.0	-2.0	-4.0	1.0	1.0	-3.0	1.0	0.0	4.0	-2.0	1.0	0.0	-4.0	4.0	-6.0	5.0	0.0	-3.0	5.0	3.0	0.0	1.0	4.0	0.0	6.0	3.0	-2.0
363	23.043	6.33	5.67	3.67	1.67	4.67	2.67	8.67	6.67	8.67	5.67	3.67	10.67	4.67	4.67	-0.33	8.67	1.67	4.67	2.67	4.67	4.67	7.67	3.67	6.67	4.67	5.67	5.67
370	23.488	9.67	-3.67	9.33	-3.67	-3.67	3.33	-3.67	-3.67	0.33	0.33	0.33	-3.67	-0.67	1.33	1.33	-0.67	0.33	2.33	5.33	-0.67	-0.67	0.33	3.33	9.33	-0.67	2.33	4.33
377	23.932	7.0	-5.0	-1.0	3.0	2.0	0.0	11.0	0.0	5.0	-2.0	7.0	5.0	4.0	13.0	3.0	1.0	4.0	4.0	4.0	3.0	8.0	3.0	-1.0	-2.0	2.0	6.0	-1.0
384	24.377	9.0	-4.0	-6.0	1.0	-2.0	2.0	9.0	-1.0	0.0	-2.0	0.0	0.0	-3.0	7.0	2.0	2.0	1.0	4.0	-3.0	1.0	0.0	3.0	2.0	2.0	7.0	1.0	3.0
391	24.822	8.33	4.67	4.67	-2.33	-1.33	1.67	2.67	1.67	0.67	5.67	4.67	5.67	6.67	9.67	-1.33	0.67	4.67	3.67	2.67	-1.33	1.67	3.67	1.67	3.67	5.67	0.67	-3.33
398	25.267	9.67	-1.67	-2.67	0.33	7.33	1.33	-0.67	6.33	-3.67	-0.67	0.33	8.33	-1.67	1.33	6.33	-3.67	2.33	-7.67	3.33	-0.67	-3.67	-0.67	-3.67	-1.67	-0.67	-5.67	3.33
405	25.711	11.33	-2.33	-1.33	-0.33	-0.33	-4.33	0.67	2.67	-1.33	-4.33	-4.33	0.67	-1.33	-1.33	-3.33	-4.33	2.67	2.67	-1.33	-2.33	-2.33	-0.33	-3.33	2.67	-0.33	-3.33	-1.33
412	26.156	7.67	2.33	-1.67	1.33	-2.67	-2.67	1.33	8.33	1.33	2.33	7.33	0.33	4.33	2.33	1.33	0.33	3.33	-3.67	-1.67	2.33	2.33	2.33	3.33	-0.67	-2.67	1.33	3.33
419	26.601	8.67	-1.67	-0.67	3.33	-0.67	-1.67	1.33	-1.67	1.33	4.33	4.33	-0.67	1.33	1.33	-1.67	0.33	0.33	-3.67	4.33	4.33	-0.67	0.33	0.33	-0.67	4.33	1.33	2.33
426	27.045	6.67	0.33	-0.67	1.33	5.33	-2.67	-1.67	3.33	9.33	8.33	2.33	-3.67	2.33	3.33	3.33	1.33	2.33	0.33	1.33	3.33	13.33	6.33	4.33	2.33	3.33	-0.67	3.33
433	27.49	6.33	-0.33	-0.33	5.67	6.67	-3.33	-0.33	1.67	2.67	-0.33	1.67	1.67	5.67	1.67	2.67	5.67	-1.33	-1.33	-1.33	6.67	3.67	4.67	4.67	1.67	-1.33	2.67	9.67
440	27.934	7.67	-2.67	-0.67	-1.67	0.33	-1.67	-1.67	1.33	4.33	-1.67	-0.67	-0.67	-1.67	-2.67	2.33	3.33	0.33	-2.67	3.33	0.33	3.33	-2.67	2.33	1.33	-1.67	8.33	0.33
447	28.379	8.33	-2.33	-6.33	4.67	-3.33	-0.33	-4.33	-0.33	-0.33	-3.33	1.67	-3.33	-2.33	-0.33	-0.33	-1.33	3.67	-1.33	-2.33	5.67	-3.33	1.67	-4.33	1.67	-1.33	-4.33	-0.33
454	28.823	6.33	1.67	-1.33	3.67	2.67	6.67	4.67	-2.33	-0.33	-1.33	3.67	-0.33	5.67	1.67	-4.33	6.67	6.67	2.67	4.67	1.67	-0.33	3.67	2.67	6.67	3.67	-0.33	3.67
461	29.267	6.67	-1.67	0.33	-0.67	-0.67	1.33	2.33	3.33	-0.67	1.33	3.33	2.33	-0.67	1.33	3.33	7.33	1.33	-2.67	7.33	2.33	-0.67	-0.67	1.33	-0.67	2.33	1.33	1.33
468	29.712	8.0	-7.0	0.0	-1.0	-2.0	-2.0	-1.0	-4.0	-2.0	3.0	-4.0	2.0	1.0	-3.0	-5.0	-3.0	0.0	-4.0	4.0	-1.0	4.0	-2.0	-2.0	-2.0	-4.0	2.0	-2.0
475	30.156	4.0	4.0	2.0	4.0	9.0	10.0	5.0	7.0	10.0	4.0	7.0	1.0	1.0	4.0	4.0	8.0	4.0	1.0	3.0	7.0	5.0	3.0	4.0	-2.0	5.0	4.0	2.0
482	30.6	6.33	1.67	2.67	1.67	5.67	3.67	2.67	-0.33	1.67	2.67	-2.33	-0.33	-0.33	-0.33	0.67	-2.33	-0.33	4.67	1.67	-0.33	1.67	-2.33	3.67	1.67	-0.33	0.67	4.67
489	31.045	7.0	2.0	-3.0	-2.0	0.0	-5.0	-2.0	-1.0	-1.0	-1.0	1.0	-2.0	-1.0	2.0	1.0	-4.0	0.0	0.0	-1.0	-1.0	-4.0	-1.0	-2.0	1.0	1.0	2.0	0.0
496	31.489	6.33	-1.33	3.67	-3.33	3.67	1.67	0.67	1.67	3.67	9.67	3.67	0.67	-5.33	0.67	1.67	0.67	0.67	0.67	-1.33	-2.33	0.67	2.67	3.67	3.67	0.67	4.67	-4.33
503	31.933	5.33	0.67	0.67	0.67	1.67	1.67	5.67	2.67	1.67	1.67	1.67	-1.33	0.67	-1.33	1.67	-1.33	-1.33	-0.33	1.67	2.67	-1.33	5.67	1.67	4.67	2.67	-0.33	4.67
510	32.377	3.33	2.67	4.67	2.67	1.67	1.67	-0.33	6.67	4.67	2.67	2.67	-1.33	4.67	0.67	6.67	3.67	4.67	1.67	5.67	6.67	-0.33	0.67	1.67	3.67	3.67	4.67	2.67
517	32.822	7.33	-4.33	4.67	-4.33	-3.33	-3.33	1.67	-4.33	-0.33	-0.33	-1.33	-2.33	-3.33	-0.33	2.67	-2.33	-1.33	-2.33	-1.33	-2.33	-5.33	-1.33	0.67	0.67	1.67	2.67	-2.33
524	33.266	5.67	0.33	0.33	-1.67	1.33	3.33	1.33	1.33	-0.67	5.33	4.33	-1.67	-1.67	3.33	1.33	-0.67	-1.67	-2.67	-3.67	0.33	2.33	0.33	3.33	-0.67	0.33	-0.67	1.33
531	33.71	5.33	0.67	-0.33	0.67	0.67	1.67	-1.33	0.67	3.67	-0.33	0.67	1.67	-2.33	3.67	-0.33	5.67	3.67	0.67	1.67	-0.33	5.67	0.67	2.67	2.67	4.67	1.67	0.67
538	34.154	6.0	0.0	0.0	-1.0	-5.0	4.0	3.0	4.0	0.0	0.0	4.0	4.0	0.0	-1.0	4.0	-4.0	-3.0	2.0	1.0	0.0	0.0	1.0	-1.0	1.0	-1.0	-3.0	1.0
545	34.598	5.0	2.0	5.0	1.0	0.0	-3.0	-2.0	0.0	-1.0	-1.0	1.0	2.0	4.0	2.0	3.0	1.0	1.0	2.0	4.0	0.0	-1.0	-2.0	-1.0	0.0	2.0	0.0	1.0
552	35.043	9.0	0.0	-4.0	-5.0	-2.0	-1.0	-5.0	0.0	1.0	-3.0	-6.0	-2.0	-3.0	-1.0	-3.0	-5.0	-3.0	-6.0	-3.0	0.0	-5.0	-5.0	-6.0	-1.0	2.0	-2.0	-3.0
559	35.487	4.0	-1.0	6.0	2.0	4.0	0.0	7.0	1.0	-1.0	2.0	5.0	4.0	0.0	1.0	1.0	2.0	4.0	2.0	1.0	6.0	4.0	1.0	2.0	1.0	4.0	4.0	2.0
566	35.931	6.67	-0.67	-2.67	-2.67	-4.67	2.33	3.33	2.33	3.33	-2.67	-1.67	-3.67	-2.67	0.33	-0.67	-1.67	-3.67	-1.67	3.33	2.33	-0.67	4.33	3.33	-1.67	2.33	0.33	2.33
573	36.375	5.33	-1.33	1.67	-0.33	2.67	-2.33	-1.33	-2.33	-1.33	1.67	7.67	5.67	1.67	-2.33	2.67	-0.33	0.67	-1.33	1.67	0.67	-0.33	-0.33	0.67	2.67	-4.33	2.67	0.67
580	36.819	6.0	2.0	-1.0	-1.0	-1.0	-1.0	-1.0	-3.0	3.0	1.0	0.0	1.0	0.0	-1.0	-2.0	0.0	1.0	3.0	-3.0	-2.0	2.0	0.0	0.0	1.0	0.0	2.0	5.0
587	37.263	6.0	0.0	0.0	1.0	-2.0	3.0	-2.0	3.0	-2.0	-3.0	2.0	-2.0	0.0	3.0	-1.0	2.0	-2.0	-2.0	2.0	-1.0	1.0	-2.0	3.0	0.0	2.0	0.0	2.0
594	37.707	4.67	0.33	-2.67	0.33	1.33	4.33	1.33	1.33	-0.67	0.33	-0.67	-1.67	-2.67	2.33	1.33	0.33	-1.67	1.33	-2.67	0.33	3.33	2.33	-0.67	1.33	3.33	0.33	2.33
601	38.152	7.0	-3.0	-2.0	-2.0	1.0	1.0	-3.0	-2.0	-6.0	-2.0	1.0	-3.0	0.0	-3.0	3.0	0.0	3.0	3.0	-6.0	-4.0	-3.0	-2.0	3.0	0.0	-3.0	-6.0	0.0
608	38.596	7.33	-5.33	-2.33	-3.33	-0.33	-6.33	-6.33	-4.33	-4.33	-3.33	0.67	-3.33	-4.33	-1.33	-3.33	-2.33	1.67	-1.33	2.67	-3.33	-1.33	-5.33	-1.33	-1.33	-4.33	-3.33	-0.33
615	39.04	6.0	-1.0	2.0	-1.0	-2.0	4.0	-2.0	5.0	-4.0	-2.0	-4.0	-4.0	1.0	-2.0	4.0	-4.0	-1.0	-3.0	-1.0	4.0	-1.0	1.0	5.0	0.0	-1.0	2.0	2.0
622	39.484	3.33	7.67	1.67	2.67	-2.33	3.67	0.67	2.67	-0.33	0.67	1.67	-2.33	2.67	1.67	-0.33	0.67	9.67	3.67	0.67	7.67	2.67	6.67	2.67	7.67	2.67	4.67	8.67
629	39.928	5.67	3.33	-0.67	-4.67	5.33	0.33	2.33	1.33	-1.67	0.33	-2.67	-1.67	3.33	-1.67	0.33	-1.67	4.33	3.33	-3.67	2.33	4.33	4.33	-3.67	-3.67	2.33	-0.67	-0.67
636	40.372	5.0	-3.0	-1.0	-1.0	1.0	-3.0	3.0	0.0	3.0	-1.0	-2.0	-3.0	-2.0	5.0	-2.0	2.0	8.0	-1.0	6.0	-1.0	1.0	1.0	0.0	4.0	0.0	2.0	4.0
643	40.817	3.33	-0.33	0.67	-0.33	-0.33	-0.33	3.67	1.67	3.67	-0.33	4.67	-1.33	3.67	5.67	2.67	5.67	5.67	6.67	3.67	1.67	2.67	8.67	4.67	0.67	3.67	1.67	2.67
650	41.261	4.67	-2.67	1.33	2.33	3.33	-2.67	2.33	-3.67	-2.67	1.33	0.33	2.33	-0.67	2.33	2.33	6.33	2.33	-2.67	4.33	-0.67	0.33	3.33	0.33	1.33	0.33	2.33	2.33
657	41.705	5.33	1.67	2.67	-2.33	-0.33	2.67	0.67	-3.33	1.67	2.67	0.67	-1.33	-0.33	0.67	2.67	-2.33	-1.33	1.67	-0.33	3.67	0.67	7.67	5.67	0.67	-1.33	-0.33	0.67
664	42.149	5.33	2.67	-1.33	9.67	-0.33	-2.33	7.67	0.67	-2.33	-0.33	-3.33	-1.33	3.67	-0.33	1.67	-1.33	1.67	7.67	-1.33	2.67	1.67	1.67	-1.33	3.67	1.67	0.67	-1.33
671	42.594	7.67	-4.67	-4.67	-1.67	-0.67	-4.67	-0.67	3.33	-1.67	-2.67	-0.67	-2.67	2.33	-1.67	3.33	1.33	-3.67	-0.67	0.33	-1.67	-1.67	-1.67	-4.67	-3.67	1.33	-2.67	3.33
678	43.038	5.67	-1.67	-0.67	0.33	-1.67	-3.67	1.33	3.33	-0.67	-0.67	0.33	0.33	2.33	2.33	4.33	-1.67	1.33	-1.67	-1.67	-0.67	-2.67	3.33	-0.67	-0.67	0.33	6.33	0.33
685	43.482	8.0	-2.0	-5.0	0.0	-2.0	-1.0	-5.0	-3.0	-3.0	2.0	-3.0	-1.0	0.0	-2.0	-1.0	-4.0	0.0	1.0	-1.0	1.0	-1.0	2.0	2.0	6.0	-3.0	2.0	0.0
692	43.927	4.33	3.67	0.67	1.67	2.67	-1.33	-1.33	3.67	2.67	4.67	2.67	3.67	-0.33	0.67	-0.33	3.67	2.67	6.67	-0.33	3.67	6.67	4.67	2.67	0.67	1.67	1.67	1.67
699	44.371	5.67	5.33	-0.67	0.33	0.33	1.33	-2.67	3.33	1.33	-0.67	8.33	4.33	1.33	3.33	2.33	0.33	-2.67	1.33	1.33	-0.67	4.33	1.33	2.33	-2.67	3.33	-3.67	-0.67
706	44.815	8.67	-0.67	-3.67	2.33	-0.67	-1.67	-0.67	-3.67	1.33	-2.67	-4.67	2.33	-0.67	0.33	0.33	-1.67	0.33	-2.67	1.33	-0.67	-1.67	-2.67	-3.67	0.33	-3.67	-3.67	-6.67
713	45.26	7.67	-3.67	3.33	4.33	-0.67	-2.67	0.33	-4.67	5.33	0.33	0.33	4.33	-4.67	-3.67	-1.67	-2.67	2.33	7.33	-4.67	3.33	4.33	3.33	0.33	-2.67	2.33	1.33	-3.67
720	45.704	7.0	6.0	-1.0	-1.0	4.0	1.0	2.0	-1.0	3.0	2.0	-3.0	-2.0	4.0	1.0	1.0	2.0	0.0	-1.0	0.0	0.0	0.0	-2.0	2.0	3.0	0.0	0.0	2.0
727	46.149	9.0	-2.0	-3.0	-2.0	-4.0	-2.0	-2.0	-1.0	-6.0	-4.0	-2.0	-6.0	-5.0	-3.0	-5.0	-5.0	0.0	-4.0	-2.0	-2.0	0.0	2.0	-3.0	-5.0	-4.0	-4.0	1.0
734	46.594	7.33	4.67	3.67	-2.33	2.67	-2.33	0.67	-1.33	1.67	1.67	-3.33	2.67	4.67	3.67	-2.33	-3.33	3.67	-3.33	1.67	-3.33	0.67	-3.33	3.67	5.67	0.67	-2.33	-0.33
741	47.038	6.0	6.0	4.0	1.0	-2.0	2.0	7.0	-2.0	1.0	0.0	-4.0	6.0	4.0	2.0	4.0	1.0	3.0	0.0	0.0	3.0	1.0	1.0	1.0	4.0	2.0	6.0	5.0
748	47.483	5.67	5.33	3.33	5.33	3.33	0.33	2.33	0.33	2.33	4.33	3.33	4.33	8.33	5.33	3.33	2.33	-1.67	-0.67	4.33	2.33	7.33	6.33	4.33	0.33	4.33	5.33	4.33
755	47.928	7.0	4.0	2.0	6.0	3.0	3.0	2.0	-2.0	8.0	4.0	1.0	4.0	0.0	5.0	1.0	2.0	-5.0	2.0	2.0	4.0	2.0	6.0	0.0	3.0	1.0	4.0	-3.0
762	48.372	5.67	4.33	3.33	-0.67	0.33	1.33	6.33	0.33	10.33	-2.67	4.33	3.33	4.33	1.33	3.33	6.33	3.33	0.33	2.33	5.33	3.33	-0.67	-0.67	11.33	6.33	-1.67	1.33
769	48.817	8.67	-0.67	4.33	-4.67	-0.67	-2.67	6.33	1.33	2.33	2.33	3.33	-4.67	1.33	3.33	4.33	-4.67	2.33	-0.67	-1.67	0.33	0.33	0.33	2.33	5.33	2.33	6.33	-2.67
776	49.262	6.67	8.33	0.33	5.33	5.33	3.33	7.33	0.33	6.33	2.33	5.33	3.33	-0.67	5.33	1.33	-1.67	11.33	3.33	4.33	6.33	2.33	-1.67	0.33	6.33	1.33	2.33	8.33
783	49.707	8.33	1.67	5.67	-2.33	-0.33	-4.33	3.67	-1.33	2.67	4.67	5.67	3.67	4.67	5.67	1.67	2.67	4.67	3.67	7.67	-0.33	4.67	5.67	7.67	5.67	0.67	1.67	3.67
790	50.152	6.33	4.67	1.67	6.67	7.67	4.67	6.67	8.67	4.67	4.67	10.67	4.67	7.67	4.67	-1.33	6.67	7.67	3.67	1.67	6.67	7.67	9.67	-0.33	7.67	3.67	5.67	3.67
797	50.597	7.0	7.0	3.0	4.0	1.0	2.0	1.0	8.0	6.0	6.0	6.0	8.0	10.0	13.0	6.0	9.0	8.0	13.0	9.0	10.0	5.0	11.0	7.0	9.0	7.0	5.0	5.0
804	51.042	9.0	2.0	5.0	6.0	1.0	5.0	4.0	4.0	-1.0	-1.0	1.0	9.0	17.0	17.0	16.0	17.0	24.0	19.0	18.0	17.0	12.0	0.0	17.0	15.0	10.0	13.0	16.0
811	51.487	6.33	7.67	8.67	3.67	4.67	13.67	4.67	7.67	3.67	1.67	13.67	24.67	32.67	38.67	35.67	27.67	27.67	24.67	33.67	24.67	27.67	20.67	16.67	31.67	24.67	29.67	28.67
818	51.932	9.33	2.67	1.67	5.67	1.67	1.67	2.67	7.67	3.67	8.67	11.67	12.67	33.67	17.67	29.67	21.67	19.67	18.67	27.67	18.67	19.67	28.67	11.67	26.67	11.67	29.67	17.67
825	52.377	10.33	-1.33	3.67	5.67	3.67	1.67	1.67	0.67	-1.33	2.67	2.67	4.67	11.67	4.67	9.67	12.67	13.67	5.67	7.67	9.67	15.67	5.67	11.67	17.67	7.67	7.67	15.67
832	52.823	7.67	7.33	0.33	2.33	7.33	5.33	3.33	10.33	1.33	9.33	8.33	4.33	5.33	3.33	8.33	9.33	10.33	3.33	7.33	9.33	0.33	8.33	3.33	3.33	5.33	5.33	3.33
839	53.268	8.0	-5.0	7.0	10.0	8.0	2.0	3.0	9.0	0.0	-1.0	3.0	5.0	5.0	7.0	0.0	4.0	6.0	5.0	5.0	-1.0	8.0	8.0	2.0	4.0	9.0	8.0	8.0
846	53.713	9.0	0.0	1.0	-2.0	6.0	6.0	-2.0	9.0	8.0	0.0	0.0	2.0	7.0	5.0	5.0	6.0	4.0	5.0	1.0	7.0	1.0	1.0	8.0	5.0	-3.0	2.0	6.0
853	54.159	8.67	9.33	4.33	5.33	-2.67	2.33	6.33	4.33	6.33	5.33	4.33	10.33	5.33	7.33	11.33	7.33	4.33	0.33	0.33	8.33	9.33	-0.67	0.33	7.33	4.33	4.33	9.33
860	54.604	8.0	3.0	5.0	8.0	7.0	9.0	3.0	13.0	8.0	8.0	7.0	3.0	4.0	6.0	7.0	0.0	2.0	6.0	0.0	11.0	3.0	5.0	9.0	5.0	10.0	6.0	3.0
867	55.05	7.0	7.0	8.0	5.0	4.0	6.0	2.0	1.0	11.0	3.0	4.0	9.0	5.0	7.0	2.0	1.0	6.0	1.0	4.0	3.0	3.0	5.0	14.0	9.0	3.0	6.0	8.0
874	55.496	9.67	-0.67	-0.67	-1.67	-1.67	4.33	0.33	2.33	7.33	-1.67	5.33	3.33	1.33	5.33	4.33	3.33	-0.67	2.33	6.33	3.33	3.33	0.33	1.33	4.33	-2.67	-2.67	2.33
881	55.942	11.0	2.0	-2.0	9.0	6.0	0.0	5.0	4.0	7.0	7.0	1.0	4.0	-3.0	-2.0	1.0	1.0	3.0	0.0	7.0	-1.0	2.0	-1.0	8.0	-1.0	-1.0	0.0	1.0
888	56.387	9.67	10.33	10.33	9.33	-1.67	-0.67	-0.67	4.33	4.33	3.33	2.33	0.33	4.33	-3.67	5.33	1.33	1.33	-2.67	8.33	-3.67	4.33	5.33	1.33	4.33	3.33	6.33	8.33
895	56.833	10.67	-0.67	-1.67	6.33	-3.67	4.33	6.33	0.33	3.33	6.33	2.33	3.33	2.33	5.33	2.33	3.33	14.33	0.33	6.33	-0.67	9.33	4.33	0.33	5.33	2.33	2.33	0.33
902	57.279	10.67	-2.67	-0.67	0.33	6.33	8.33	-0.67	2.33	8.33	7.33	-0.67	6.33	10.33	4.33	6.33	6.33	3.33	6.33	6.33	8.33	7.33	4.33	0.33	-0.67	1.33	6.33	0.33
909	57.726	11.67	1.33	6.33	5.33	3.33	4.33	5.33	4.33	1.33	5.33	11.33	6.33	5.33	-0.67	7.33	2.33	2.33	1.33	6.33	6.33	5.33	8.33	9.33	6.33	8.33	2.33	3.33
916	58.172	13.33	-1.33	4.67	-0.33	2.67	0.67	8.67	0.67	0.67	7.67	4.67	1.67	7.67	4.67	3.67	1.67	6.67	5.67	7.67	-3.33	8.67	1.67	5.67	10.67	7.67	1.67	11.67
923	58.618	7.67	11.33	10.33	15.33	0.33	4.33	9.33	9.33	18.33	4.33	9.33	8.33	9.33	6.33	8.33	4.33	8.33	8.33	6.33	11.33	8.33	5.33	4.33	2.33	8.33	6.33	7.33
930	59.064	12.0	10.0	13.0	6.0	1.0	2.0	3.0	9.0	4.0	4.0	15.0	18.0	4.0	9.0	9.0	0.0	8.0	6.0	6.0	-3.0	10.0	7.0	5.0	8.0	10.0	8.0	-2.0
937	59.511	19.67	3.33	2.33	6.33	8.33	6.33	6.33	-1.67	-0.67	0.33	4.33	4.33	-1.67	0.33	5.33	-4.67	-6.67	5.33	-2.67	7.33	-4.67	-0.67	4.33	2.33	-5.67	-6.67	1.33
944	59.957	14.0	8.0	1.0	-5.0	-2.0	4.0	0.0	6.0	3.0	12.0	-2.0	-1.0	1.0	2.0	-3.0	-1.0	-2.0	0.0	-2.0	-4.0	-1.0	-8.0	-1.0	-1.0	-3.0	-1.0	6.0
951	60.404	9.67	3.33	12.33	4.33	6.33	2.33	-0.67	3.33	3.33	13.33	7.33	10.33	3.33	7.33	3.33	3.33	9.33	-0.67	8.33	4.33	1.33	0.33	7.33	3.33	5.33	4.33	4.33
958	60.851	14.0	12.0	-4.0	-4.0	0.0	-3.0	6.0	1.0	9.0	3.0	3.0	5.0	0.0	3.0	0.0	-1.0	-1.0	-1.0	-5.0	-2.0	-4.0	0.0	1.0	-1.0	-1.0	-1.0	1.0
965	61.298	9.33	3.67	8.67	3.67	5.67	7.67	3.67	12.67	7.67	1.67	6.67	5.67	7.67	4.67	0.67	9.67	1.67	-0.33	7.67	8.67	6.67	5.67	7.67	6.67	6.67	1.67	1.67
972	61.745	8.67	13.33	3.33	8.33	0.33	14.33	2.33	4.33	17.33	15.33	7.33	6.33	6.33	11.33	0.33	5.33	13.33	10.33	7.33	15.33	5.33	8.33	8.33	2.33	9.33	6.33	13.33
979	62.192	10.33	7.67	16.67	8.67	4.67	11.67	-1.33	5.67	-1.33	5.67	10.67	5.67	4.67	5.67	8.67	2.67	1.67	7.67	8.67	1.67	3.67	10.67	6.67	2.67	8.67	1.67	3.67
986	62.639	10.67	16.33	6.33	2.33	7.33	5.33	0.33	-0.67	-0.67	0.33	2.33	1.33	8.33	4.33	0.33	5.33	2.33	4.33	-0.67	6.33	4.33	3.33	0.33	1.33	4.33	1.33	7.33
993	63.086	9.33	14.67	3.67	10.67	11.67	10.67	4.67	3.67	18.67	5.67	12.67	3.67	3.67	1.67	3.67	4.67	8.67	2.67	10.67	-0.33	8.67	6.67	3.67	4.67	2.67	7.67	11.67
1000	63.533	10.33	19.67	2.67	8.67	16.67	10.67	10.67	7.67	4.67	3.67	7.67	10.67	7.67	6.67	-1.33	6.67	5.67	7.67	8.67	9.67	-0.33	7.67	2.67	14.67	2.67	11.67	3.67
1007	63.981	8.33	17.67	9.67	6.67	7.67	7.67	10.67	12.67	6.67	18.67	7.67	13.67	12.67	2.67	6.67	4.67	11.67	6.67	2.67	7.67	6.67	7.67	6.67	15.67	2.67	4.67	11.67
1014	64.428	8.0	26.0	14.0	17.0	7.0	8.0	4.0	14.0	16.0	8.0	7.0	19.0	12.0	14.0	10.0	11.0	10.0	15.0	4.0	9.0	17.0	6.0	8.0	8.0	10.0	11.0	7.0
1021	64.876	12.33	23.67	12.67	8.67	8.67	16.67	13.67	12.67	8.67	18.67	8.67	15.67	11.67	14.67	9.67	5.67	9.67	1.67	9.67	16.67	4.67	15.67	-2.33	11.67	7.67	7.67	11.67
1028	65.324	9.67	35.33	22.33	30.33	34.33	38.33	18.33	28.33	26.33	24.33	24.33	17.33	19.33	19.33	22.33	21.33	25.33	21.33	17.33	20.33	26.33	10.33	22.33	19.33	20.33	16.33	20.33
1035	65.772	11.0	29.0	49.0	33.0	51.0	41.0	44.0	41.0	42.0	19.0	32.0	31.0	25.0	27.0	23.0	27.0	28.0	29.0	14.0	10.0	18.0	18.0	18.0	28.0	17.0	19.0	27.0
1042	66.22	14.33	23.67	31.67	39.67	29.67	33.67	18.67	17.67	21.67	23.67	10.67	28.67	20.67	17.67	8.67	22.67	13.67	19.67	6.67	20.67	11.67	16.67	15.67	4.67	11.67	7.67	10.67
1049	66.668	11.0	9.0	21.0	33.0	9.0	20.0	15.0	15.0	10.0	20.0	26.0	13.0	10.0	13.0	10.0	7.0	26.0	11.0	19.0	13.0	12.0	9.0	10.0	15.0	14.0	17.0	8.0
1056	67.116	11.33	12.67	12.67	16.67	24.67	7.67	11.67	11.67	14.67	17.67	4.67	11.67	15.67	12.67	18.67	16.67	12.67	6.67	15.67	11.67	9.67	10.67	4.67	10.67	13.67	9.67	17.67
1063	67.564	14.67	6.33	7.33	5.33	3.33	7.33	10.33	7.33	14.33	1.33	6.33	9.33	-1.67	6.33	11.33	-0.67	-5.67	3.33	11.33	10.33	9.33	5.33	4.33	10.33	5.33	10.33	13.33
1070	68.013	10.33	15.67	7.67	7.67	16.67	6.67	4.67	9.67	8.67	8.67	2.67	13.67	13.67	7.67	10.67	11.67	8.67	6.67	9.67	9.67	9.67	2.67	8.67	14.67	8.67	0.67	7.67
1077	68.462	11.33	5.67	7.67	5.67	5.67	3.67	10.67	17.67	8.67	14.67	6.67	0.67	8.67	18.67	10.67	1.67	7.67	12.67	9.67	12.67	3.67	6.67	7.67	11.67	12.67	1.67	10.67
1084	68.91	17.0	3.0	0.0	5.0	-1.0	0.0	8.0	1.0	12.0	6.0	6.0	12.0	-3.0	7.0	6.0	3.0	-2.0	3.0	0.0	7.0	9.0	8.0	2.0	-1.0	3.0	2.0	8.0
1091	69.359	9.33	4.67	12.67	9.67	10.67	21.67	15.67	14.67	19.67	8.67	12.67	17.67	4.67	3.67	8.67	18.67	14.67	0.67	12.67	17.67	11.67	17.67	7.67	6.67	11.67	10.67	11.67
1098	69.808	8.67	8.33	7.33	7.33	17.33	10.33	10.33	11.33	7.33	6.33	10.33	9.33	3.33	7.33	16.33	7.33	9.33	9.33	13.33	10.33	4.33	14.33	11.33	-0.67	8.33	9.33	13.33
1105	70.257	10.67	12.33	20.33	7.33	2.33	8.33	13.33	7.33	9.33	4.33	10.33	7.33	8.33	9.33	8.33	12.33	7.33	13.33	8.33	9.33	5.33	-1.67	3.33	8.33	6.33	13.33	3.33
1112	70.707	9.33	3.67	7.67	10.67	18.67	6.67	10.67	1.67	4.67	9.67	8.67	16.67	15.67	13.67	9.67	8.67	17.67	18.67	10.67	12.67	9.67	12.67	6.67	8.67	12.67	10.67	9.67
1119	71.156	12.67	-0.67	6.33	-1.67	7.33	-1.67	5.33	8.33	6.33	7.33	14.33	5.33	7.33	8.33	8.33	5.33	7.33	17.33	7.33	5.33	5.33	3.33	1.33	8.33	4.33	4.33	7.33
1126	71.606	11.33	7.67	10.67	7.67	10.67	8.67	3.67	9.67	5.67	15.67	10.67	8.67	12.67	10.67	11.67	11.67	9.67	10.67	10.67	10.67	9.67	6.67	3.67	14.67	11.67	6.67	5.67
1133	72.055	16.0	4.0	5.0	-4.0	5.0	-4.0	5.0	3.0	10.0	7.0	7.0	0.0	-5.0	-2.0	0.0	0.0	9.0	8.0	-3.0	6.0	4.0	3.0	10.0	2.0	7.0	-1.0	2.0
1140	72.505	17.67	5.33	4.33	3.33	0.33	10.33	15.33	11.33	7.33	2.33	4.33	15.33	9.33	3.33	14.33	7.33	9.33	11.33	11.33	24.33	11.33	5.33	13.33	12.33	5.33	13.33	4.33
1147	72.955	28.0	7.0	6.0	8.0	10.0	7.0	4.0	11.0	14.0	13.0	16.0	15.0	10.0	9.0	9.0	-1.0	2.0	3.0	6.0	3.0	7.0	9.0	-3.0	9.0	10.0	6.0	8.0
1154	73.405	19.0	6.0	10.0	7.0	11.0	23.0	17.0	13.0	13.0	7.0	2.0	14.0	19.0	16.0	11.0	12.0	16.0	6.0	11.0	1.0	13.0	9.0	6.0	4.0	4.0	10.0	17.0
1161	73.855	13.0	10.0	5.0	8.0	22.0	14.0	7.0	7.0	8.0	10.0	11.0	3.0	2.0	12.0	8.0	8.0	10.0	17.0	6.0	21.0	11.0	13.0	6.0	6.0	13.0	7.0	13.0
1168	74.306	12.0	9.0	7.0	2.0	16.0	15.0	19.0	13.0	3.0	10.0	6.0	9.0	12.0	18.0	16.0	14.0	8.0	7.0	5.0	11.0	14.0	6.0	12.0	10.0	14.0	15.0	16.0
1175	74.756	28.67	-0.67	-4.67	1.33	8.33	5.33	11.33	-1.67	-5.67	3.33	14.33	6.33	1.33	2.33	18.33	7.33	10.33	2.33	-1.67	4.33	4.33	2.33	-3.67	2.33	6.33	4.33	9.33
1182	75.207	36.0	23.0	4.0	11.0	0.0	8.0	22.0	18.0	21.0	17.0	17.0	24.0	25.0	14.0	30.0	19.0	13.0	5.0	7.0	22.0	10.0	3.0	27.0	35.0	19.0	32.0	5.0
1189	75.658	24.33	7.67	9.67	19.67	7.67	8.67	6.67	5.67	12.67	12.67	14.67	4.67	16.67	14.67	9.67	15.67	16.67	6.67	5.67	15.67	7.67	11.67	10.67	23.67	11.67	19.67	16.67
1196	76.109	10.67	2.33	8.33	7.33	14.33	12.33	7.33	5.33	10.33	16.33	20.33	22.33	6.33	14.33	15.33	11.33	14.33	10.33	17.33	8.33	12.33	11.33	13.33	17.33	14.33	14.33	12.33
1203	76.56	10.67	7.33	14.33	15.33	5.33	8.33	12.33	7.33	18.33	9.33	4.33	11.33	12.33	4.33	10.33	11.33	16.33	11.33	12.33	14.33	9.33	8.33	5.33	11.33	13.33	6.33	3.33
1210	77.011	10.33	4.67	13.67	7.67	18.67	16.67	15.67	6.67	17.67	17.67	6.67	5.67	5.67	8.67	6.67	13.67	2.67	7.67	12.67	12.67	7.67	8.67	14.67	3.67	8.67	15.67	9.67
1217	77.463	10.33	9.67	14.67	7.67	11.67	13.67	13.67	11.67	11.67	17.67	15.67	12.67	14.67	17.67	13.67	15.67	15.67	12.67	13.67	9.67	10.67	17.67	17.67	5.67	2.67	12.67	14.67
1224	77.915	11.0	6.0	16.0	11.0	9.0	12.0	5.0	9.0	9.0	4.0	14.0	9.0	8.0	12.0	6.0	11.0	5.0	16.0	10.0	14.0	16.0	6.0	8.0	9.0	19.0	12.0	9.0
1231	78.366	14.0	2.0	3.0	12.0	14.0	6.0	16.0	10.0	10.0	3.0	7.0	3.0	14.0	7.0	13.0	5.0	8.0	14.0	5.0	6.0	16.0	13.0	12.0	10.0	4.0	8.0	1.0
1238	78.818	11.67	2.33	8.33	17.33	6.33	15.33	12.33	14.33	25.33	21.33	11.33	10.33	7.33	11.33	6.33	11.33	7.33	3.33	21.33	10.33	18.33	21.33	10.33	7.33	12.33	14.33	12.33
1245	79.271	13.33	0.67	10.67	13.67	16.67	14.67	9.67	11.67	8.67	9.67	13.67	12.67	8.67	9.67	8.67	13.67	11.67	13.67	9.67	7.67	17.67	6.67	13.67	7.67	5.67	18.67	9.67
1252	79.723	11.67	9.33	10.33	14.33	14.33	9.33	12.33	11.33	13.33	12.33	13.33	9.33	9.33	17.33	14.33	16.33	6.33	9.33	14.33	11.33	14.33	6.33	13.33	17.33	6.33	18.33	16.33
1259	80.175	15.33	9.67	4.67	13.67	5.67	15.67	11.67	14.67	-1.33	8.67	12.67	1.67	7.67	15.67	6.67	11.67	8.67	14.67	14.67	4.67	5.67	19.67	5.67	14.67	14.67	5.67	11.67
1266	80.628	14.0	12.0	12.0	24.0	8.0	9.0	13.0	17.0	13.0	26.0	8.0	11.0	5.0	10.0	11.0	19.0	19.0	12.0	15.0	15.0	7.0	13.0	16.0	9.0	9.0	8.0	6.0
1273	81.081	18.0	3.0	10.0	12.0	17.0	12.0	4.0	24.0	8.0	12.0	5.0	5.0	16.0	11.0	26.0	6.0	11.0	8.0	9.0	18.0	10.0	7.0	17.0	9.0	11.0	14.0	11.0
1280	81.534	15.67	15.33	19.33	18.33	13.33	14.33	18.33	17.33	10.33	18.33	12.33	23.33	23.33	5.33	19.33	26.33	21.33	25.33	14.33	31.33	16.33	13.33	16.33	9.33	22.33	8.33	14.33
1287	81.987	17.33	7.67	12.67	26.67	25.67	19.67	12.67	24.67	8.67	13.67	15.67	22.67	22.67	24.67	26.67	18.67	5.67	10.67	20.67	15.67	11.67	8.67	19.67	11.67	21.67	12.67	10.67
1294	82.441	17.33	27.67	42.67	44.67	38.67	42.67	28.67	41.67	23.67	24.67	45.67	22.67	18.67	23.67	23.67	35.67	27.67	34.67	22.67	36.67	19.67	22.67	28.67	14.67	16.67	27.67	31.67
1301	82.894	15.67	68.33	116.33	103.33	132.33	104.33	117.33	89.33	88.33	76.33	66.33	72.33	50.33	51.33	47.33	45.33	48.33	49.33	52.33	42.33	57.33	40.33	63.33	44.33	50.33	51.33	36.33
1308	83.348	18.67	118.33	190.33	201.33	214.33	199.33	204.33	164.33	152.33	149.33	132.33	127.33	97.33	86.33	114.33	74.33	92.33	97.33	73.33	70.33	76.33	83.33	74.33	87.33	77.33	65.33	76.33
1315	83.802	16.67	148.33	237.33	270.33	266.33	269.33	257.33	217.33	180.33	171.33	158.33	168.33	129.33	119.33	107.33	130.33	116.33	106.33	99.33	113.33	97.33	112.33	90.33	88.33	108.33	72.33	93.33
1322	84.256	22.33	117.67	249.67	216.67	236.67	196.67	194.67	173.67	172.67	159.67	143.67	161.67	129.67	107.67	127.67	92.67	81.67	87.67	105.67	97.67	81.67	85.67	80.67	90.67	85.67	61.67	101.67
1329	84.71	31.67	56.33	158.33	115.33	128.33	110.33	111.33	97.33	77.33	81.33	83.33	73.33	50.33	69.33	57.33	35.33	48.33	65.33	48.33	50.33	33.33	54.33	38.33	36.33	49.33	58.33	45.33
1336	85.165	31.33	31.67	45.67	53.67	39.67	46.67	44.67	38.67	31.67	39.67	32.67	29.67	25.67	22.67	24.67	36.67	23.67	23.67	14.67	6.67	34.67	14.67	32.67	19.67	35.67	20.67	24.67
1343	85.619	33.33	4.67	20.67	8.67	8.67	9.67	8.67	21.67	24.67	10.67	13.67	9.67	7.67	-1.33	13.67	19.67	1.67	0.67	11.67	-1.33	4.67	0.67	14.67	15.67	9.67	-1.33	19.67
1350	86.074	20.67	1.33	13.33	15.33	19.33	12.33	13.33	10.33	26.33	13.33	8.33	8.33	12.33	5.33	21.33	14.33	6.33	3.33	14.33	14.33	12.33	13.33	13.33	5.33	9.33	4.33	5.33
1357	86.529	20.0	-1.0	12.0	11.0	12.0	13.0	7.0	23.0	23.0	3.0	22.0	12.0	24.0	13.0	13.0	14.0	15.0	23.0	18.0	19.0	19.0	22.0	8.0	5.0	9.0	11.0	22.0
1364	86.985	21.67	8.33	20.33	16.33	12.33	17.33	12.33	16.33	7.33	16.33	15.33	13.33	9.33	9.33	9.33	14.33	16.33	37.33	13.33	9.33	6.33	12.33	3.33	7.33	13.33	5.33	15.33
1371	87.44	25.33	0.67	-4.33	16.67	6.67	-3.33	17.67	1.67	11.67	17.67	8.67	6.67	12.67	15.67	10.67	9.67	-1.33	6.67	4.67	7.67	14.67	17.67	17.67	13.67	5.67	5.67	6.67
1378	87.896	24.0	7.0	11.0	19.0	19.0	7.0	19.0	11.0	16.0	9.0	29.0	13.0	23.0	22.0	22.0	23.0	7.0	13.0	10.0	27.0	10.0	21.0	17.0	19.0	12.0	3.0	20.0
1385	88.352	23.67	-5.67	13.33	19.33	19.33	15.33	19.33	15.33	5.33	12.33	6.33	-3.67	12.33	11.33	12.33	5.33	13.33	13.33	7.33	25.33	13.33	8.33	14.33	3.33	2.33	9.33	15.33
1392	88.808	25.0	3.0	6.0	8.0	4.0	23.0	2.0	14.0	2.0	17.0	15.0	21.0	1.0	8.0	3.0	9.0	10.0	11.0	6.0	13.0	-3.0	5.0	14.0	16.0	10.0	12.0	13.0
1399	89.264	23.0	12.0	2.0	14.0	5.0	4.0	2.0	16.0	10.0	17.0	11.0	7.0	9.0	22.0	7.0	14.0	10.0	8.0	27.0	7.0	9.0	7.0	12.0	8.0	7.0	20.0	10.0
1406	89.72	27.33	-0.33	12.67	7.67	5.67	14.67	2.67	11.67	6.67	5.67	-2.33	5.67	-1.33	5.67	10.67	6.67	4.67	11.67	14.67	5.67	11.67	15.67	9.67	-0.33	15.67	3.67	14.67
1413	90.177	27.0	15.0	15.0	11.0	14.0	7.0	11.0	8.0	3.0	12.0	7.0	11.0	2.0	6.0	25.0	16.0	23.0	1.0	3.0	2.0	0.0	0.0	12.0	15.0	14.0	15.0	9.0
1420	90.634	26.0	17.0	-6.0	18.0	0.0	5.0	6.0	2.0	11.0	15.0	0.0	10.0	2.0	0.0	12.0	12.0	8.0	4.0	3.0	16.0	-3.0	28.0	12.0	11.0	15.0	12.0	3.0
1427	91.091	25.0	5.0	5.0	2.0	3.0	12.0	12.0	17.0	11.0	11.0	12.0	21.0	11.0	17.0	12.0	15.0	12.0	17.0	9.0	17.0	7.0	17.0	15.0	19.0	15.0	8.0	14.0
1434	91.549	29.67	-5.67	4.33	10.33	10.33	-4.67	13.33	-1.67	10.33	-3.67	6.33	-6.67	8.33	9.33	0.33	-1.67	4.33	-2.67	9.33	3.33	7.33	15.33	1.33	11.33	12.33	4.33	17.33
1441	92.006	25.33	5.67	-1.33	5.67	6.67	10.67	9.67	4.67	4.67	2.67	5.67	3.67	5.67	13.67	8.67	19.67	4.67	2.67	7.67	18.67	17.67	17.67	14.67	12.67	16.67	10.67	18.67
1448	92.464	31.33	0.67	-0.33	3.67	3.67	5.67	-5.33	0.67	10.67	0.67	4.67	8.67	6.67	6.67	4.67	0.67	4.67	-2.33	16.67	-1.33	19.67	-0.33	2.67	10.67	6.67	10.67	-0.33
1455	92.922	24.33	13.67	13.67	20.67	13.67	13.67	11.67	22.67	3.67	13.67	16.67	16.67	7.67	0.67	10.67	9.67	9.67	17.67	12.67	18.67	14.67	21.67	6.67	10.67	4.67	20.67	11.67
1462	93.38	34.33	8.67	0.67	3.67	2.67	5.67	12.67	-1.33	-4.33	-6.33	6.67	-2.33	0.67	-1.33	-1.33	-8.33	-6.33	2.67	-3.33	-1.33	-1.33	-10.33	-1.33	-4.33	-6.33	1.67	-5.33
1469	93.839	34.33	2.67	-0.33	7.67	-14.33	9.67	-2.33	-10.33	9.67	5.67	0.67	-3.33	11.67	1.67	-8.33	4.67	15.67	-1.33	2.67	-0.33	12.67	1.67	10.67	2.67	7.67	-5.33	4.67
1476	94.297	27.67	0.33	12.33	9.33	15.33	2.33	10.33	11.33	9.33	2.33	15.33	11.33	15.33	2.33	-3.67	12.33	13.33	2.33	5.33	11.33	3.33	4.33	10.33	19.33	6.33	9.33	6.33
1483	94.756	37.0	-1.0	11.0	-5.0	-7.0	6.0	1.0	11.0	2.0	-6.0	-4.0	-5.0	5.0	3.0	-1.0	10.0	8.0	-5.0	-1.0	7.0	1.0	1.0	-4.0	-2.0	15.0	7.0	-12.0
1490	95.215	31.0	7.0	4.0	9.0	2.0	8.0	6.0	12.0	12.0	3.0	6.0	8.0	7.0	6.0	16.0	0.0	1.0	5.0	1.0	14.0	8.0	-3.0	7.0	3.0	2.0	23.0	11.0
1497	95.675	29.33	-2.33	14.67	20.67	7.67	14.67	20.67	10.67	11.67	9.67	5.67	8.67	7.67	19.67	11.67	23.67	1.67	9.67	9.67	26.67	7.67	24.67	18.67	12.67	16.67	8.67	6.67
1504	96.134	29.33	0.67	8.67	10.67	6.67	1.67	9.67	13.67	7.67	5.67	9.67	18.67	24.67	5.67	9.67	11.67	14.67	19.67	16.67	26.67	6.67	4.67	15.67	26.67	5.67	19.67	25.67
1511	96.594	32.0	3.0	4.0	9.0	6.0	19.0	10.0	2.0	17.0	15.0	6.0	14.0	27.0	15.0	21.0	34.0	26.0	21.0	9.0	13.0	14.0	20.0	21.0	19.0	23.0	34.0	23.0
1518	97.054	32.0	9.0	16.0	12.0	12.0	11.0	5.0	5.0	13.0	22.0	7.0	18.0	30.0	21.0	54.0	21.0	30.0	28.0	41.0	23.0	33.0	20.0	29.0	25.0	41.0	26.0	33.0
1525	97.514	29.67	7.33	7.33	16.33	3.33	13.33	16.33	17.33	9.33	10.33	7.33	29.33	20.33	34.33	30.33	27.33	36.33	29.33	41.33	37.33	30.33	35.33	24.33	24.33	33.33	34.33	34.33
1532	97.975	26.67	13.33	5.33	23.33	8.33	10.33	6.33	16.33	14.33	12.33	26.33	17.33	20.33	24.33	27.33	17.33	35.33	13.33	32.33	36.33	43.33	15.33	10.33	12.33	27.33	24.33	25.33
1539	98.436	31.0	-2.0	11.0	4.0	6.0	4.0	8.0	21.0	12.0	4.0	11.0	1.0	32.0	10.0	26.0	5.0	18.0	6.0	17.0	20.0	18.0	17.0	15.0	23.0	16.0	7.0	17.0
1546	98.897	27.67	3.33	16.33	5.33	20.33	11.33	11.33	10.33	14.33	11.33	17.33	9.33	17.33	6.33	24.33	6.33	11.33	10.33	16.33	10.33	17.33	13.33	8.33	14.33	18.33	13.33	16.33
1553	99.358	34.67	-8.67	13.33	-9.67	-0.67	-2.67	0.33	-2.67	9.33	1.33	2.33	13.33	17.33	12.33	13.33	11.33	15.33	14.33	-4.67	-1.67	0.33	4.33	4.33	15.33	-4.67	19.33	14.33
1560	99.82	28.67	1.33	4.33	8.33	13.33	15.33	12.33	4.33	7.33	16.33	3.33	11.33	5.33	0.33	12.33	17.33	14.33	20.33	10.33	19.33	8.33	17.33	7.33	12.33	14.33	6.33	17.33
1567	100.281	34.33	-1.33	2.67	21.67	-1.33	7.67	0.67	-6.33	5.67	2.67	2.67	4.67	-3.33	6.67	19.67	2.67	-1.33	-5.33	2.67	9.67	0.67	0.67	3.67	19.67	9.67	24.67	-2.33
1574	100.743	30.67	14.33	8.33	0.33	7.33	7.33	12.33	-1.67	2.33	12.33	8.33	18.33	2.33	5.33	-3.67	8.33	10.33	9.33	5.33	11.33	11.33	8.33	11.33	4.33	10.33	11.33	1.33
1581	101.206	37.33	-2.33	-1.33	-0.33	13.67	1.67	8.67	-7.33	-2.33	9.67	0.67	5.67	-0.33	-2.33	-6.33	-0.33	6.67	4.67	-4.33	1.67	0.67	2.67	-4.33	8.67	2.67	0.67	-9.33
1588	101.668	39.33	1.67	-5.33	-4.33	-0.33	-4.33	4.67	5.67	7.67	2.67	-9.33	0.67	-2.33	-4.33	-5.33	-6.33	11.67	6.67	-0.33	-9.33	-2.33	-2.33	4.67	-1.33	-4.33	16.67	-2.33
1595	102.131	31.67	-4.67	10.33	7.33	13.33	15.33	9.33	11.33	8.33	10.33	17.33	11.33	4.33	6.33	7.33	11.33	18.33	11.33	0.33	9.33	3.33	18.33	16.33	11.33	6.33	-0.67	2.33
1602	102.594	33.33	9.67	13.67	10.67	14.67	16.67	19.67	15.67	12.67	7.67	7.67	15.67	15.67	-0.33	11.67	7.67	13.67	-1.33	9.67	17.67	7.67	6.67	-6.33	7.67	-1.33	-0.33	6.67
1609	103.057	31.33	5.67	11.67	15.67	15.67	18.67	14.67	9.67	20.67	12.67	6.67	18.67	16.67	-1.33	13.67	10.67	9.67	4.67	11.67	-0.33	11.67	-1.33	6.67	2.67	7.67	8.67	5.67
1616	103.521	30.0	2.0	10.0	19.0	7.0	12.0	7.0	15.0	8.0	1.0	10.0	12.0	2.0	1.0	13.0	11.0	8.0	12.0	-2.0	7.0	11.0	2.0	6.0	7.0	4.0	11.0	14.0
1623	103.985	28.33	9.67	13.67	8.67	2.67	18.67	10.67	16.67	9.67	4.67	-5.33	6.67	14.67	9.67	-1.33	9.67	-0.33	12.67	-1.33	4.67	4.67	8.67	5.67	-2.33	1.67	13.67	8.67
1630	104.449	24.67	3.33	2.33	10.33	18.33	17.33	9.33	10.33	4.33	21.33	8.33	9.33	-1.67	-2.67	4.33	6.33	8.33	12.33	10.33	14.33	7.33	19.33	6.33	1.33	9.33	-0.67	11.33
1637	104.913	32.0	-4.0	-4.0	-1.0	14.0	3.0	2.0	0.0	9.0	5.0	-2.0	2.0	1.0	1.0	-5.0	0.0	3.0	15.0	7.0	8.0	5.0	8.0	0.0	9.0	7.0	4.0	-1.0
1644	105.378	32.0	1.0	7.0	3.0	2.0	9.0	-2.0	-4.0	0.0	3.0	4.0	5.0	5.0	-1.0	9.0	1.0	9.0	12.0	3.0	-7.0	2.0	-4.0	-1.0	-8.0	17.0	-6.0	-3.0
1651	105.843	25.0	6.0	9.0	0.0	17.0	3.0	9.0	10.0	10.0	7.0	1.0	13.0	12.0	7.0	22.0	8.0	-2.0	6.0	6.0	13.0	1.0	5.0	9.0	11.0	2.0	2.0	2.0
1658	106.308	24.67	9.33	11.33	4.33	2.33	5.33	9.33	-3.67	13.33	13.33	1.33	10.33	6.33	-1.67	6.33	-3.67	15.33	14.33	13.33	14.33	16.33	11.33	9.33	10.33	8.33	4.33	9.33
1665	106.773	27.33	3.67	-7.33	6.67	-6.33	6.67	7.67	9.67	3.67	6.67	2.67	-6.33	2.67	-8.33	11.67	7.67	14.67	-3.33	9.67	7.67	4.67	6.67	5.67	6.67	9.67	0.67	4.67
1672	107.239	27.0	5.0	-5.0	-4.0	2.0	1.0	-2.0	3.0	3.0	0.0	8.0	-1.0	16.0	1.0	9.0	-1.0	6.0	5.0	0.0	10.0	4.0	4.0	16.0	-2.0	8.0	12.0	-4.0
1679	107.705	23.67	-0.67	-0.67	9.33	-2.67	4.33	-1.67	4.33	-1.67	-2.67	8.33	6.33	4.33	8.33	6.33	10.33	10.33	13.33	0.33	10.33	11.33	7.33	-1.67	-4.67	0.33	8.33	-2.67
1686	108.171	28.0	6.0	-8.0	-6.0	-7.0	-3.0	4.0	3.0	0.0	3.0	5.0	0.0	2.0	-5.0	-4.0	-5.0	2.0	-7.0	6.0	10.0	-3.0	4.0	7.0	6.0	8.0	1.0	0.0
1693	108.638	25.33	0.67	3.67	8.67	-2.33	1.67	3.67	9.67	2.67	-2.33	1.67	-0.33	0.67	6.67	-1.33	18.67	-3.33	7.67	5.67	-3.33	9.67	-3.33	4.67	-2.33	3.67	-4.33	-3.33
1700	109.105	20.67	3.33	10.33	4.33	3.33	7.33	1.33	18.33	7.33	13.33	2.33	2.33	7.33	16.33	4.33	8.33	5.33	7.33	6.33	12.33	8.33	3.33	12.33	5.33	6.33	7.33	4.33
1707	109.572	25.33	6.67	-5.33	1.67	-0.33	-7.33	-5.33	5.67	-2.33	1.67	3.67	6.67	-1.33	-5.33	13.67	-0.33	12.67	-1.33	0.67	1.67	4.67	5.67	3.67	6.67	2.67	2.67	4.67
1714	110.039	21.67	0.33	6.33	3.33	14.33	4.33	15.33	8.33	11.33	2.33	-1.67	-3.67	11.33	1.33	9.33	3.33	10.33	8.33	6.33	1.33	11.33	11.33	3.33	5.33	6.33	0.33	-1.67
1721	110.507	26.33	8.67	5.67	5.67	-4.33	-2.33	1.67	-4.33	2.67	-3.33	4.67	-0.33	0.67	-1.33	9.67	-1.33	-7.33	-5.33	-10.33	-3.33	-0.33	-2.33	4.67	-7.33	5.67	4.67	5.67
1728	110.975	26.67	-1.67	2.33	3.33	0.33	-6.67	7.33	-1.67	3.33	-2.67	9.33	-4.67	-3.67	-3.67	13.33	2.33	-5.67	0.33	-0.67	0.33	0.33	6.33	9.33	6.33	2.33	-2.67	-6.67
1735	111.443	23.0	-3.0	5.0	8.0	-3.0	5.0	-5.0	-4.0	5.0	6.0	12.0	9.0	-1.0	11.0	4.0	-5.0	0.0	2.0	10.0	7.0	1.0	10.0	9.0	1.0	2.0	2.0	10.0
1742	111.912	20.33	5.67	13.67	25.67	16.67	4.67	5.67	16.67	10.67	9.67	6.67	11.67	0.67	3.67	15.67	-1.33	14.67	13.67	-7.33	7.67	3.67	6.67	9.67	10.67	6.67	8.67	6.67
1749	112.38	23.67	-1.67	10.33	-2.67	2.33	3.33	3.33	8.33	1.33	15.33	6.33	-0.67	12.33	-2.67	3.33	10.33	5.33	1.33	6.33	0.33	3.33	-1.67	9.33	10.33	8.33	5.33	-0.67
1756	112.85	18.0	12.0	20.0	3.0	7.0	20.0	6.0	12.0	13.0	11.0	9.0	4.0	6.0	0.0	5.0	16.0	8.0	10.0	4.0	17.0	10.0	15.0	15.0	10.0	13.0	1.0	10.0
1763	113.319	17.0	8.0	16.0	17.0	11.0	19.0	8.0	8.0	10.0	13.0	11.0	5.0	7.0	9.0	12.0	7.0	12.0	6.0	10.0	12.0	1.0	9.0	1.0	3.0	11.0	15.0	10.0
1770	113.789	23.0	-3.0	0.0	0.0	-2.0	-4.0	2.0	5.0	-1.0	-6.0	4.0	4.0	-6.0	-7.0	-6.0	6.0	-1.0	-1.0	10.0	-5.0	2.0	-2.0	-1.0	0.0	-4.0	-4.0	-13.0
1777	114.259	18.0	0.0	-3.0	3.0	-2.0	0.0	9.0	0.0	5.0	1.0	4.0	1.0	10.0	0.0	8.0	0.0	2.0	8.0	0.0	11.0	5.0	7.0	9.0	5.0	3.0	1.0	-3.0
1784	114.729	20.67	-0.67	-0.67	0.33	1.33	-3.67	-1.67	2.33	-3.67	2.33	-4.67	-8.67	4.33	8.33	1.33	-5.67	0.33	0.33	5.33	7.33	3.33	0.33	3.33	-4.67	6.33	2.33	1.33
1791	115.2	20.0	-8.0	0.0	-7.0	4.0	4.0	-3.0	12.0	4.0	3.0	-1.0	1.0	0.0	2.0	-3.0	-1.0	6.0	-5.0	-3.0	-11.0	-5.0	3.0	-1.0	-2.0	0.0	-3.0	5.0
1798	115.671	20.33	-6.33	3.67	-6.33	5.67	-2.33	0.67	-3.33	2.67	-3.33	-2.33	-0.33	-2.33	-3.33	0.67	9.67	0.67	-2.33	7.67	6.67	0.67	4.67	2.67	0.67	-2.33	0.67	2.67
1805	116.142	19.0	-3.0	-4.0	-1.0	4.0	-9.0	7.0	0.0	3.0	1.0	0.0	0.0	-2.0	-1.0	4.0	-4.0	5.0	4.0	-2.0	5.0	3.0	-2.0	-6.0	3.0	-3.0	-2.0	-2.0
1812	116.614	20.33	-3.33	-2.33	-4.33	-3.33	-7.33	14.67	-1.33	-3.33	2.67	0.67	-0.33	-7.33	-4.33	3.67	1.67	-0.33	-0.33	-0.33	-4.33	-1.33	3.67	-0.33	-6.33	4.67	0.67	-1.33
1819	117.086	17.67	3.33	-0.67	-5.67	-0.67	2.33	8.33	2.33	-3.67	1.33	9.33	8.33	-1.67	3.33	-8.67	-0.67	0.33	-3.67	4.33	2.33	7.33	0.33	6.33	-5.67	-4.67	2.33	2.33
1826	117.558	15.0	-2.0	-3.0	0.0	6.0	2.0	1.0	1.0	4.0	0.0	6.0	3.0	1.0	4.0	-1.0	0.0	0.0	-3.0	11.0	-1.0	6.0	4.0	7.0	8.0	-4.0	3.0	9.0
1833	118.03	14.67	13.33	9.33	3.33	7.33	-2.67	2.33	5.33	2.33	4.33	-2.67	6.33	5.33	1.33	3.33	0.33	9.33	1.33	-1.67	1.33	7.33	5.33	5.33	1.33	5.33	4.33	0.33
1840	118.503	11.0	5.0	9.0	11.0	8.0	9.0	4.0	3.0	6.0	-1.0	8.0	8.0	7.0	2.0	8.0	5.0	11.0	3.0	5.0	5.0	-2.0	-1.0	15.0	-2.0	10.0	3.0	5.0
1847	118.976	15.67	-1.67	-0.67	0.33	4.33	-0.67	0.33	-4.67	1.33	2.33	-3.67	-3.67	-3.67	-3.67	2.33	4.33	2.33	-2.67	1.33	-7.67	-4.67	-2.67	6.33	-2.67	-6.67	2.33	1.33
1854	119.45	13.33	2.67	-5.33	-0.33	1.67	-1.33	-1.33	1.67	0.67	4.67	7.67	2.67	5.67	-1.33	2.67	-3.33	4.67	8.67	5.67	2.67	4.67	1.67	3.67	-3.33	-1.33	6.67	0.67
1861	119.924	13.0	6.0	-2.0	-4.0	1.0	7.0	6.0	4.0	6.0	2.0	6.0	6.0	6.0	7.0	3.0	4.0	0.0	2.0	-2.0	2.0	4.0	5.0	-3.0	6.0	0.0	5.0	-3.0
1868	120.398	14.67	-1.67	1.33	-1.67	-2.67	4.33	7.33	-2.67	-1.67	-0.67	-0.67	0.33	-0.67	-0.67	0.33	5.33	1.33	4.33	-6.67	-0.67	8.33	3.33	6.33	0.33	6.33	-6.67	7.33
1875	120.872	11.67	5.33	-1.67	3.33	0.33	0.33	2.33	7.33	6.33	-0.67	4.33	-2.67	-2.67	2.33	6.33	8.33	-1.67	4.33	-0.67	-0.67	5.33	4.33	-1.67	3.33	0.33	4.33	10.33
1882	121.347	9.67	2.33	16.33	7.33	3.33	5.33	11.33	-0.67	10.33	5.33	2.33	7.33	7.33	2.33	2.33	-0.67	3.33	4.33	-0.67	2.33	9.33	12.33	5.33	4.33	2.33	8.33	9.33
1889	121.822	11.33	2.67	6.67	0.67	-2.33	5.67	2.67	4.67	6.67	3.67	0.67	-0.33	11.67	1.67	8.67	17.67	3.67	-4.33	6.67	6.67	-1.33	3.67	11.67	0.67	1.67	6.67	0.67
1896	122.298	14.33	6.67	6.67	-1.33	-0.33	3.67	-0.33	6.67	4.67	-0.33	-1.33	-0.33	-4.33	1.67	-0.33	-3.33	-1.33	-3.33	-1.33	3.67	-2.33	6.67	8.67	8.67	-4.33	-0.33	5.67
1903	122.773	13.33	0.67	2.67	5.67	7.67	12.67	11.67	5.67	15.67	6.67	3.67	5.67	5.67	0.67	3.67	1.67	5.67	3.67	2.67	5.67	-4.33	8.67	1.67	3.67	6.67	-3.33	3.67
1910	123.25	9.67	2.33	9.33	0.33	16.33	3.33	9.33	5.33	7.33	6.33	6.33	8.33	11.33	12.33	3.33	3.33	5.33	11.33	0.33	1.33	0.33	15.33	8.33	4.33	7.33	4.33	10.33
1917	123.726	12.33	5.67	8.67	4.67	4.67	6.67	4.67	14.67	1.67	4.67	-1.33	-3.33	4.67	1.67	1.67	5.67	5.67	2.67	4.67	0.67	0.67	1.67	-1.33	0.67	11.67	7.67	5.67
1924	124.203	13.33	3.67	1.67	-7.33	-4.33	1.67	-1.33	-0.33	4.67	-0.33	1.67	1.67	0.67	-0.33	3.67	4.67	0.67	-6.33	5.67	-2.33	3.67	3.67	-0.33	5.67	3.67	5.67	6.67
1931	124.68	12.0	-4.0	1.0	-4.0	3.0	-3.0	1.0	1.0	-3.0	4.0	1.0	3.0	-3.0	0.0	-4.0	3.0	0.0	2.0	0.0	0.0	1.0	15.0	2.0	2.0	-4.0	3.0	3.0
1938	125.158	9.33	-1.33	-0.33	3.67	7.67	8.67	3.67	4.67	0.67	2.67	-0.33	5.67	1.67	2.67	9.67	1.67	1.67	1.67	9.67	7.67	3.67	0.67	6.67	5.67	0.67	0.67	4.67
1945	125.635	12.0	-4.0	-7.0	3.0	-1.0	3.0	-1.0	-2.0	-3.0	-1.0	-1.0	-1.0	-9.0	2.0	5.0	1.0	-4.0	2.0	6.0	1.0	-5.0	-1.0	-1.0	3.0	0.0	5.0	1.0
1952	126.114	11.33	4.67	-1.33	-2.33	-1.33	1.67	1.67	-2.33	0.67	2.67	5.67	2.67	-0.33	-0.33	1.67	2.67	9.67	-0.33	1.67	3.67	-2.33	1.67	-3.33	6.67	-0.33	-0.33	1.67
1959	126.592	11.67	-6.67	-0.67	0.33	-3.67	-2.67	-4.67	1.33	-6.67	-2.67	-1.67	3.33	0.33	5.33	2.33	-1.67	3.33	3.33	-1.67	2.33	-0.67	3.33	2.33	2.33	-5.67	-2.67	-2.67
1966	127.071	12.0	0.0	-4.0	-1.0	-3.0	-3.0	-4.0	4.0	-5.0	1.0	-6.0	0.0	0.0	-2.0	-4.0	-6.0	-1.0	5.0	1.0	-1.0	-4.0	0.0	0.0	-6.0	2.0	-3.0	1.0
1973	127.55	8.67	3.33	4.33	-1.67	1.33	7.33	-0.67	4.33	1.33	2.33	3.33	0.33	6.33	2.33	3.33	3.33	-0.67	-0.67	2.33	-0.67	-0.67	-0.67	4.33	-2.67	1.33	-3.67	9.33
1980	128.03	6.67	-0.67	5.33	3.33	3.33	3.33	9.33	3.33	5.33	7.33	-2.67	7.33	2.33	2.33	2.33	0.33	6.33	4.33	3.33	8.33	0.33	5.33	6.33	2.33	6.33	3.33	1.33
1987	128.51	8.67	5.33	-0.67	-2.67	1.33	3.33	-4.67	-1.67	-0.67	1.33	-3.67	0.33	8.33	-0.67	6.33	1.33	2.33	-0.67	-3.67	6.33	4.33	3.33	-0.67	7.33	-1.67	-1.67	0.33
1994	128.99	9.67	5.33	-4.67	-2.67	5.33	-0.67	-0.67	-1.67	1.33	-6.67	-0.67	1.33	7.33	-3.67	2.33	-5.67	3.33	-2.67	-0.67	4.33	9.33	-0.67	4.33	2.33	-0.67	-1.67	-3.67
2001	129.471	6.33	2.67	3.67	1.67	3.67	3.67	3.67	4.67	4.67	6.67	1.67	1.67	4.67	6.67	-2.33	7.67	-1.33	-0.33	-1.33	5.67	9.67	5.67	10.67	4.67	6.67	8.67	-1.33
2008	129.952	8.67	-0.67	2.33	3.33	-1.67	0.33	-2.67	2.33	1.33	1.33	-0.67	0.33	-2.67	-0.67	3.33	-0.67	-0.67	0.33	-0.67	-2.67	1.33	1.33	0.33	-4.67	0.33	6.33	-2.67
2015	130.433	10.67	7.33	-0.67	-3.67	4.33	-3.67	-2.67	3.33	3.33	4.33	0.33	-1.67	-4.67	1.33	-1.67	-4.67	0.33	-0.67	-4.67	-2.67	-0.67	0.33	4.33	0.33	-0.67	-1.67	5.33
2022	130.915	10.33	2.67	-2.33	3.67	4.67	1.67	-4.33	-0.33	1.67	-1.33	-4.33	1.67	-6.33	0.67	-3.33	0.67	-5.33	-3.33	-0.33	0.67	-0.33	3.67	-1.33	1.67	-0.33	-4.33	-1.33
2029	131.397	6.0	-1.0	6.0	-2.0	3.0	3.0	3.0	1.0	6.0	7.0	6.0	3.0	6.0	-4.0	5.0	1.0	0.0	2.0	3.0	0.0	-1.0	10.0	5.0	5.0	9.0	4.0	3.0
2036	131.879	8.33	0.67	-1.33	1.67	-1.33	0.67	-2.33	-3.33	-2.33	-2.33	1.67	-3.33	3.67	2.67	-0.33	-0.33	4.67	4.67	1.67	-0.33	0.67	-0.33	-1.33	-3.33	1.67	0.67	2.67
2043	132.362	7.67	-5.67	3.33	1.33	-0.67	3.33	-0.67	5.33	0.33	5.33	0.33	-1.67	-3.67	5.33	-2.67	4.33	2.33	0.33	-2.67	3.33	-1.67	-0.67	2.33	4.33	1.33	2.33	6.33
2047	132.638	7.67	4.33	2.33	-1.67	-2.67	-1.67	-0.67	-0.67	-2.67	-3.67	4.33	1.33	5.33	-0.67	2.33	0.33	6.33	4.33	0.33	0.33	0.33	2.33	2.33	7.33	8.33	1.33	0.33