File: EDX Back Ups and Old Files/EDX Processed Data/High pH SF Ref.txt
Name: High pH SF Ref
Number of Scans: 29
Positions: [-13.0, -12.75, -12.5, -12.25, -12.0, -11.75, -11.5, -11.25, -11.0, -10.75, -10.5, -10.25, -10.0, -9.75, -9.5, -9.25, -9.0, -8.75, -8.5, -8.25, -8.0, -7.75, -7.5, -7.25, -7.0, -6.75, -6.5, -6.25, -6.0]
Points per Scan: 2048
Sample Edge: 3
Scans Off Sample: [0, 1, 2]
Conversion Features: [(275, 17444.3), (309, 19608.3), (913, 57981.7), (934, 59318.24), (1058, 67244.3)]
Degree of Fit: 3
Fit Coeffecients: [ 8.59183e-07 -0.001482  64.3003 -144.207]
pH: High
Steel Fiber: True
Aging Temp.: 25
Aging Atm.: 100% CO2
Aging Humidity: None
Aging Time: 0

*********
#Bins	Energy [keV]	Avg. Background	-12.25	-12.0	-11.75	-11.5	-11.25	-11.0	-10.75	-10.5	-10.25	-10.0	-9.75	-9.5	-9.25	-9.0	-8.75	-8.5	-8.25	-8.0	-7.75	-7.5	-7.25	-7.0	-6.75	-6.5	-6.25	-6.0
6	0.242	1825.0	52.0	45.0	-39.0	-47.0	-100.0	40.0	2.0	22.0	-41.0	-35.0	10.0	1.0	-18.0	46.0	-44.0	-44.0	-48.0	19.0	-4.0	69.0	-7.0	-26.0	86.0	-58.0	53.0	-41.0
13	0.691	1210.67	9.33	68.33	-11.67	5.33	43.33	42.33	50.33	12.33	-11.67	10.33	-57.67	20.33	30.33	-45.67	40.33	15.33	-2.67	35.33	62.33	-16.67	-8.67	0.33	42.33	64.33	55.33	-48.67
20	1.141	301.33	7.67	-7.33	8.67	10.67	28.67	29.67	-7.33	27.67	-5.33	38.67	21.67	38.67	44.67	32.67	-8.33	22.67	2.67	-19.33	38.67	14.67	2.67	-19.33	50.67	15.67	11.67	17.67
27	1.591	54.0	-4.0	0.0	13.0	-9.0	1.0	4.0	-10.0	-5.0	-13.0	7.0	-7.0	-10.0	-3.0	-2.0	-6.0	12.0	-7.0	-3.0	4.0	-2.0	-2.0	-9.0	0.0	4.0	12.0	14.0
34	2.04	8.0	-3.0	-1.0	-4.0	-4.0	1.0	4.0	-1.0	-4.0	5.0	-2.0	0.0	1.0	6.0	-2.0	-1.0	3.0	-4.0	-2.0	-1.0	-1.0	-5.0	1.0	1.0	-2.0	3.0	-3.0
41	2.49	0.33	0.67	0.67	1.67	0.67	0.67	-0.33	1.67	0.67	-0.33	0.67	-0.33	-0.33	-0.33	-0.33	1.67	-0.33	-0.33	-0.33	-0.33	1.67	1.67	2.67	1.67	0.67	1.67	1.67
48	2.939	0.0	0.0	0.0	1.0	0.0	0.0	0.0	0.0	1.0	1.0	0.0	0.0	0.0	0.0	2.0	0.0	0.0	0.0	0.0	0.0	1.0	1.0	1.0	1.0	0.0	0.0	0.0
55	3.388	1.0	-1.0	0.0	0.0	0.0	0.0	-1.0	-1.0	-1.0	0.0	-1.0	-1.0	0.0	-1.0	-1.0	-1.0	-1.0	-1.0	-1.0	-1.0	-1.0	0.0	-1.0	0.0	-1.0	-1.0	0.0
62	3.837	0.0	0.0	0.0	3.0	2.0	2.0	0.0	0.0	0.0	0.0	1.0	0.0	0.0	0.0	0.0	0.0	0.0	1.0	0.0	0.0	0.0	0.0	0.0	0.0	1.0	0.0	0.0
69	4.286	0.33	-0.33	0.67	-0.33	-0.33	0.67	0.67	-0.33	-0.33	-0.33	-0.33	-0.33	0.67	-0.33	1.67	0.67	-0.33	1.67	-0.33	0.67	-0.33	-0.33	0.67	0.67	-0.33	1.67	1.67
76	4.734	0.33	-0.33	-0.33	0.67	-0.33	-0.33	1.67	0.67	-0.33	-0.33	-0.33	-0.33	-0.33	-0.33	-0.33	-0.33	-0.33	-0.33	-0.33	0.67	-0.33	-0.33	0.67	-0.33	-0.33	-0.33	0.67
83	5.183	1.33	-0.33	-1.33	-1.33	-1.33	0.67	-1.33	-1.33	-0.33	-0.33	-1.33	0.67	-1.33	-1.33	-0.33	-0.33	-0.33	-1.33	-0.33	-1.33	-1.33	-1.33	0.67	-0.33	-1.33	-1.33	-0.33
90	5.631	0.0	1.0	0.0	2.0	2.0	1.0	0.0	1.0	0.0	0.0	0.0	1.0	0.0	0.0	0.0	0.0	0.0	0.0	0.0	2.0	0.0	2.0	1.0	1.0	0.0	0.0	0.0
97	6.08	0.67	-0.67	0.33	0.33	1.33	-0.67	-0.67	-0.67	-0.67	-0.67	1.33	0.33	1.33	-0.67	-0.67	-0.67	-0.67	1.33	0.33	-0.67	0.33	0.33	0.33	0.33	0.33	2.33	-0.67
104	6.528	2.0	-1.0	0.0	0.0	1.0	0.0	0.0	-1.0	-1.0	0.0	0.0	-1.0	2.0	1.0	1.0	-1.0	-1.0	-1.0	-1.0	1.0	1.0	1.0	1.0	0.0	-2.0	-1.0	-1.0
111	6.976	3.33	-1.33	-1.33	-0.33	-3.33	-2.33	-0.33	-1.33	-2.33	2.67	-0.33	-0.33	-2.33	-1.33	-1.33	1.67	-0.33	-1.33	-2.33	-0.33	-2.33	-3.33	-2.33	-1.33	-1.33	1.67	-1.33
118	7.424	2.33	2.67	0.67	0.67	0.67	0.67	-0.33	2.67	0.67	0.67	2.67	0.67	1.67	1.67	0.67	-0.33	0.67	-0.33	2.67	1.67	-0.33	-1.33	0.67	0.67	-0.33	0.67	0.67
125	7.872	4.0	1.0	-1.0	-1.0	-1.0	-2.0	2.0	1.0	3.0	1.0	0.0	3.0	6.0	3.0	1.0	-3.0	3.0	0.0	-1.0	0.0	0.0	2.0	0.0	-1.0	1.0	3.0	1.0
132	8.32	5.67	0.33	1.33	0.33	1.33	2.33	-1.67	-1.67	0.33	-3.67	6.33	4.33	-2.67	-1.67	5.33	0.33	0.33	0.33	3.33	-2.67	5.33	4.33	4.33	5.33	-1.67	-0.67	3.33
139	8.767	6.67	1.33	1.33	-0.67	0.33	0.33	-0.67	0.33	4.33	5.33	-0.67	4.33	0.33	-2.67	0.33	0.33	2.33	1.33	3.33	-2.67	0.33	-2.67	1.33	-0.67	0.33	-0.67	7.33
146	9.215	6.0	6.0	8.0	2.0	4.0	4.0	4.0	-2.0	8.0	2.0	9.0	6.0	6.0	4.0	5.0	1.0	5.0	11.0	7.0	4.0	5.0	-2.0	8.0	3.0	2.0	9.0	2.0
153	9.662	9.0	5.0	2.0	1.0	3.0	-3.0	4.0	-2.0	2.0	1.0	4.0	3.0	6.0	-2.0	3.0	2.0	6.0	3.0	0.0	3.0	2.0	5.0	5.0	4.0	7.0	-1.0	5.0
160	10.109	9.67	0.33	-1.67	1.33	-1.67	0.33	0.33	0.33	-4.67	0.33	-0.67	0.33	2.33	-2.67	5.33	1.33	2.33	1.33	6.33	-0.67	5.33	-4.67	-0.67	2.33	3.33	4.33	14.33
167	10.557	11.0	-2.0	0.0	-4.0	-2.0	2.0	6.0	-3.0	-2.0	0.0	3.0	10.0	0.0	0.0	-4.0	-2.0	-5.0	0.0	-2.0	-2.0	-2.0	3.0	3.0	5.0	-1.0	4.0	2.0
174	11.004	7.0	6.0	3.0	2.0	2.0	4.0	4.0	2.0	6.0	2.0	5.0	3.0	8.0	8.0	7.0	2.0	6.0	5.0	20.0	6.0	4.0	4.0	5.0	3.0	9.0	9.0	4.0
181	11.451	10.0	-2.0	1.0	-1.0	0.0	1.0	-2.0	-2.0	1.0	5.0	3.0	0.0	-1.0	5.0	5.0	2.0	3.0	1.0	-4.0	2.0	2.0	1.0	3.0	14.0	0.0	-2.0	5.0
188	11.898	8.33	-4.33	0.67	1.67	4.67	-2.33	2.67	0.67	12.67	3.67	-0.33	3.67	6.67	1.67	11.67	-1.33	1.67	3.67	-0.33	13.67	-2.33	1.67	2.67	3.67	0.67	3.67	0.67
195	12.344	7.0	11.0	-2.0	10.0	5.0	5.0	9.0	8.0	5.0	3.0	4.0	4.0	12.0	7.0	5.0	6.0	6.0	2.0	5.0	9.0	1.0	1.0	10.0	5.0	3.0	16.0	13.0
202	12.791	8.67	3.33	2.33	3.33	2.33	5.33	5.33	2.33	-0.67	1.33	1.33	2.33	0.33	1.33	8.33	4.33	3.33	2.33	5.33	6.33	1.33	7.33	-2.67	3.33	4.33	4.33	8.33
209	13.238	12.33	-5.33	-6.33	3.67	2.67	-1.33	4.67	0.67	-5.33	-2.33	1.67	-2.33	0.67	-3.33	-5.33	-0.33	-2.33	-3.33	-3.33	1.67	4.67	-2.33	-1.33	0.67	-6.33	0.67	1.67
216	13.684	11.33	-4.33	0.67	-1.33	1.67	-3.33	-2.33	-0.33	6.67	1.67	-0.33	1.67	3.67	5.67	4.67	0.67	0.67	4.67	-1.33	6.67	2.67	2.67	4.67	0.67	1.67	2.67	4.67
223	14.131	11.33	-4.33	-0.33	-2.33	-2.33	2.67	-1.33	-0.33	-0.33	2.67	1.67	0.67	3.67	5.67	-1.33	0.67	-0.33	4.67	5.67	2.67	-2.33	2.67	-0.33	0.67	5.67	3.67	1.67
230	14.577	8.0	5.0	2.0	6.0	1.0	0.0	1.0	5.0	0.0	3.0	5.0	8.0	2.0	5.0	4.0	0.0	6.0	3.0	0.0	4.0	-2.0	2.0	10.0	8.0	0.0	3.0	12.0
237	15.023	9.67	4.33	5.33	2.33	-5.67	-2.67	-0.67	-1.67	0.33	-3.67	3.33	3.33	0.33	-0.67	4.33	2.33	2.33	9.33	7.33	6.33	7.33	0.33	6.33	-0.67	-1.67	0.33	0.33
244	15.469	10.67	-1.67	-0.67	-5.67	3.33	0.33	-0.67	-3.67	-1.67	-3.67	1.33	-3.67	0.33	3.33	2.33	-2.67	-0.67	3.33	-3.67	5.33	2.33	1.33	1.33	0.33	3.33	-1.67	1.33
251	15.915	8.67	2.33	1.33	3.33	3.33	5.33	-2.67	-0.67	4.33	0.33	3.33	7.33	2.33	2.33	7.33	1.33	-2.67	3.33	3.33	4.33	5.33	-3.67	9.33	0.33	-0.67	6.33	2.33
258	16.361	9.67	1.33	0.33	4.33	3.33	1.33	2.33	-3.67	0.33	-2.67	0.33	-0.67	5.33	-3.67	4.33	1.33	-2.67	4.33	3.33	10.33	3.33	5.33	1.33	-0.67	-1.67	-3.67	14.33
265	16.807	9.67	-0.67	1.33	3.33	4.33	-0.67	0.33	2.33	2.33	5.33	0.33	-0.67	3.33	3.33	0.33	2.33	2.33	-2.67	1.33	10.33	-4.67	6.33	9.33	-2.67	-1.67	1.33	8.33
272	17.253	10.33	-2.33	-1.33	-1.33	-0.33	-2.33	-0.33	-0.33	6.67	-4.33	-6.33	5.67	-0.33	0.67	0.67	1.67	-0.33	2.67	0.67	4.67	1.67	6.67	-1.33	3.67	1.67	6.67	-4.33
279	17.699	8.33	6.67	1.67	-1.33	4.67	6.67	5.67	1.67	10.67	-0.33	4.67	0.67	9.67	-0.33	2.67	0.67	4.67	1.67	4.67	3.67	-1.33	3.67	0.67	5.67	4.67	-1.33	5.67
286	18.145	9.33	0.67	2.67	0.67	-2.33	-0.33	1.67	-0.33	8.67	4.67	8.67	2.67	-1.33	6.67	-1.33	-2.33	8.67	2.67	-0.33	1.67	0.67	1.67	-1.33	1.67	0.67	-3.33	4.67
293	18.59	7.67	-3.67	6.33	-0.67	-3.67	1.33	6.33	-0.67	2.33	3.33	1.33	2.33	-2.67	2.33	-5.67	-0.67	4.33	4.33	7.33	3.33	2.33	3.33	-3.67	-0.67	3.33	7.33	8.33
300	19.036	7.33	3.67	6.67	2.67	2.67	9.67	3.67	6.67	5.67	4.67	3.67	9.67	2.67	-0.33	12.67	1.67	5.67	5.67	6.67	2.67	4.67	0.67	10.67	7.67	2.67	0.67	3.67
307	19.481	8.67	5.33	2.33	2.33	-0.67	3.33	7.33	-1.67	1.33	8.33	1.33	1.33	0.33	2.33	2.33	6.33	6.33	6.33	0.33	1.33	3.33	3.33	-2.67	0.33	-1.67	0.33	3.33
314	19.927	8.33	3.67	3.67	1.67	4.67	2.67	-1.33	1.67	-1.33	18.67	3.67	2.67	6.67	7.67	1.67	6.67	0.67	5.67	3.67	-3.33	3.67	8.67	3.67	1.67	3.67	0.67	5.67
321	20.372	5.0	10.0	9.0	5.0	11.0	9.0	4.0	3.0	10.0	5.0	7.0	5.0	3.0	12.0	4.0	3.0	15.0	8.0	4.0	6.0	10.0	0.0	7.0	9.0	7.0	2.0	6.0
328	20.817	9.0	-1.0	1.0	5.0	7.0	5.0	0.0	5.0	0.0	0.0	4.0	0.0	4.0	5.0	-3.0	3.0	-4.0	4.0	-3.0	0.0	1.0	3.0	3.0	1.0	4.0	9.0	3.0
335	21.262	9.67	-0.67	-1.67	0.33	-3.67	-1.67	2.33	5.33	-6.67	-3.67	0.33	-2.67	2.33	-0.67	5.33	-0.67	1.33	8.33	-3.67	-0.67	0.33	-6.67	7.33	5.33	-0.67	3.33	-1.67
342	21.708	8.67	-0.67	1.33	-5.67	-2.67	1.33	-0.67	3.33	6.33	1.33	-0.67	-3.67	2.33	2.33	6.33	7.33	-0.67	-3.67	5.33	3.33	9.33	1.33	0.33	-0.67	5.33	1.33	2.33
349	22.153	10.67	-0.67	-1.67	1.33	-2.67	2.33	-7.67	0.33	-2.67	-1.67	0.33	-0.67	3.33	-4.67	-6.67	-1.67	-2.67	2.33	2.33	1.33	0.33	-0.67	3.33	-5.67	4.33	2.33	-5.67
356	22.598	8.33	0.67	1.67	-6.33	-1.33	2.67	2.67	0.67	3.67	-3.33	4.67	-2.33	4.67	0.67	4.67	-1.33	-2.33	2.67	2.67	1.67	2.67	-2.33	-1.33	0.67	5.67	10.67	-0.33
363	23.043	7.33	1.67	-2.33	-3.33	3.67	0.67	6.67	2.67	1.67	-2.33	3.67	4.67	0.67	-1.33	2.67	0.67	0.67	5.67	-1.33	4.67	-2.33	3.67	5.67	2.67	0.67	0.67	1.67
370	23.488	9.33	-4.33	4.67	-0.33	3.67	-1.33	-0.33	-2.33	-1.33	-0.33	-3.33	0.67	-0.33	0.67	-2.33	-3.33	-0.33	-3.33	-3.33	-3.33	2.67	-3.33	2.67	1.67	2.67	-1.33	1.67
377	23.932	7.0	0.0	-1.0	5.0	4.0	6.0	4.0	2.0	7.0	12.0	-2.0	3.0	2.0	2.0	4.0	3.0	0.0	-1.0	8.0	0.0	-1.0	0.0	5.0	0.0	-3.0	2.0	2.0
384	24.377	8.0	2.0	5.0	2.0	3.0	2.0	3.0	6.0	-2.0	-2.0	-1.0	2.0	3.0	-2.0	5.0	-1.0	3.0	0.0	2.0	0.0	4.0	4.0	4.0	-3.0	5.0	5.0	0.0
391	24.822	7.33	-0.33	2.67	-0.33	0.67	2.67	0.67	1.67	1.67	-0.33	0.67	0.67	-0.33	2.67	-0.33	0.67	-0.33	-1.33	2.67	8.67	6.67	5.67	0.67	0.67	0.67	1.67	-0.33
398	25.267	5.0	-3.0	-4.0	1.0	6.0	6.0	2.0	10.0	9.0	7.0	2.0	-1.0	8.0	5.0	2.0	4.0	10.0	10.0	4.0	6.0	11.0	-2.0	0.0	3.0	8.0	4.0	9.0
405	25.711	8.33	-1.33	1.67	3.67	-1.33	2.67	-3.33	8.67	-2.33	-3.33	-0.33	3.67	-4.33	2.67	-4.33	2.67	0.67	-0.33	5.67	2.67	2.67	-3.33	-0.33	3.67	2.67	2.67	0.67
412	26.156	10.67	-4.67	-3.67	-7.67	-1.67	-3.67	-1.67	-0.67	2.33	-1.67	-2.67	0.33	1.33	-2.67	-0.67	-5.67	2.33	-2.67	1.33	-0.67	-1.67	-4.67	-1.67	-3.67	-3.67	1.33	2.33
419	26.601	9.67	1.33	-4.67	1.33	-4.67	-2.67	1.33	-1.67	7.33	0.33	3.33	-3.67	1.33	-2.67	0.33	-6.67	1.33	2.33	5.33	-6.67	2.33	2.33	-0.67	2.33	-2.67	-0.67	0.33
426	27.045	6.33	-1.33	1.67	2.67	1.67	-0.33	-1.33	1.67	1.67	6.67	0.67	3.67	4.67	3.67	1.67	0.67	0.67	-4.33	4.67	4.67	0.67	3.67	-3.33	1.67	3.67	-1.33	6.67
433	27.49	6.33	-1.33	-0.33	1.67	-2.33	-2.33	-0.33	2.67	5.67	2.67	0.67	3.67	0.67	1.67	0.67	-0.33	3.67	2.67	4.67	3.67	6.67	0.67	0.67	1.67	2.67	0.67	2.67
440	27.934	7.67	-2.67	-0.67	0.33	-1.67	1.33	-1.67	4.33	-1.67	0.33	-1.67	0.33	0.33	0.33	1.33	-2.67	0.33	-0.67	1.33	0.33	-2.67	-0.67	-0.67	-1.67	2.33	-3.67	-1.67
447	28.379	6.33	-0.33	-2.33	-0.33	0.67	-0.33	1.67	5.67	-0.33	4.67	1.67	-3.33	1.67	3.67	-0.33	0.67	3.67	3.67	5.67	0.67	1.67	4.67	0.67	0.67	2.67	-0.33	0.67
454	28.823	6.33	0.67	1.67	-4.33	2.67	-1.33	3.67	2.67	1.67	-5.33	-0.33	-2.33	-0.33	-0.33	1.67	-4.33	-1.33	-0.33	4.67	-3.33	0.67	-1.33	4.67	1.67	0.67	-0.33	-0.33
461	29.267	6.33	2.67	-1.33	0.67	3.67	0.67	2.67	-2.33	-1.33	1.67	1.67	-2.33	-0.33	0.67	-1.33	0.67	-0.33	3.67	-0.33	-0.33	1.67	1.67	-1.33	1.67	4.67	2.67	-2.33
468	29.712	5.33	-0.33	-1.33	0.67	-0.33	-0.33	4.67	1.67	1.67	4.67	7.67	1.67	5.67	4.67	1.67	0.67	-2.33	1.67	7.67	1.67	0.67	1.67	4.67	8.67	-2.33	2.67	1.67
475	30.156	6.33	-2.33	1.67	-0.33	-2.33	2.67	0.67	-3.33	2.67	0.67	-4.33	3.67	0.67	-0.33	2.67	-1.33	-1.33	1.67	2.67	-0.33	2.67	-0.33	3.67	2.67	3.67	3.67	2.67
482	30.6	5.67	5.33	5.33	-0.67	-1.67	-2.67	1.33	1.33	-1.67	3.33	5.33	-0.67	1.33	-1.67	2.33	2.33	5.33	1.33	-0.67	3.33	-1.67	2.33	14.33	6.33	-2.67	-3.67	5.33
489	31.045	5.33	6.67	-1.33	-1.33	4.67	7.67	-0.33	-1.33	3.67	-1.33	-0.33	-3.33	0.67	3.67	1.67	-0.33	1.67	2.67	3.67	-0.33	4.67	0.67	1.67	0.67	6.67	2.67	2.67
496	31.489	5.67	4.33	-1.67	2.33	0.33	1.33	2.33	1.33	3.33	3.33	2.33	-3.67	0.33	-0.67	3.33	1.33	-1.67	0.33	2.33	-0.67	0.33	4.33	-3.67	-3.67	0.33	1.33	0.33
503	31.933	6.67	2.33	0.33	-4.67	-4.67	0.33	-0.67	-2.67	0.33	3.33	3.33	-2.67	0.33	1.33	1.33	0.33	-2.67	-2.67	-0.67	0.33	2.33	1.33	2.33	2.33	4.33	-2.67	2.33
510	32.377	5.0	-2.0	0.0	0.0	-1.0	3.0	4.0	5.0	2.0	1.0	1.0	1.0	2.0	6.0	1.0	-2.0	-2.0	2.0	3.0	0.0	-1.0	0.0	8.0	3.0	8.0	6.0	2.0
517	32.822	6.67	-1.67	0.33	0.33	2.33	-2.67	3.33	1.33	0.33	0.33	-1.67	-2.67	2.33	-1.67	2.33	0.33	2.33	4.33	-2.67	2.33	-5.67	2.33	-1.67	-0.67	5.33	-3.67	5.33
524	33.266	5.0	0.0	0.0	-4.0	0.0	0.0	-3.0	1.0	-1.0	2.0	2.0	1.0	2.0	2.0	3.0	2.0	-1.0	0.0	3.0	1.0	0.0	7.0	0.0	5.0	0.0	0.0	-4.0
531	33.71	5.33	0.67	4.67	1.67	-3.33	2.67	3.67	0.67	-2.33	-0.33	-3.33	-0.33	-0.33	2.67	-0.33	0.67	4.67	2.67	3.67	4.67	2.67	1.67	0.67	0.67	-3.33	2.67	-2.33
538	34.154	5.67	0.33	-2.67	-1.67	2.33	0.33	0.33	2.33	1.33	-1.67	0.33	-1.67	5.33	-0.67	-2.67	5.33	3.33	-2.67	-1.67	1.33	-0.67	0.33	-0.67	-3.67	-0.67	-0.67	2.33
545	34.598	3.33	-1.33	-1.33	-1.33	3.67	5.67	3.67	0.67	2.67	6.67	5.67	5.67	4.67	0.67	6.67	3.67	3.67	3.67	6.67	1.67	2.67	1.67	8.67	2.67	0.67	0.67	6.67
552	35.043	5.67	0.33	-0.67	-1.67	-4.67	-0.67	-2.67	4.33	-0.67	1.33	-0.67	-2.67	3.33	-2.67	2.33	-4.67	-2.67	4.33	0.33	1.33	-0.67	-1.67	2.33	-0.67	0.33	-1.67	2.33
559	35.487	5.0	0.0	3.0	0.0	11.0	0.0	0.0	-4.0	2.0	0.0	-1.0	2.0	3.0	-1.0	-1.0	0.0	-4.0	2.0	0.0	-1.0	0.0	2.0	2.0	0.0	2.0	3.0	1.0
566	35.931	2.67	2.33	5.33	1.33	1.33	1.33	4.33	0.33	4.33	3.33	4.33	4.33	3.33	4.33	3.33	3.33	4.33	1.33	4.33	1.33	-0.67	6.33	9.33	2.33	3.33	1.33	7.33
573	36.375	3.0	-1.0	1.0	1.0	1.0	2.0	0.0	5.0	3.0	3.0	6.0	1.0	3.0	0.0	-2.0	3.0	5.0	3.0	6.0	0.0	2.0	0.0	5.0	5.0	4.0	4.0	4.0
580	36.819	6.33	0.67	-0.33	-2.33	1.67	1.67	-2.33	-1.33	0.67	-4.33	-0.33	-5.33	-2.33	0.67	-0.33	-0.33	-4.33	-4.33	0.67	-5.33	-1.33	5.67	2.67	-1.33	-0.33	-2.33	-4.33
587	37.263	7.0	-1.0	4.0	-6.0	-1.0	-2.0	-3.0	0.0	1.0	5.0	-4.0	-3.0	-3.0	2.0	-2.0	-3.0	-1.0	-3.0	-3.0	-4.0	-5.0	-3.0	0.0	2.0	-1.0	1.0	0.0
594	37.707	3.67	1.33	1.33	4.33	7.33	2.33	2.33	4.33	3.33	-1.67	1.33	8.33	-2.67	6.33	2.33	1.33	1.33	5.33	1.33	1.33	3.33	1.33	1.33	5.33	4.33	1.33	6.33
601	38.152	4.33	-1.33	-1.33	4.67	-0.33	-1.33	0.67	-1.33	-0.33	0.67	0.67	0.67	-0.33	3.67	3.67	1.67	2.67	-1.33	3.67	2.67	4.67	0.67	1.67	4.67	4.67	4.67	2.67
608	38.596	7.67	-5.67	-0.67	-4.67	-5.67	-5.67	-5.67	-2.67	-1.67	-6.67	-2.67	-1.67	-1.67	-1.67	-3.67	-5.67	-1.67	-1.67	-3.67	-5.67	-3.67	-4.67	0.33	-2.67	-1.67	-4.67	-0.67
615	39.04	4.67	-0.67	5.33	0.33	-0.67	1.33	-0.67	-0.67	2.33	-0.67	-2.67	-0.67	0.33	1.33	3.33	2.33	-2.67	1.33	3.33	1.33	1.33	-1.67	-0.67	3.33	0.33	4.33	0.33
622	39.484	4.0	2.0	3.0	4.0	0.0	3.0	3.0	1.0	3.0	3.0	2.0	2.0	3.0	0.0	0.0	3.0	2.0	7.0	-2.0	2.0	1.0	5.0	1.0	3.0	1.0	0.0	8.0
629	39.928	7.33	-2.33	2.67	-1.33	1.67	-0.33	0.67	-4.33	-2.33	-4.33	-0.33	4.67	1.67	-4.33	-3.33	-3.33	-3.33	-3.33	-0.33	0.67	-1.33	-3.33	-1.33	-3.33	-3.33	1.67	-1.33
636	40.372	7.0	0.0	-3.0	-3.0	-4.0	-1.0	-3.0	-3.0	-3.0	-5.0	-2.0	0.0	1.0	1.0	-2.0	-1.0	1.0	-4.0	3.0	-1.0	-1.0	-3.0	-6.0	-2.0	-4.0	-5.0	-2.0
643	40.817	8.0	3.0	-1.0	-5.0	-3.0	-4.0	-4.0	0.0	-3.0	-6.0	-4.0	-3.0	-1.0	0.0	-4.0	0.0	2.0	-3.0	-4.0	3.0	-4.0	-3.0	-1.0	-3.0	-4.0	-5.0	-3.0
650	41.261	7.67	-1.67	-1.67	-2.67	-5.67	-0.67	-5.67	-0.67	-0.67	1.33	-0.67	-1.67	-3.67	-4.67	-3.67	0.33	-0.67	-0.67	1.33	-3.67	-2.67	-4.67	-1.67	3.33	0.33	1.33	-3.67
657	41.705	5.33	9.67	2.67	2.67	0.67	-0.33	2.67	0.67	0.67	1.67	-1.33	-3.33	-1.33	1.67	5.67	-0.33	-1.33	3.67	2.67	1.67	-3.33	-2.33	2.67	1.67	1.67	2.67	-3.33
664	42.149	6.33	6.67	-1.33	1.67	-0.33	-4.33	-3.33	-5.33	2.67	-3.33	-1.33	0.67	-1.33	2.67	-1.33	2.67	-4.33	-0.33	-2.33	3.67	-0.33	-0.33	2.67	-1.33	1.67	1.67	-1.33
671	42.594	10.67	-3.67	-6.67	2.33	-1.67	-5.67	-2.67	-8.67	-6.67	-6.67	-7.67	-6.67	-4.67	0.33	0.33	-5.67	-3.67	-2.67	-1.67	-1.67	-5.67	-2.67	-7.67	-4.67	-6.67	-3.67	-1.67
678	43.038	5.0	2.0	1.0	7.0	2.0	-2.0	1.0	3.0	2.0	1.0	-1.0	5.0	1.0	1.0	-3.0	0.0	1.0	4.0	2.0	2.0	-3.0	4.0	2.0	2.0	2.0	5.0	0.0
685	43.482	9.33	-5.33	-6.33	-6.33	-2.33	-1.33	-0.33	-2.33	-0.33	-4.33	-4.33	-9.33	-3.33	0.67	2.67	-1.33	-5.33	-5.33	0.67	0.67	-6.33	-5.33	-2.33	-0.33	-5.33	-0.33	-2.33
692	43.927	6.67	2.33	-3.67	-2.67	5.33	-0.67	-0.67	2.33	3.33	-0.67	2.33	-2.67	3.33	1.33	-2.67	-2.67	2.33	3.33	-0.67	-3.67	0.33	-2.67	1.33	-0.67	0.33	3.33	0.33
699	44.371	11.33	-5.33	-4.33	-6.33	-2.33	-5.33	-0.33	-2.33	-1.33	-4.33	-1.33	-6.33	-6.33	-2.33	-3.33	-3.33	-5.33	-3.33	-5.33	-7.33	-4.33	-4.33	-5.33	-2.33	-6.33	-3.33	-8.33
706	44.815	6.33	0.67	4.67	2.67	6.67	-1.33	-4.33	5.67	1.67	1.67	-1.33	7.67	1.67	-0.33	3.67	-2.33	-0.33	-1.33	2.67	-1.33	5.67	-0.33	2.67	2.67	4.67	1.67	-0.33
713	45.26	11.67	-4.67	-1.67	0.33	-8.67	0.33	-1.67	-1.67	-0.67	-0.67	-6.67	-1.67	-6.67	-2.67	-6.67	-5.67	-7.67	-5.67	0.33	-4.67	-1.67	-5.67	-2.67	0.33	-3.67	-5.67	-5.67
720	45.704	7.33	6.67	1.67	-0.33	-3.33	-1.33	6.67	-1.33	1.67	2.67	-3.33	0.67	-3.33	1.67	-2.33	-2.33	1.67	2.67	4.67	-2.33	2.67	3.67	-0.33	-4.33	1.67	0.67	-2.33
727	46.149	7.67	0.33	2.33	-2.67	-0.67	4.33	-0.67	-0.67	-2.67	-0.67	-2.67	1.33	-1.67	3.33	1.33	-0.67	1.33	0.33	0.33	-2.67	4.33	-2.67	-0.67	2.33	-4.67	-0.67	0.33
734	46.594	11.0	-2.0	-6.0	-8.0	-2.0	-5.0	-3.0	-3.0	-4.0	-5.0	-6.0	-3.0	0.0	-4.0	1.0	3.0	0.0	-5.0	-1.0	-8.0	-2.0	-2.0	-6.0	-6.0	-6.0	-5.0	-4.0
741	47.038	10.0	-3.0	0.0	-2.0	-1.0	-4.0	-3.0	-3.0	-2.0	2.0	-7.0	-4.0	-4.0	-3.0	-2.0	-4.0	-1.0	-2.0	0.0	-2.0	3.0	-6.0	-3.0	-2.0	-4.0	-3.0	2.0
748	47.483	9.0	1.0	1.0	0.0	-1.0	0.0	-1.0	0.0	0.0	-1.0	1.0	-3.0	-2.0	-2.0	1.0	-2.0	-1.0	0.0	-1.0	-1.0	2.0	1.0	1.0	7.0	-3.0	-3.0	0.0
755	47.928	12.67	-1.67	-2.67	-4.67	-2.67	-1.67	0.33	-1.67	-1.67	-7.67	-6.67	-4.67	-4.67	-2.67	-5.67	-5.67	-6.67	-5.67	-5.67	-4.67	-2.67	-7.67	0.33	-7.67	-4.67	-5.67	-4.67
762	48.372	14.0	-3.0	-7.0	-7.0	6.0	-7.0	0.0	-6.0	-9.0	-8.0	-6.0	-5.0	-3.0	-4.0	-5.0	-8.0	-4.0	-8.0	-5.0	-3.0	-10.0	2.0	-5.0	-3.0	-8.0	-6.0	-7.0
769	48.817	11.33	-8.33	-0.33	-0.33	-1.33	-4.33	-7.33	1.67	0.67	-6.33	-2.33	-2.33	-3.33	-2.33	-3.33	-2.33	2.67	-3.33	-1.33	-3.33	-1.33	1.67	-1.33	-2.33	2.67	-3.33	3.67
776	49.262	10.33	-1.33	-0.33	0.67	-2.33	-2.33	-2.33	0.67	-6.33	-2.33	-4.33	-5.33	-8.33	-4.33	-1.33	-1.33	3.67	-0.33	-4.33	-6.33	-3.33	-3.33	1.67	0.67	-5.33	-0.33	-1.33
783	49.707	11.33	3.67	4.67	-5.33	5.67	-2.33	-2.33	-1.33	0.67	-3.33	-2.33	-0.33	1.67	5.67	-3.33	-2.33	1.67	-2.33	-0.33	2.67	-1.33	-4.33	0.67	-1.33	-8.33	-1.33	-3.33
790	50.152	14.33	4.67	2.67	2.67	4.67	-0.33	2.67	-4.33	-8.33	-5.33	-2.33	1.67	-3.33	-0.33	-2.33	-3.33	-5.33	-6.33	-2.33	-6.33	2.67	-5.33	-5.33	-2.33	-4.33	0.67	-0.33
797	50.597	13.0	0.0	10.0	12.0	12.0	7.0	9.0	7.0	1.0	5.0	2.0	4.0	8.0	11.0	3.0	-2.0	4.0	-1.0	1.0	8.0	-2.0	0.0	2.0	5.0	5.0	1.0	1.0
804	51.042	15.0	6.0	21.0	23.0	36.0	21.0	13.0	10.0	24.0	17.0	13.0	10.0	11.0	8.0	7.0	7.0	13.0	8.0	7.0	2.0	3.0	4.0	5.0	10.0	6.0	8.0	13.0
811	51.487	13.67	15.33	43.33	43.33	50.33	40.33	39.33	33.33	35.33	27.33	29.33	36.33	23.33	35.33	22.33	30.33	14.33	23.33	13.33	31.33	11.33	18.33	15.33	12.33	19.33	20.33	12.33
818	51.932	13.33	31.67	40.67	45.67	45.67	33.67	34.67	22.67	34.67	32.67	30.67	31.67	14.67	19.67	17.67	11.67	26.67	16.67	28.67	26.67	16.67	17.67	16.67	18.67	13.67	20.67	15.67
825	52.377	15.67	1.33	13.33	25.33	10.33	8.33	11.33	-1.67	2.33	6.33	14.33	1.33	6.33	4.33	8.33	3.33	-2.67	-1.67	0.33	0.33	-0.67	-1.67	-1.67	1.33	4.33	-3.67	4.33
832	52.823	18.0	-10.0	-1.0	0.0	-6.0	-6.0	-1.0	2.0	2.0	-4.0	2.0	6.0	-8.0	-5.0	-3.0	-4.0	-4.0	-6.0	-6.0	-8.0	-7.0	-4.0	-3.0	-3.0	-4.0	-3.0	-6.0
839	53.268	14.0	5.0	1.0	3.0	4.0	3.0	11.0	1.0	-5.0	-4.0	-3.0	-1.0	-6.0	9.0	-7.0	1.0	0.0	-4.0	2.0	-3.0	-3.0	-1.0	-3.0	-7.0	-4.0	-4.0	-1.0
846	53.713	12.0	0.0	1.0	1.0	8.0	-2.0	5.0	-2.0	3.0	5.0	5.0	0.0	6.0	6.0	-2.0	-4.0	-2.0	-3.0	-2.0	-6.0	3.0	-3.0	6.0	-2.0	-2.0	-7.0	0.0
853	54.159	19.0	-3.0	1.0	-4.0	-4.0	2.0	-7.0	-4.0	-8.0	-6.0	0.0	-10.0	8.0	0.0	-11.0	-9.0	-4.0	-6.0	-5.0	-4.0	6.0	-11.0	1.0	-1.0	-5.0	-12.0	-12.0
860	54.604	20.67	-6.67	-5.67	-8.67	-3.67	-3.67	-2.67	-10.67	-4.67	-10.67	-3.67	-6.67	-11.67	-1.67	-9.67	-2.67	-10.67	-11.67	-2.67	-8.67	-10.67	-3.67	3.33	-8.67	-3.67	-4.67	-4.67
867	55.05	13.67	-1.67	-2.67	8.33	0.33	4.33	5.33	-3.67	-5.67	3.33	4.33	-3.67	1.33	2.33	-2.67	-6.67	0.33	-6.67	-4.67	-1.67	-2.67	-1.67	-1.67	-1.67	-0.67	-2.67	-5.67
874	55.496	15.33	-1.33	-2.33	-3.33	1.67	-5.33	0.67	-8.33	-4.33	-9.33	-1.33	-9.33	-0.33	-2.33	-1.33	-4.33	-0.33	2.67	-3.33	-2.33	-9.33	-1.33	-6.33	-3.33	-4.33	-2.33	1.67
881	55.942	13.0	4.0	0.0	-3.0	-3.0	-4.0	6.0	-3.0	4.0	4.0	-5.0	-4.0	-4.0	-4.0	6.0	-2.0	2.0	-5.0	-6.0	-2.0	1.0	5.0	-5.0	-4.0	2.0	9.0	0.0
888	56.387	15.0	-6.0	8.0	-7.0	1.0	-4.0	4.0	-2.0	1.0	-3.0	1.0	1.0	-7.0	0.0	-6.0	5.0	-4.0	-2.0	-8.0	-2.0	-2.0	-2.0	-4.0	-4.0	-3.0	-1.0	-7.0
895	56.833	12.67	9.33	4.33	6.33	5.33	-1.67	3.33	0.33	-2.67	-0.67	1.33	-1.67	6.33	5.33	1.33	0.33	3.33	3.33	1.33	4.33	-2.67	5.33	-2.67	-2.67	0.33	1.33	-1.67
902	57.279	19.33	-8.33	0.67	-0.33	-1.33	0.67	-4.33	-12.33	-11.33	-5.33	1.67	-3.33	-4.33	-5.33	-9.33	-5.33	-6.33	-11.33	-0.33	-7.33	-3.33	-7.33	-6.33	-9.33	-5.33	-3.33	-5.33
909	57.726	16.33	7.67	2.67	4.67	1.67	1.67	-1.33	3.67	4.67	-4.33	-0.33	-3.33	-0.33	-4.33	1.67	-0.33	-2.33	4.67	1.67	3.67	-4.33	1.67	5.67	-2.33	2.67	-2.33	0.67
916	58.172	18.67	5.33	1.33	-2.67	-5.67	-8.67	-2.67	-6.67	-12.67	3.33	-4.67	-5.67	-2.67	5.33	-4.67	-3.67	-2.67	-5.67	-1.67	-2.67	-3.67	-7.67	2.33	0.33	-2.67	-0.67	0.33
923	58.618	17.67	-4.67	-11.67	-2.67	2.33	-1.67	-3.67	4.33	2.33	-0.67	6.33	0.33	-5.67	-4.67	-4.67	-6.67	-3.67	0.33	-3.67	-2.67	-3.67	-0.67	-7.67	-1.67	-3.67	-2.67	-5.67
930	59.064	18.33	-4.33	-4.33	-0.33	4.67	3.67	6.67	-4.33	1.67	3.67	4.67	-7.33	0.67	3.67	-1.33	1.67	-2.33	-4.33	1.67	-5.33	-1.33	-3.33	-0.33	0.67	-5.33	2.67	-2.33
937	59.511	20.0	4.0	-1.0	-6.0	-2.0	-5.0	2.0	-1.0	0.0	-2.0	-4.0	-3.0	-5.0	-1.0	-7.0	-3.0	-8.0	-5.0	-2.0	-2.0	-5.0	5.0	0.0	1.0	-1.0	1.0	5.0
944	59.957	18.0	2.0	0.0	2.0	-6.0	-9.0	-1.0	-8.0	-3.0	-5.0	0.0	-3.0	2.0	1.0	2.0	0.0	-2.0	-3.0	2.0	-8.0	0.0	-6.0	-5.0	-7.0	-5.0	-4.0	-1.0
951	60.404	21.67	0.33	-11.67	-14.67	-7.67	-4.67	-7.67	-10.67	-4.67	-6.67	-10.67	-10.67	-6.67	-6.67	-8.67	-1.67	1.33	-10.67	-8.67	-0.67	-5.67	-6.67	-8.67	-8.67	-1.67	-4.67	-8.67
958	60.851	21.0	-5.0	-9.0	-4.0	-7.0	-5.0	-7.0	-8.0	-8.0	-10.0	-1.0	-6.0	-11.0	-4.0	-11.0	-4.0	-5.0	-5.0	-9.0	-7.0	-3.0	-7.0	-7.0	-5.0	-10.0	-1.0	0.0
965	61.298	13.0	6.0	7.0	0.0	2.0	7.0	0.0	-4.0	5.0	-2.0	10.0	0.0	12.0	-1.0	1.0	2.0	-1.0	-3.0	8.0	8.0	0.0	-2.0	2.0	-1.0	-2.0	6.0	-1.0
972	61.745	16.0	1.0	-3.0	0.0	3.0	-5.0	-4.0	-3.0	0.0	1.0	3.0	4.0	-1.0	-6.0	2.0	-3.0	0.0	-7.0	0.0	-3.0	2.0	4.0	-2.0	-1.0	-4.0	-5.0	-5.0
979	62.192	13.33	4.67	1.67	2.67	5.67	2.67	4.67	8.67	1.67	-1.33	1.67	12.67	6.67	2.67	-2.33	-1.33	-3.33	-2.33	0.67	10.67	6.67	8.67	0.67	-0.33	7.67	1.67	1.67
986	62.639	16.33	10.67	-1.33	-3.33	-6.33	4.67	-3.33	4.67	-0.33	3.67	-0.33	-0.33	-5.33	-3.33	-3.33	-1.33	3.67	-5.33	-6.33	-0.33	-0.33	-11.33	0.67	-4.33	2.67	0.67	2.67
993	63.086	13.67	18.33	4.33	3.33	7.33	6.33	4.33	-4.67	2.33	7.33	8.33	-3.67	3.33	-3.67	0.33	0.33	-0.67	7.33	3.33	0.33	6.33	1.33	-1.67	5.33	3.33	0.33	11.33
1000	63.533	22.0	-2.0	2.0	1.0	-4.0	-4.0	-9.0	2.0	-6.0	-1.0	-5.0	-7.0	-8.0	-6.0	-6.0	-12.0	-1.0	-9.0	-8.0	-7.0	-5.0	-9.0	-4.0	-13.0	-6.0	-5.0	-13.0
1007	63.981	14.67	18.33	1.33	-0.67	4.33	1.33	1.33	-3.67	-0.67	5.33	0.33	3.33	3.33	1.33	-1.67	6.33	-0.67	3.33	6.33	-1.67	-0.67	0.33	4.33	0.33	6.33	7.33	-0.67
1014	64.428	22.33	-0.33	-0.33	-13.33	-4.33	-4.33	0.67	-11.33	-3.33	-5.33	-7.33	-7.33	-11.33	-8.33	-12.33	-4.33	-8.33	2.67	-6.33	-7.33	-3.33	-4.33	-6.33	1.67	-4.33	-12.33	-8.33
1021	64.876	14.33	22.67	8.67	18.67	10.67	14.67	10.67	8.67	6.67	1.67	5.67	7.67	2.67	7.67	5.67	2.67	8.67	7.67	10.67	-1.33	3.67	13.67	4.67	2.67	8.67	10.67	12.67
1028	65.324	17.0	35.0	12.0	11.0	20.0	17.0	17.0	13.0	9.0	19.0	11.0	20.0	5.0	14.0	13.0	18.0	12.0	9.0	12.0	11.0	12.0	7.0	6.0	14.0	8.0	6.0	20.0
1035	65.772	15.67	26.33	37.33	31.33	23.33	27.33	18.33	27.33	37.33	23.33	32.33	14.33	20.33	15.33	19.33	13.33	14.33	22.33	17.33	12.33	18.33	17.33	13.33	12.33	17.33	13.33	18.33
1042	66.22	15.67	16.33	11.33	22.33	13.33	10.33	21.33	14.33	20.33	9.33	14.33	18.33	19.33	13.33	17.33	9.33	9.33	10.33	12.33	17.33	6.33	19.33	13.33	18.33	13.33	15.33	7.33
1049	66.668	18.33	21.67	12.67	-2.33	11.67	7.67	9.67	15.67	6.67	8.67	2.67	1.67	11.67	5.67	3.67	4.67	8.67	5.67	9.67	2.67	-3.33	-0.33	4.67	12.67	-3.33	6.67	4.67
1056	67.116	14.67	11.33	11.33	11.33	19.33	1.33	3.33	7.33	8.33	11.33	14.33	2.33	5.33	7.33	9.33	12.33	3.33	22.33	10.33	5.33	18.33	8.33	7.33	7.33	16.33	11.33	7.33
1063	67.564	16.67	5.33	12.33	3.33	3.33	6.33	12.33	5.33	2.33	3.33	2.33	9.33	15.33	3.33	4.33	6.33	-3.67	5.33	0.33	4.33	6.33	12.33	1.33	15.33	4.33	10.33	-6.67
1070	68.013	12.0	17.0	5.0	10.0	14.0	19.0	7.0	12.0	7.0	8.0	-2.0	12.0	10.0	10.0	1.0	6.0	7.0	6.0	8.0	-3.0	6.0	12.0	2.0	7.0	7.0	8.0	0.0
1077	68.462	18.0	1.0	2.0	6.0	5.0	9.0	-1.0	8.0	6.0	1.0	1.0	2.0	2.0	-2.0	3.0	2.0	0.0	0.0	4.0	5.0	-4.0	0.0	-6.0	-2.0	-4.0	-3.0	-6.0
1084	68.91	21.0	1.0	5.0	0.0	1.0	-2.0	-5.0	2.0	0.0	4.0	-3.0	-6.0	5.0	0.0	-4.0	-5.0	-5.0	-3.0	1.0	-2.0	6.0	5.0	5.0	-6.0	2.0	5.0	4.0
1091	69.359	16.67	5.33	3.33	6.33	8.33	3.33	-3.67	4.33	5.33	8.33	-1.67	10.33	-5.67	1.33	2.33	-0.67	7.33	3.33	3.33	8.33	4.33	5.33	13.33	7.33	10.33	0.33	17.33
1098	69.808	16.67	1.33	3.33	-5.67	1.33	-4.67	-3.67	-2.67	-1.67	0.33	6.33	6.33	7.33	4.33	5.33	2.33	-1.67	0.33	3.33	0.33	2.33	-2.67	-6.67	2.33	4.33	3.33	-4.67
1105	70.257	10.0	6.0	11.0	5.0	8.0	3.0	17.0	14.0	12.0	8.0	13.0	11.0	8.0	9.0	16.0	10.0	2.0	9.0	8.0	13.0	9.0	9.0	13.0	7.0	5.0	10.0	15.0
1112	70.707	13.0	1.0	4.0	5.0	16.0	0.0	6.0	7.0	9.0	8.0	0.0	7.0	11.0	3.0	10.0	9.0	3.0	7.0	7.0	1.0	5.0	1.0	-1.0	-2.0	3.0	10.0	13.0
1119	71.156	14.67	5.33	8.33	4.33	3.33	12.33	3.33	6.33	14.33	6.33	2.33	0.33	2.33	-0.67	1.33	3.33	5.33	6.33	4.33	10.33	-2.67	1.33	6.33	7.33	5.33	1.33	6.33
1126	71.606	14.0	1.0	14.0	9.0	8.0	8.0	3.0	-4.0	4.0	5.0	5.0	5.0	3.0	1.0	3.0	5.0	10.0	10.0	6.0	7.0	8.0	7.0	2.0	10.0	3.0	4.0	7.0
1133	72.055	12.67	6.33	1.33	6.33	11.33	9.33	10.33	9.33	2.33	5.33	4.33	3.33	11.33	7.33	6.33	8.33	-0.67	6.33	7.33	6.33	13.33	6.33	10.33	9.33	1.33	6.33	5.33
1140	72.505	21.0	-6.0	4.0	4.0	8.0	9.0	9.0	3.0	9.0	9.0	-2.0	10.0	5.0	-1.0	8.0	6.0	7.0	-1.0	-1.0	9.0	5.0	5.0	6.0	4.0	8.0	2.0	8.0
1147	72.955	26.33	14.67	6.67	12.67	8.67	13.67	10.67	8.67	5.67	5.67	20.67	7.67	23.67	13.67	5.67	4.67	15.67	12.67	-2.33	12.67	13.67	14.67	14.67	10.67	9.67	4.67	5.67
1154	73.405	23.0	1.0	6.0	7.0	12.0	7.0	11.0	0.0	1.0	11.0	-10.0	15.0	5.0	13.0	15.0	10.0	5.0	-7.0	-1.0	7.0	9.0	5.0	-4.0	2.0	7.0	9.0	6.0
1161	73.855	15.0	9.0	5.0	8.0	2.0	9.0	9.0	5.0	7.0	3.0	5.0	-1.0	3.0	9.0	12.0	4.0	4.0	-2.0	10.0	5.0	8.0	9.0	19.0	-1.0	4.0	5.0	6.0
1168	74.306	11.33	18.67	10.67	6.67	19.67	3.67	6.67	18.67	5.67	2.67	10.67	16.67	14.67	8.67	2.67	12.67	9.67	7.67	8.67	2.67	11.67	19.67	11.67	12.67	18.67	4.67	8.67
1175	74.756	22.0	-3.0	11.0	10.0	18.0	16.0	19.0	6.0	17.0	7.0	19.0	5.0	6.0	11.0	12.0	12.0	7.0	10.0	11.0	7.0	11.0	8.0	4.0	27.0	6.0	7.0	5.0
1182	75.207	37.33	-2.33	1.67	8.67	9.67	-4.33	16.67	3.67	10.67	8.67	2.67	13.67	0.67	12.67	3.67	5.67	13.67	7.67	17.67	14.67	29.67	19.67	5.67	5.67	25.67	27.67	31.67
1189	75.658	29.67	6.33	0.33	11.33	5.33	2.33	-8.67	0.33	-0.67	9.33	8.33	2.33	6.33	-3.67	-5.67	15.33	1.33	2.33	0.33	2.33	-0.67	5.33	-8.67	1.33	10.33	7.33	4.33
1196	76.109	16.0	1.0	0.0	12.0	9.0	7.0	9.0	10.0	1.0	2.0	-2.0	4.0	12.0	8.0	3.0	7.0	5.0	3.0	3.0	5.0	10.0	8.0	5.0	12.0	2.0	3.0	8.0
1203	76.56	15.33	2.67	6.67	5.67	8.67	5.67	17.67	11.67	10.67	6.67	4.67	11.67	9.67	1.67	3.67	4.67	9.67	1.67	9.67	16.67	7.67	9.67	9.67	6.67	14.67	10.67	11.67
1210	77.011	17.33	-3.33	2.67	-2.33	7.67	11.67	7.67	2.67	6.67	4.67	11.67	-3.33	-1.33	2.67	4.67	0.67	-4.33	-3.33	1.67	-0.33	-2.33	1.67	8.67	4.67	5.67	6.67	-3.33
1217	77.463	14.33	3.67	3.67	7.67	8.67	7.67	13.67	10.67	6.67	1.67	13.67	8.67	-1.33	2.67	6.67	3.67	14.67	6.67	6.67	10.67	4.67	14.67	1.67	1.67	2.67	10.67	9.67
1224	77.915	18.0	-3.0	3.0	10.0	7.0	1.0	10.0	10.0	10.0	5.0	-3.0	-3.0	-1.0	1.0	-3.0	7.0	15.0	13.0	4.0	4.0	2.0	7.0	9.0	6.0	-1.0	1.0	4.0
1231	78.366	15.67	5.33	11.33	14.33	-3.67	8.33	9.33	20.33	4.33	21.33	6.33	5.33	15.33	13.33	14.33	1.33	2.33	6.33	13.33	-3.67	8.33	10.33	8.33	9.33	10.33	10.33	7.33
1238	78.818	12.67	-0.67	9.33	9.33	10.33	4.33	2.33	12.33	13.33	11.33	8.33	9.33	7.33	16.33	5.33	6.33	14.33	2.33	13.33	12.33	12.33	17.33	5.33	8.33	12.33	15.33	6.33
1245	79.271	17.67	-7.67	7.33	12.33	2.33	6.33	4.33	10.33	16.33	2.33	-0.67	-0.67	7.33	2.33	1.33	5.33	5.33	5.33	-1.67	9.33	6.33	2.33	6.33	8.33	-2.67	17.33	2.33
1252	79.723	14.33	11.67	18.67	6.67	7.67	0.67	1.67	13.67	10.67	11.67	9.67	20.67	3.67	10.67	3.67	2.67	-0.33	3.67	18.67	13.67	18.67	5.67	16.67	10.67	3.67	0.67	2.67
1259	80.175	15.67	8.33	4.33	11.33	9.33	9.33	5.33	13.33	5.33	17.33	22.33	-2.67	1.33	3.33	5.33	10.33	14.33	-0.67	7.33	-2.67	2.33	2.33	10.33	4.33	4.33	17.33	4.33
1266	80.628	15.67	1.33	6.33	9.33	10.33	22.33	9.33	12.33	8.33	4.33	7.33	9.33	13.33	16.33	10.33	-2.67	7.33	8.33	13.33	14.33	10.33	6.33	4.33	10.33	12.33	11.33	7.33
1273	81.081	12.33	10.67	15.67	15.67	18.67	23.67	17.67	31.67	19.67	19.67	23.67	12.67	13.67	19.67	12.67	17.67	14.67	13.67	17.67	14.67	14.67	18.67	10.67	12.67	5.67	19.67	18.67
1280	81.534	15.33	13.67	17.67	34.67	13.67	24.67	14.67	20.67	19.67	14.67	11.67	27.67	16.67	13.67	13.67	21.67	35.67	11.67	23.67	13.67	19.67	9.67	7.67	17.67	20.67	15.67	16.67
1287	81.987	16.33	5.67	12.67	34.67	15.67	32.67	20.67	23.67	16.67	13.67	27.67	26.67	22.67	15.67	16.67	14.67	18.67	13.67	12.67	22.67	27.67	12.67	14.67	6.67	10.67	17.67	24.67
1294	82.441	20.0	31.0	31.0	23.0	38.0	25.0	20.0	22.0	20.0	16.0	12.0	33.0	28.0	25.0	15.0	16.0	30.0	20.0	27.0	28.0	14.0	18.0	11.0	8.0	20.0	20.0	11.0
1301	82.894	14.67	73.33	87.33	64.33	56.33	43.33	72.33	64.33	60.33	41.33	52.33	57.33	40.33	45.33	43.33	51.33	38.33	37.33	40.33	47.33	51.33	39.33	56.33	34.33	47.33	36.33	32.33
1308	83.348	23.67	119.33	175.33	125.33	110.33	102.33	93.33	77.33	82.33	79.33	66.33	87.33	72.33	80.33	55.33	65.33	49.33	66.33	60.33	42.33	50.33	44.33	62.33	64.33	74.33	70.33	53.33
1315	83.802	22.0	124.0	195.0	176.0	153.0	157.0	101.0	94.0	108.0	117.0	112.0	99.0	90.0	100.0	100.0	62.0	88.0	81.0	90.0	97.0	55.0	88.0	55.0	67.0	62.0	84.0	80.0
1322	84.256	23.0	147.0	174.0	177.0	102.0	118.0	103.0	103.0	96.0	109.0	90.0	86.0	116.0	68.0	72.0	67.0	79.0	62.0	73.0	72.0	72.0	70.0	50.0	59.0	56.0	65.0	57.0
1329	84.71	22.67	79.33	81.33	85.33	77.33	57.33	77.33	45.33	69.33	64.33	62.33	55.33	54.33	41.33	60.33	45.33	51.33	37.33	37.33	51.33	45.33	43.33	60.33	35.33	47.33	63.33	31.33
1336	85.165	31.33	28.67	39.67	30.67	19.67	27.67	13.67	27.67	18.67	7.67	18.67	27.67	13.67	25.67	17.67	12.67	15.67	10.67	10.67	29.67	16.67	14.67	17.67	3.67	11.67	8.67	16.67
1343	85.619	24.33	11.67	17.67	23.67	14.67	17.67	17.67	12.67	28.67	21.67	10.67	9.67	15.67	19.67	14.67	13.67	7.67	7.67	8.67	13.67	14.67	15.67	5.67	14.67	18.67	7.67	15.67
1350	86.074	21.33	5.67	5.67	13.67	0.67	7.67	24.67	10.67	12.67	10.67	8.67	10.67	10.67	13.67	12.67	9.67	15.67	10.67	11.67	14.67	6.67	1.67	10.67	7.67	10.67	15.67	17.67
1357	86.529	19.33	3.67	17.67	20.67	10.67	10.67	14.67	14.67	19.67	1.67	3.67	3.67	11.67	18.67	9.67	3.67	5.67	7.67	3.67	17.67	4.67	22.67	11.67	8.67	8.67	9.67	3.67
1364	86.985	25.33	5.67	-2.33	7.67	3.67	8.67	10.67	8.67	9.67	-1.33	0.67	-1.33	-1.33	8.67	-0.33	0.67	-7.33	4.67	12.67	-0.33	10.67	6.67	4.67	-4.33	8.67	-0.33	9.67
1371	87.44	30.0	5.0	-5.0	-1.0	10.0	-7.0	3.0	8.0	1.0	4.0	2.0	11.0	4.0	5.0	-3.0	-4.0	-7.0	12.0	-7.0	7.0	1.0	-1.0	5.0	4.0	14.0	5.0	-1.0
1378	87.896	21.0	14.0	20.0	8.0	5.0	15.0	20.0	23.0	24.0	4.0	11.0	10.0	21.0	8.0	10.0	18.0	14.0	18.0	13.0	13.0	18.0	21.0	10.0	11.0	12.0	10.0	25.0
1385	88.352	24.33	4.67	-3.33	8.67	10.67	12.67	17.67	8.67	3.67	0.67	12.67	4.67	4.67	7.67	8.67	-1.33	10.67	21.67	-2.33	15.67	6.67	1.67	6.67	12.67	12.67	9.67	-2.33
1392	88.808	21.33	9.67	18.67	14.67	14.67	12.67	15.67	14.67	5.67	11.67	5.67	6.67	14.67	4.67	0.67	9.67	7.67	7.67	4.67	6.67	6.67	2.67	11.67	9.67	5.67	3.67	7.67
1399	89.264	23.33	4.67	1.67	-0.33	6.67	10.67	2.67	5.67	7.67	11.67	13.67	1.67	7.67	7.67	10.67	0.67	14.67	3.67	3.67	7.67	9.67	0.67	19.67	12.67	4.67	-0.33	15.67
1406	89.72	30.0	-1.0	-9.0	4.0	8.0	-7.0	-4.0	-3.0	-2.0	-11.0	7.0	-9.0	-3.0	-3.0	1.0	-4.0	0.0	5.0	4.0	-1.0	-1.0	4.0	2.0	6.0	2.0	1.0	2.0
1413	90.177	24.0	15.0	19.0	12.0	1.0	14.0	14.0	8.0	5.0	3.0	10.0	7.0	10.0	11.0	12.0	20.0	20.0	7.0	10.0	12.0	1.0	6.0	4.0	11.0	9.0	14.0	9.0
1420	90.634	18.67	11.33	14.33	22.33	7.33	11.33	6.33	2.33	21.33	9.33	10.33	19.33	20.33	8.33	17.33	12.33	17.33	20.33	18.33	9.33	4.33	12.33	5.33	20.33	12.33	21.33	17.33
1427	91.091	19.67	12.33	14.33	14.33	13.33	18.33	12.33	13.33	23.33	19.33	17.33	9.33	10.33	11.33	21.33	14.33	13.33	9.33	9.33	6.33	4.33	8.33	10.33	-1.67	21.33	20.33	14.33
1434	91.549	25.67	12.33	1.33	10.33	15.33	10.33	2.33	17.33	8.33	18.33	17.33	5.33	13.33	6.33	2.33	13.33	6.33	10.33	8.33	2.33	0.33	15.33	1.33	8.33	2.33	9.33	4.33
1441	92.006	22.67	12.33	15.33	17.33	13.33	6.33	6.33	5.33	10.33	16.33	10.33	8.33	10.33	9.33	13.33	12.33	4.33	14.33	9.33	1.33	3.33	22.33	10.33	4.33	3.33	14.33	9.33
1448	92.464	28.0	-4.0	9.0	-4.0	5.0	1.0	3.0	20.0	-2.0	15.0	9.0	5.0	-1.0	5.0	-5.0	8.0	-4.0	5.0	4.0	4.0	22.0	-3.0	11.0	5.0	8.0	6.0	5.0
1455	92.922	29.0	3.0	3.0	-8.0	2.0	3.0	10.0	3.0	-2.0	2.0	-4.0	1.0	-1.0	4.0	7.0	5.0	-5.0	5.0	12.0	0.0	12.0	4.0	4.0	14.0	1.0	0.0	7.0
1462	93.38	29.33	12.67	2.67	2.67	-1.33	1.67	7.67	3.67	4.67	3.67	6.67	5.67	4.67	12.67	5.67	6.67	0.67	8.67	5.67	12.67	2.67	10.67	4.67	2.67	15.67	-8.33	-1.33
1469	93.839	22.67	2.33	8.33	19.33	12.33	1.33	1.33	12.33	14.33	11.33	6.33	12.33	11.33	12.33	11.33	8.33	10.33	7.33	2.33	16.33	12.33	11.33	2.33	-2.67	4.33	9.33	11.33
1476	94.297	30.67	-2.67	9.33	8.33	3.33	9.33	5.33	7.33	-2.67	2.33	-3.67	8.33	-7.67	8.33	9.33	9.33	1.33	-2.67	2.33	10.33	10.33	1.33	1.33	11.33	4.33	3.33	-2.67
1483	94.756	29.33	4.67	-1.33	2.67	7.67	-0.33	10.67	21.67	1.67	6.67	7.67	5.67	5.67	14.67	2.67	2.67	1.67	15.67	-0.33	8.67	2.67	5.67	-3.33	-2.33	-0.33	8.67	11.67
1490	95.215	31.0	1.0	16.0	10.0	9.0	19.0	9.0	13.0	14.0	12.0	4.0	-4.0	4.0	-10.0	6.0	4.0	14.0	4.0	3.0	5.0	3.0	10.0	19.0	9.0	4.0	10.0	6.0
1497	95.675	31.33	2.67	9.67	10.67	9.67	4.67	8.67	13.67	19.67	19.67	7.67	4.67	8.67	13.67	-2.33	13.67	18.67	8.67	17.67	7.67	11.67	14.67	17.67	3.67	17.67	16.67	0.67
1504	96.134	33.0	-9.0	11.0	13.0	4.0	22.0	7.0	0.0	19.0	13.0	22.0	10.0	0.0	18.0	14.0	6.0	3.0	12.0	8.0	15.0	15.0	3.0	5.0	4.0	18.0	6.0	7.0
1511	96.594	34.67	5.33	24.33	15.33	30.33	7.33	15.33	29.33	29.33	11.33	11.33	22.33	13.33	14.33	3.33	23.33	19.33	18.33	22.33	21.33	25.33	15.33	29.33	29.33	23.33	31.33	16.33
1518	97.054	26.67	14.33	35.33	32.33	43.33	31.33	49.33	36.33	38.33	29.33	39.33	29.33	33.33	34.33	36.33	41.33	20.33	39.33	21.33	37.33	40.33	25.33	24.33	23.33	41.33	20.33	35.33
1525	97.514	26.33	13.67	35.67	31.67	44.67	24.67	38.67	30.67	24.67	47.67	16.67	37.67	28.67	30.67	24.67	29.67	25.67	27.67	26.67	22.67	44.67	23.67	22.67	41.67	30.67	34.67	27.67
1532	97.975	32.67	19.33	14.33	19.33	16.33	14.33	8.33	24.33	8.33	30.33	31.33	32.33	7.33	14.33	24.33	26.33	9.33	23.33	15.33	20.33	18.33	16.33	13.33	17.33	22.33	9.33	16.33
1539	98.436	32.33	6.67	19.67	9.67	14.67	8.67	16.67	11.67	15.67	13.67	6.67	8.67	7.67	6.67	9.67	13.67	4.67	14.67	17.67	5.67	8.67	8.67	12.67	10.67	15.67	5.67	16.67
1546	98.897	34.67	1.33	9.33	17.33	8.33	0.33	6.33	5.33	4.33	-5.67	5.33	-2.67	7.33	13.33	0.33	7.33	5.33	8.33	8.33	0.33	10.33	-5.67	8.33	7.33	-3.67	1.33	5.33
1553	99.358	31.67	-2.67	13.33	14.33	16.33	4.33	-3.67	-0.67	13.33	9.33	10.33	6.33	-2.67	10.33	-0.67	-0.67	2.33	17.33	-4.67	1.33	5.33	13.33	13.33	0.33	3.33	2.33	15.33
1560	99.82	28.0	-1.0	12.0	14.0	8.0	14.0	-7.0	4.0	6.0	7.0	5.0	2.0	9.0	16.0	8.0	10.0	5.0	7.0	6.0	6.0	-1.0	14.0	-1.0	8.0	15.0	3.0	12.0
1567	100.281	27.67	6.33	7.33	4.33	1.33	16.33	9.33	5.33	2.33	10.33	5.33	3.33	12.33	8.33	11.33	1.33	13.33	6.33	12.33	10.33	15.33	11.33	-0.67	8.33	8.33	15.33	8.33
1574	100.743	31.67	2.33	6.33	-11.67	6.33	11.33	-0.67	3.33	9.33	13.33	-0.67	11.33	-1.67	-0.67	12.33	11.33	15.33	8.33	10.33	11.33	6.33	-0.67	3.33	8.33	8.33	-1.67	17.33
1581	101.206	24.67	5.33	12.33	18.33	18.33	-1.67	11.33	2.33	17.33	2.33	17.33	9.33	10.33	3.33	5.33	12.33	24.33	9.33	15.33	15.33	15.33	12.33	6.33	10.33	4.33	9.33	6.33
1588	101.668	27.67	11.33	3.33	4.33	-1.67	3.33	4.33	3.33	9.33	12.33	8.33	8.33	6.33	10.33	16.33	16.33	-7.67	2.33	13.33	5.33	13.33	11.33	14.33	5.33	8.33	8.33	3.33
1595	102.131	26.0	2.0	7.0	16.0	3.0	8.0	7.0	25.0	11.0	13.0	-4.0	6.0	7.0	12.0	-1.0	13.0	6.0	0.0	10.0	8.0	18.0	22.0	4.0	15.0	9.0	23.0	9.0
1602	102.594	30.67	8.33	5.33	2.33	9.33	18.33	14.33	9.33	4.33	1.33	1.33	-5.67	-0.67	4.33	6.33	6.33	0.33	16.33	5.33	3.33	7.33	8.33	10.33	-1.67	12.33	4.33	9.33
1609	103.057	26.0	-1.0	9.0	16.0	14.0	-1.0	3.0	7.0	10.0	10.0	6.0	16.0	12.0	11.0	7.0	5.0	6.0	10.0	7.0	16.0	4.0	12.0	12.0	14.0	17.0	13.0	0.0
1616	103.521	25.33	9.67	8.67	17.67	12.67	7.67	-1.33	2.67	-0.33	4.67	0.67	13.67	7.67	0.67	8.67	12.67	9.67	3.67	11.67	3.67	12.67	13.67	7.67	1.67	22.67	8.67	17.67
1623	103.985	23.0	12.0	14.0	3.0	11.0	4.0	6.0	10.0	10.0	2.0	18.0	13.0	17.0	10.0	13.0	10.0	9.0	-1.0	10.0	2.0	5.0	12.0	12.0	11.0	15.0	11.0	12.0
1630	104.449	23.33	2.67	2.67	-2.33	10.67	2.67	6.67	7.67	15.67	8.67	5.67	2.67	20.67	7.67	10.67	13.67	7.67	7.67	10.67	5.67	-5.33	5.67	-2.33	6.67	2.67	7.67	8.67
1637	104.913	29.33	1.67	-6.33	-10.33	-6.33	3.67	-8.33	-0.33	-0.33	1.67	-0.33	0.67	6.67	5.67	-11.33	0.67	-0.33	-3.33	-13.33	1.67	7.67	-7.33	9.67	-9.33	2.67	-5.33	-4.33
1644	105.378	25.67	4.33	3.33	1.33	5.33	10.33	-4.67	-1.67	5.33	12.33	3.33	-3.67	7.33	5.33	-2.67	12.33	9.33	5.33	0.33	11.33	8.33	15.33	10.33	2.33	-0.67	-3.67	1.33
1651	105.843	27.67	-2.67	0.33	7.33	-9.67	9.33	-2.67	-2.67	-0.67	10.33	8.33	5.33	-4.67	12.33	20.33	2.33	-0.67	-3.67	-0.67	-3.67	9.33	-1.67	3.33	-0.67	0.33	7.33	2.33
1658	106.308	22.0	8.0	14.0	15.0	6.0	5.0	5.0	6.0	6.0	4.0	7.0	5.0	6.0	9.0	0.0	3.0	7.0	-6.0	5.0	12.0	8.0	15.0	15.0	0.0	11.0	5.0	13.0
1665	106.773	22.33	-0.33	3.67	-0.33	-6.33	10.67	3.67	-3.33	1.67	7.67	9.67	8.67	-2.33	10.67	0.67	7.67	12.67	4.67	3.67	12.67	4.67	1.67	8.67	1.67	5.67	7.67	0.67
1672	107.239	18.0	5.0	8.0	10.0	7.0	5.0	0.0	1.0	10.0	1.0	3.0	12.0	-6.0	4.0	7.0	18.0	9.0	10.0	5.0	5.0	14.0	9.0	4.0	12.0	8.0	10.0	10.0
1679	107.705	22.67	8.33	4.33	6.33	5.33	6.33	1.33	-3.67	4.33	0.33	4.33	7.33	6.33	-3.67	8.33	8.33	5.33	5.33	2.33	-0.67	-2.67	2.33	6.33	3.33	0.33	1.33	6.33
1686	108.171	24.67	-2.67	2.33	-3.67	-7.67	2.33	1.33	-4.67	-0.67	0.33	14.33	0.33	6.33	3.33	5.33	3.33	4.33	-4.67	2.33	4.33	0.33	3.33	3.33	1.33	-3.67	-0.67	12.33
1693	108.638	21.33	6.67	11.67	4.67	-0.33	5.67	14.67	-0.33	4.67	4.67	8.67	2.67	-2.33	3.67	-0.33	2.67	5.67	5.67	-8.33	2.67	1.67	8.67	11.67	4.67	0.67	1.67	10.67
1700	109.105	23.67	5.33	-4.67	-0.67	0.33	6.33	7.33	1.33	2.33	5.33	-1.67	0.33	-0.67	-3.67	1.33	0.33	3.33	0.33	-1.67	7.33	0.33	3.33	10.33	1.33	7.33	-9.67	6.33
1707	109.572	21.67	16.33	-1.67	0.33	6.33	-8.67	3.33	2.33	5.33	3.33	8.33	9.33	-3.67	5.33	1.33	6.33	7.33	1.33	13.33	2.33	8.33	-0.67	5.33	9.33	-3.67	7.33	5.33
1714	110.039	17.67	-1.67	9.33	4.33	7.33	7.33	7.33	11.33	2.33	-1.67	7.33	1.33	4.33	10.33	4.33	9.33	4.33	1.33	8.33	2.33	-2.67	8.33	3.33	13.33	3.33	9.33	8.33
1721	110.507	20.0	3.0	12.0	1.0	10.0	4.0	13.0	0.0	6.0	8.0	0.0	5.0	2.0	-2.0	7.0	3.0	4.0	9.0	-3.0	5.0	2.0	4.0	6.0	11.0	12.0	6.0	-3.0
1728	110.975	22.33	-1.33	2.67	9.67	-7.33	4.67	-0.33	6.67	-8.33	4.67	-4.33	3.67	3.67	10.67	6.67	-2.33	-1.33	-9.33	13.67	-3.33	2.67	4.67	-7.33	-3.33	0.67	7.67	1.67
1735	111.443	16.33	8.67	13.67	10.67	9.67	2.67	12.67	-0.33	1.67	9.67	7.67	10.67	10.67	-0.33	10.67	9.67	1.67	9.67	9.67	11.67	11.67	7.67	6.67	9.67	4.67	5.67	16.67
1742	111.912	20.33	6.67	3.67	13.67	0.67	4.67	9.67	14.67	2.67	3.67	5.67	4.67	2.67	5.67	1.67	0.67	5.67	13.67	9.67	5.67	5.67	2.67	9.67	8.67	9.67	14.67	-1.33
1749	112.38	16.33	10.67	9.67	10.67	20.67	6.67	8.67	10.67	3.67	8.67	8.67	13.67	5.67	14.67	13.67	4.67	11.67	2.67	17.67	2.67	10.67	11.67	6.67	22.67	9.67	7.67	7.67
1756	112.85	17.33	-2.33	10.67	7.67	5.67	6.67	12.67	5.67	-0.33	6.67	13.67	-3.33	12.67	-1.33	12.67	9.67	2.67	9.67	-1.33	10.67	6.67	12.67	7.67	0.67	1.67	13.67	9.67
1763	113.319	14.67	4.33	9.33	6.33	8.33	9.33	17.33	10.33	0.33	3.33	5.33	8.33	11.33	7.33	6.33	8.33	9.33	1.33	2.33	-1.67	15.33	11.33	-2.67	14.33	5.33	13.33	-0.67
1770	113.789	22.33	-9.33	3.67	-4.33	-3.33	4.67	5.67	-1.33	-2.33	4.67	-3.33	-4.33	-4.33	-3.33	-7.33	-9.33	-4.33	-1.33	5.67	-10.33	-2.33	-4.33	-2.33	3.67	3.67	1.67	-3.33
1777	114.259	16.0	-4.0	-3.0	-2.0	3.0	7.0	13.0	-1.0	-1.0	15.0	7.0	3.0	9.0	10.0	9.0	7.0	0.0	7.0	9.0	0.0	-4.0	4.0	7.0	0.0	9.0	13.0	7.0
1784	114.729	13.67	3.33	-5.67	12.33	3.33	-0.67	-2.67	8.33	11.33	3.33	7.33	5.33	12.33	5.33	1.33	3.33	1.33	11.33	8.33	10.33	-1.67	6.33	2.33	4.33	10.33	8.33	2.33
1791	115.2	16.0	-3.0	6.0	7.0	0.0	-1.0	14.0	3.0	10.0	7.0	2.0	-2.0	-1.0	3.0	-2.0	-2.0	-1.0	0.0	2.0	8.0	-2.0	5.0	1.0	-4.0	-5.0	5.0	1.0
1798	115.671	13.33	-2.33	4.67	0.67	0.67	2.67	1.67	8.67	0.67	3.67	4.67	4.67	1.67	-2.33	8.67	11.67	10.67	7.67	10.67	-1.33	4.67	3.67	6.67	-1.33	-5.33	6.67	7.67
1805	116.142	14.0	1.0	0.0	1.0	3.0	9.0	4.0	0.0	12.0	3.0	-2.0	3.0	-3.0	5.0	9.0	-1.0	4.0	4.0	2.0	2.0	7.0	6.0	6.0	12.0	1.0	2.0	5.0
1812	116.614	14.33	0.67	9.67	-0.33	11.67	7.67	-0.33	1.67	8.67	6.67	4.67	0.67	5.67	-0.33	-1.33	5.67	6.67	-2.33	1.67	-2.33	7.67	3.67	0.67	1.67	1.67	5.67	0.67
1819	117.086	14.67	0.33	-1.67	2.33	5.33	1.33	-2.67	0.33	5.33	5.33	2.33	-6.67	-3.67	5.33	4.33	1.33	3.33	4.33	-2.67	3.33	5.33	1.33	9.33	1.33	7.33	1.33	0.33
1826	117.558	14.0	4.0	3.0	-2.0	3.0	-1.0	0.0	6.0	4.0	4.0	-1.0	4.0	0.0	4.0	-5.0	3.0	-1.0	4.0	4.0	-2.0	3.0	3.0	11.0	-7.0	0.0	-1.0	0.0
1833	118.03	12.33	-0.33	2.67	7.67	1.67	3.67	-0.33	2.67	9.67	1.67	0.67	1.67	0.67	8.67	7.67	9.67	0.67	-2.33	9.67	5.67	9.67	7.67	5.67	4.67	7.67	-1.33	7.67
1840	118.503	13.67	-2.67	-0.67	-0.67	0.33	-2.67	2.33	1.33	-0.67	1.33	-5.67	-0.67	3.33	-0.67	5.33	0.33	-0.67	1.33	0.33	-1.67	0.33	3.33	-0.67	2.33	1.33	3.33	12.33
1847	118.976	14.67	-5.67	-1.67	-2.67	4.33	8.33	-4.67	-7.67	8.33	9.33	3.33	-0.67	2.33	10.33	-3.67	1.33	-4.67	11.33	-2.67	-4.67	5.33	2.33	4.33	7.33	4.33	-6.67	1.33
1854	119.45	12.33	-1.33	3.67	10.67	1.67	0.67	-1.33	6.67	-1.33	3.67	1.67	10.67	3.67	11.67	-1.33	7.67	4.67	0.67	6.67	12.67	-3.33	1.67	-0.33	-4.33	4.67	7.67	7.67
1861	119.924	14.67	-0.67	-6.67	1.33	0.33	6.33	-4.67	4.33	0.33	-8.67	0.33	-3.67	1.33	-8.67	-5.67	1.33	0.33	1.33	-3.67	4.33	-2.67	1.33	4.33	3.33	-3.67	0.33	-0.67
1868	120.398	11.0	8.0	-1.0	6.0	7.0	1.0	0.0	11.0	-4.0	7.0	1.0	7.0	5.0	4.0	1.0	-2.0	3.0	6.0	7.0	3.0	2.0	9.0	7.0	5.0	9.0	11.0	7.0
1875	120.872	15.0	3.0	-4.0	-6.0	-4.0	0.0	1.0	1.0	0.0	-4.0	1.0	0.0	-5.0	-2.0	-5.0	-1.0	0.0	-2.0	5.0	-3.0	6.0	5.0	-5.0	-1.0	4.0	-1.0	-6.0
1882	121.347	11.33	2.67	0.67	0.67	3.67	12.67	4.67	1.67	0.67	-1.33	4.67	2.67	2.67	4.67	-1.33	14.67	11.67	6.67	-3.33	-1.33	6.67	1.67	0.67	0.67	3.67	6.67	9.67
1889	121.822	11.0	6.0	1.0	-3.0	3.0	-2.0	1.0	-4.0	10.0	-1.0	1.0	4.0	2.0	4.0	-3.0	-3.0	11.0	-1.0	-1.0	5.0	5.0	-1.0	6.0	0.0	3.0	4.0	0.0
1896	122.298	13.0	-7.0	0.0	0.0	-2.0	2.0	-4.0	7.0	-2.0	0.0	-5.0	-2.0	1.0	0.0	3.0	-2.0	2.0	0.0	2.0	5.0	1.0	5.0	0.0	0.0	-5.0	-1.0	4.0
1903	122.773	8.67	6.33	3.33	7.33	9.33	3.33	4.33	13.33	8.33	4.33	10.33	4.33	4.33	14.33	6.33	6.33	4.33	2.33	3.33	0.33	8.33	2.33	4.33	4.33	6.33	11.33	9.33
1910	123.25	11.0	8.0	8.0	3.0	2.0	0.0	2.0	8.0	0.0	8.0	4.0	5.0	5.0	0.0	-2.0	3.0	3.0	-1.0	9.0	0.0	-4.0	-1.0	2.0	4.0	-1.0	2.0	6.0
1917	123.726	11.0	8.0	5.0	-1.0	6.0	-2.0	-3.0	1.0	3.0	14.0	1.0	3.0	2.0	5.0	3.0	1.0	2.0	4.0	3.0	-2.0	7.0	-1.0	2.0	-1.0	6.0	9.0	13.0
1924	124.203	11.0	3.0	3.0	1.0	-1.0	-1.0	-2.0	4.0	-2.0	-2.0	-3.0	-3.0	2.0	0.0	0.0	-2.0	-1.0	8.0	0.0	3.0	3.0	0.0	1.0	3.0	-1.0	1.0	1.0
1931	124.68	10.0	2.0	2.0	9.0	5.0	-1.0	3.0	0.0	1.0	4.0	13.0	-2.0	1.0	-3.0	4.0	1.0	2.0	1.0	1.0	5.0	4.0	1.0	3.0	4.0	3.0	6.0	2.0
1938	125.158	10.67	8.33	-1.67	-3.67	0.33	3.33	-1.67	-0.67	-2.67	4.33	-4.67	-1.67	6.33	1.33	-3.67	-0.67	2.33	4.33	-0.67	4.33	-2.67	-1.67	8.33	3.33	-0.67	6.33	6.33
1945	125.635	8.0	7.0	1.0	4.0	7.0	7.0	2.0	-2.0	2.0	3.0	0.0	7.0	2.0	4.0	4.0	4.0	-1.0	3.0	5.0	-3.0	-1.0	5.0	0.0	10.0	6.0	-2.0	2.0
1952	126.114	9.67	6.33	-1.67	-5.67	4.33	-1.67	1.33	2.33	3.33	5.33	-0.67	0.33	-1.67	0.33	3.33	0.33	9.33	1.33	7.33	4.33	0.33	4.33	-0.67	4.33	-0.67	1.33	-1.67
1959	126.592	9.33	-2.33	4.67	-3.33	6.67	0.67	3.67	7.67	3.67	0.67	-1.33	1.67	-0.33	0.67	2.67	7.67	-0.33	-0.33	-2.33	-3.33	1.67	-2.33	5.67	3.67	9.67	7.67	-0.33
1966	127.071	8.33	1.67	0.67	3.67	4.67	4.67	-0.33	1.67	9.67	2.67	6.67	3.67	-0.33	-4.33	-1.33	3.67	6.67	1.67	4.67	2.67	-0.33	4.67	7.67	2.67	6.67	5.67	0.67
1973	127.55	9.67	0.33	2.33	3.33	-4.67	-1.67	1.33	1.33	4.33	5.33	1.33	4.33	4.33	-0.67	0.33	-1.67	2.33	0.33	4.33	1.33	1.33	-0.67	1.33	2.33	-0.67	5.33	4.33
1980	128.03	6.67	-0.67	2.33	4.33	1.33	1.33	5.33	-2.67	7.33	4.33	4.33	9.33	7.33	9.33	-1.67	-1.67	1.33	9.33	4.33	2.33	6.33	3.33	1.33	4.33	7.33	5.33	1.33
1987	128.51	8.33	4.67	1.67	1.67	2.67	2.67	-1.33	2.67	6.67	3.67	0.67	4.67	-1.33	2.67	-1.33	5.67	7.67	0.67	4.67	-0.33	0.67	9.67	-0.33	1.67	-1.33	6.67	2.67
1994	128.99	8.0	-1.0	3.0	-1.0	-6.0	10.0	-2.0	-4.0	-1.0	3.0	3.0	3.0	-3.0	-2.0	0.0	2.0	5.0	7.0	2.0	5.0	10.0	5.0	3.0	2.0	7.0	5.0	1.0
2001	129.471	8.33	0.67	0.67	-0.33	1.67	-1.33	-1.33	-0.33	0.67	1.67	2.67	3.67	0.67	-0.33	1.67	0.67	1.67	7.67	6.67	-4.33	0.67	-0.33	-0.33	0.67	6.67	-2.33	-3.33
2008	129.952	10.0	-3.0	-5.0	2.0	-4.0	-4.0	1.0	2.0	-5.0	-3.0	-2.0	-1.0	-3.0	-3.0	-2.0	-1.0	-2.0	1.0	0.0	1.0	-1.0	3.0	-1.0	0.0	1.0	4.0	-2.0
2015	130.433	7.67	-1.67	-1.67	2.33	-2.67	1.33	0.33	1.33	-2.67	5.33	5.33	-0.67	0.33	-1.67	2.33	-3.67	2.33	4.33	1.33	2.33	-0.67	8.33	2.33	0.33	-0.67	4.33	2.33
2022	130.915	9.67	0.33	3.33	0.33	-0.67	2.33	-4.67	-3.67	-2.67	0.33	-0.67	0.33	0.33	0.33	-0.67	-3.67	0.33	4.33	-1.67	-3.67	0.33	-0.67	0.33	3.33	2.33	0.33	-1.67
2029	131.397	8.33	3.67	2.67	-1.33	-1.33	5.67	7.67	2.67	2.67	-0.33	3.67	1.67	-0.33	3.67	-3.33	3.67	-2.33	8.67	2.67	3.67	2.67	2.67	2.67	-2.33	0.67	1.67	6.67
2036	131.879	9.0	-1.0	-2.0	1.0	0.0	-2.0	5.0	0.0	-3.0	2.0	-2.0	6.0	0.0	-6.0	-4.0	-4.0	-3.0	1.0	2.0	0.0	-2.0	-4.0	0.0	5.0	-1.0	-5.0	2.0
2043	132.362	9.0	-4.0	0.0	-2.0	2.0	3.0	4.0	0.0	0.0	-3.0	1.0	-5.0	0.0	4.0	-2.0	-2.0	1.0	0.0	-3.0	2.0	6.0	-4.0	0.0	0.0	4.0	0.0	3.0
2047	132.638	10.33	-1.33	0.67	-5.33	-0.33	1.67	-8.33	0.67	-3.33	1.67	-3.33	2.67	-3.33	-4.33	-2.33	-5.33	-1.33	-0.33	0.67	-0.33	-0.33	-3.33	1.67	-1.33	0.67	-2.33	-0.33