File: EDX Back Ups and Old Files/EDX Processed Data/High pH SF 25C 4d.txt
Name: High pH SF 25C 4d
Number of Scans: 29
Positions: [-13.0, -12.75, -12.5, -12.25, -12.0, -11.75, -11.5, -11.25, -11.0, -10.75, -10.5, -10.25, -10.0, -9.75, -9.5, -9.25, -9.0, -8.75, -8.5, -8.25, -8.0, -7.75, -7.5, -7.25, -7.0, -6.75, -6.5, -6.25, -6.0]
Points per Scan: 2048
Sample Edge: 3
Scans Off Sample: [0, 1, 2]
Conversion Features: [(275, 17444.3), (309, 19608.3), (913, 57981.7), (934, 59318.24), (1058, 67244.3)]
Degree of Fit: 3
Fit Coeffecients: [ 8.59183e-07 -0.001482  64.3003 -144.207]
pH: High
Steel Fiber: True
Aging Temp.: 25
Aging Atm.: 100% CO2
Aging Humidity: None
Aging Time: 4

*********
#Bins	Energy [keV]	Avg. Background	-12.25	-12.0	-11.75	-11.5	-11.25	-11.0	-10.75	-10.5	-10.25	-10.0	-9.75	-9.5	-9.25	-9.0	-8.75	-8.5	-8.25	-8.0	-7.75	-7.5	-7.25	-7.0	-6.75	-6.5	-6.25	-6.0
6	0.242	1800.0	25.0	40.0	33.0	103.0	23.0	-20.0	70.0	-23.0	-4.0	-31.0	-86.0	-4.0	-10.0	6.0	127.0	-16.0	-14.0	90.0	50.0	95.0	-53.0	7.0	-19.0	48.0	-9.0	-78.0
13	0.691	1202.67	80.33	36.33	100.33	55.33	-53.67	4.33	22.33	7.33	79.33	-5.67	73.33	33.33	55.33	-34.67	24.33	-29.67	-42.67	78.33	152.33	14.33	87.33	41.33	-17.67	-28.67	86.33	78.33
20	1.141	300.67	-5.67	13.33	26.33	16.33	15.33	-0.67	9.33	-11.67	9.33	1.33	2.33	7.33	17.33	3.33	40.33	14.33	6.33	4.33	4.33	1.33	1.33	8.33	18.33	1.33	35.33	17.33
27	1.591	53.67	-6.67	-3.67	-9.67	-5.67	-8.67	-4.67	-1.67	4.33	-0.67	1.33	9.33	-18.67	-15.67	-11.67	-5.67	4.33	-3.67	14.33	12.33	1.33	12.33	-5.67	5.33	-9.67	0.33	2.33
34	2.04	4.67	4.33	4.33	2.33	2.33	-1.67	0.33	-1.67	3.33	2.33	4.33	2.33	2.33	-2.67	12.33	-0.67	1.33	5.33	4.33	5.33	2.33	3.33	1.33	2.33	3.33	-0.67	1.33
41	2.49	0.0	0.0	0.0	2.0	1.0	0.0	1.0	1.0	1.0	0.0	0.0	2.0	0.0	0.0	1.0	0.0	0.0	1.0	0.0	2.0	3.0	1.0	0.0	0.0	2.0	1.0	2.0
48	2.939	0.0	0.0	0.0	1.0	0.0	0.0	0.0	0.0	0.0	0.0	0.0	0.0	0.0	1.0	0.0	0.0	0.0	1.0	2.0	1.0	0.0	1.0	1.0	0.0	0.0	0.0	0.0
55	3.388	0.33	-0.33	0.67	-0.33	-0.33	-0.33	0.67	-0.33	-0.33	-0.33	-0.33	1.67	-0.33	-0.33	0.67	-0.33	-0.33	-0.33	-0.33	-0.33	-0.33	-0.33	-0.33	0.67	-0.33	-0.33	0.67
62	3.837	0.0	0.0	0.0	0.0	2.0	1.0	0.0	1.0	1.0	0.0	0.0	0.0	0.0	0.0	2.0	1.0	0.0	0.0	0.0	0.0	1.0	0.0	0.0	0.0	1.0	0.0	0.0
69	4.286	0.33	-0.33	-0.33	1.67	-0.33	-0.33	-0.33	-0.33	0.67	-0.33	0.67	0.67	-0.33	-0.33	-0.33	-0.33	0.67	-0.33	0.67	0.67	0.67	0.67	2.67	-0.33	0.67	-0.33	0.67
76	4.734	0.67	-0.67	-0.67	-0.67	0.33	-0.67	0.33	-0.67	-0.67	0.33	-0.67	-0.67	-0.67	1.33	-0.67	0.33	-0.67	0.33	-0.67	-0.67	-0.67	-0.67	-0.67	0.33	-0.67	0.33	-0.67
83	5.183	0.0	0.0	0.0	0.0	0.0	0.0	1.0	1.0	0.0	0.0	0.0	1.0	0.0	0.0	0.0	0.0	0.0	0.0	2.0	0.0	0.0	1.0	0.0	0.0	0.0	1.0	0.0
90	5.631	1.0	-1.0	0.0	-1.0	-1.0	-1.0	-1.0	1.0	-1.0	0.0	1.0	0.0	-1.0	-1.0	-1.0	1.0	0.0	-1.0	1.0	-1.0	-1.0	-1.0	-1.0	1.0	-1.0	-1.0	2.0
97	6.08	0.67	0.33	-0.67	0.33	1.33	1.33	1.33	-0.67	2.33	1.33	-0.67	-0.67	0.33	0.33	0.33	-0.67	0.33	-0.67	-0.67	-0.67	-0.67	-0.67	1.33	3.33	-0.67	-0.67	0.33
104	6.528	0.67	1.33	-0.67	2.33	3.33	0.33	-0.67	-0.67	0.33	-0.67	1.33	0.33	-0.67	1.33	2.33	8.33	1.33	3.33	-0.67	-0.67	-0.67	1.33	-0.67	4.33	0.33	2.33	1.33
111	6.976	1.67	1.33	1.33	2.33	1.33	0.33	-0.67	-0.67	0.33	1.33	-0.67	-0.67	2.33	0.33	0.33	1.33	0.33	-0.67	3.33	-0.67	1.33	2.33	4.33	1.33	1.33	3.33	0.33
118	7.424	2.0	0.0	-1.0	3.0	5.0	3.0	-2.0	-1.0	2.0	-1.0	1.0	1.0	1.0	1.0	5.0	4.0	3.0	1.0	5.0	1.0	0.0	5.0	0.0	0.0	2.0	2.0	3.0
125	7.872	3.67	-0.67	0.33	-1.67	-0.67	2.33	4.33	2.33	3.33	1.33	4.33	0.33	-1.67	2.33	6.33	2.33	5.33	3.33	-0.67	3.33	7.33	-0.67	2.33	2.33	4.33	0.33	3.33
132	8.32	7.67	-2.67	-3.67	-3.67	0.33	-4.67	-1.67	-0.67	2.33	-4.67	6.33	-3.67	-2.67	2.33	0.33	-4.67	-0.67	-0.67	3.33	3.33	3.33	0.33	-3.67	0.33	-2.67	2.33	1.33
139	8.767	5.67	2.33	-2.67	6.33	1.33	1.33	1.33	-0.67	1.33	1.33	5.33	1.33	0.33	4.33	9.33	3.33	7.33	9.33	-1.67	3.33	6.33	2.33	3.33	2.33	4.33	-0.67	-1.67
146	9.215	8.67	-4.67	-2.67	-1.67	-0.67	4.33	-3.67	0.33	-1.67	1.33	-3.67	-0.67	-0.67	-1.67	-2.67	0.33	-1.67	0.33	4.33	2.33	2.33	5.33	4.33	2.33	7.33	-1.67	3.33
153	9.662	8.33	0.67	-1.33	0.67	3.67	-2.33	1.67	-1.33	9.67	0.67	4.67	8.67	0.67	-3.33	-2.33	-4.33	0.67	-0.33	-1.33	2.67	3.67	2.67	7.67	2.67	-3.33	-0.33	1.67
160	10.109	8.67	5.33	0.33	3.33	1.33	-2.67	11.33	-1.67	5.33	-2.67	8.33	0.33	-0.67	6.33	2.33	0.33	-2.67	3.33	7.33	-0.67	-2.67	3.33	0.33	4.33	5.33	4.33	10.33
167	10.557	11.0	1.0	-2.0	-2.0	4.0	-2.0	-1.0	-5.0	1.0	-3.0	6.0	-4.0	6.0	1.0	-6.0	-4.0	-1.0	2.0	1.0	-4.0	7.0	4.0	6.0	5.0	-5.0	-1.0	1.0
174	11.004	9.67	2.33	-2.67	-2.67	3.33	0.33	9.33	4.33	0.33	5.33	2.33	-1.67	1.33	5.33	4.33	0.33	1.33	-3.67	7.33	1.33	3.33	5.33	6.33	6.33	2.33	-0.67	0.33
181	11.451	8.67	3.33	6.33	1.33	5.33	4.33	6.33	2.33	1.33	-2.67	3.33	-0.67	3.33	1.33	5.33	6.33	6.33	6.33	5.33	7.33	2.33	-0.67	5.33	1.33	4.33	2.33	2.33
188	11.898	10.0	9.0	-4.0	-2.0	4.0	-2.0	4.0	0.0	2.0	-2.0	-1.0	0.0	-1.0	3.0	0.0	2.0	1.0	0.0	3.0	0.0	6.0	11.0	-1.0	3.0	-2.0	13.0	4.0
195	12.344	11.33	-2.33	3.67	-1.33	4.67	1.67	4.67	-0.33	-6.33	2.67	-3.33	0.67	3.67	-3.33	4.67	3.67	-5.33	-2.33	2.67	-2.33	3.67	-1.33	-3.33	0.67	3.67	6.67	3.67
202	12.791	9.0	0.0	4.0	5.0	6.0	3.0	5.0	7.0	-1.0	8.0	0.0	-1.0	1.0	3.0	3.0	0.0	4.0	7.0	2.0	-3.0	2.0	3.0	0.0	2.0	5.0	3.0	16.0
209	13.238	11.67	-1.67	-2.67	-2.67	2.33	0.33	0.33	-1.67	-2.67	0.33	-3.67	-8.67	9.33	2.33	-2.67	-0.67	4.33	-6.67	-0.67	0.33	1.33	-0.67	-0.67	0.33	-0.67	6.33	-1.67
216	13.684	9.33	-5.33	-6.33	1.67	0.67	-0.33	-4.33	-1.33	-1.33	5.67	2.67	0.67	4.67	0.67	-0.33	8.67	6.67	2.67	1.67	0.67	4.67	1.67	7.67	5.67	7.67	1.67	2.67
223	14.131	9.33	-1.33	-0.33	2.67	1.67	-1.33	0.67	6.67	1.67	5.67	1.67	2.67	1.67	4.67	0.67	2.67	3.67	-1.33	5.67	-0.33	3.67	-3.33	-1.33	-1.33	2.67	1.67	5.67
230	14.577	9.0	6.0	-1.0	4.0	0.0	3.0	0.0	-2.0	3.0	3.0	4.0	1.0	1.0	-1.0	4.0	7.0	-1.0	2.0	3.0	5.0	0.0	-1.0	-1.0	0.0	-1.0	4.0	10.0
237	15.023	11.33	-4.33	0.67	-2.33	0.67	-1.33	4.67	-3.33	1.67	4.67	-6.33	-0.33	3.67	3.67	1.67	-1.33	-2.33	-1.33	2.67	3.67	-3.33	2.67	3.67	3.67	1.67	7.67	-2.33
244	15.469	7.33	1.67	5.67	12.67	6.67	2.67	2.67	2.67	3.67	4.67	4.67	4.67	2.67	4.67	7.67	2.67	7.67	10.67	0.67	5.67	-0.33	0.67	4.67	3.67	3.67	11.67	3.67
251	15.915	11.33	-5.33	1.67	4.67	2.67	-5.33	3.67	0.67	-2.33	2.67	1.67	-1.33	9.67	-1.33	-0.33	-0.33	-0.33	6.67	7.67	4.67	-2.33	0.67	-3.33	0.67	2.67	8.67	6.67
258	16.361	14.33	-1.33	-4.33	-7.33	-2.33	-0.33	1.67	-1.33	-3.33	-8.33	-5.33	-1.33	-3.33	-2.33	-2.33	-1.33	-7.33	-0.33	-7.33	-9.33	-2.33	-3.33	-5.33	-2.33	-4.33	-10.33	-7.33
265	16.807	8.67	3.33	-1.67	3.33	2.33	2.33	1.33	6.33	5.33	1.33	5.33	-1.67	-3.67	6.33	2.33	3.33	1.33	3.33	4.33	7.33	2.33	2.33	3.33	8.33	1.33	0.33	7.33
272	17.253	10.33	-3.33	-2.33	5.67	1.67	-0.33	-0.33	-3.33	3.67	-3.33	2.67	0.67	-3.33	-4.33	-1.33	-4.33	-2.33	3.67	3.67	1.67	1.67	1.67	-4.33	-1.33	-2.33	5.67	2.67
279	17.699	9.33	-4.33	-1.33	-1.33	4.67	2.67	-0.33	0.67	4.67	-1.33	-1.33	7.67	2.67	-0.33	1.67	2.67	-4.33	6.67	-2.33	0.67	-0.33	-0.33	6.67	-1.33	6.67	-2.33	8.67
286	18.145	8.0	14.0	3.0	5.0	9.0	-1.0	9.0	6.0	4.0	4.0	-1.0	5.0	6.0	4.0	6.0	6.0	13.0	2.0	8.0	6.0	6.0	5.0	4.0	4.0	8.0	8.0	-1.0
293	18.59	9.0	1.0	3.0	2.0	6.0	3.0	5.0	7.0	7.0	7.0	2.0	1.0	0.0	3.0	3.0	0.0	-2.0	-1.0	5.0	4.0	7.0	2.0	1.0	11.0	9.0	4.0	5.0
300	19.036	11.33	3.67	3.67	-4.33	2.67	-1.33	-0.33	1.67	-2.33	1.67	-2.33	9.67	-1.33	-1.33	1.67	-5.33	-2.33	-5.33	-3.33	5.67	-2.33	-1.33	-1.33	-7.33	-1.33	-2.33	6.67
307	19.481	11.67	-1.67	-1.67	-4.67	0.33	-2.67	-1.67	-3.67	1.33	-0.67	5.33	0.33	4.33	1.33	0.33	-3.67	-6.67	-4.67	-0.67	-2.67	-0.67	-1.67	-3.67	0.33	2.33	4.33	-2.67
314	19.927	8.0	0.0	5.0	1.0	0.0	1.0	3.0	1.0	5.0	4.0	9.0	6.0	7.0	-1.0	2.0	3.0	5.0	6.0	0.0	0.0	4.0	1.0	1.0	0.0	2.0	1.0	-1.0
321	20.372	11.33	-6.33	-0.33	-1.33	-2.33	-1.33	4.67	0.67	0.67	-5.33	-2.33	-3.33	7.67	0.67	1.67	1.67	-0.33	-3.33	-3.33	-1.33	-1.33	-3.33	-0.33	-1.33	6.67	-1.33	-0.33
328	20.817	8.33	3.67	-0.33	-2.33	-0.33	4.67	-0.33	3.67	-0.33	-1.33	0.67	-2.33	8.67	-0.33	1.67	2.67	-0.33	4.67	1.67	-2.33	1.67	-2.33	6.67	5.67	2.67	-4.33	0.67
335	21.262	12.33	0.67	-0.33	-4.33	4.67	-1.33	1.67	-0.33	-1.33	-4.33	-4.33	-0.33	-6.33	2.67	0.67	-6.33	-3.33	-4.33	2.67	1.67	-6.33	4.67	-1.33	-2.33	-2.33	-6.33	3.67
342	21.708	7.67	2.33	5.33	1.33	5.33	-0.67	4.33	1.33	5.33	-1.67	8.33	5.33	3.33	-0.67	5.33	1.33	1.33	0.33	3.33	6.33	9.33	1.33	7.33	3.33	7.33	6.33	0.33
349	22.153	7.33	-4.33	2.67	2.67	0.67	8.67	4.67	2.67	3.67	7.67	2.67	2.67	8.67	-0.33	2.67	3.67	1.67	1.67	0.67	13.67	0.67	4.67	2.67	5.67	2.67	4.67	2.67
356	22.598	10.67	-6.67	-1.67	-3.67	-4.67	-0.67	-4.67	-1.67	-2.67	0.33	-2.67	-2.67	-0.67	-3.67	-3.67	3.33	-5.67	1.33	1.33	-0.67	4.33	1.33	1.33	-2.67	0.33	-3.67	2.33
363	23.043	8.33	-3.33	-3.33	-0.33	2.67	-2.33	0.67	0.67	4.67	2.67	-0.33	-5.33	3.67	6.67	2.67	4.67	4.67	-0.33	1.67	0.67	1.67	0.67	8.67	0.67	-1.33	-0.33	4.67
370	23.488	8.67	-0.67	0.33	1.33	-1.67	-2.67	-1.67	0.33	4.33	0.33	1.33	-1.67	-1.67	3.33	-0.67	6.33	1.33	4.33	-0.67	3.33	2.33	3.33	0.33	1.33	5.33	2.33	4.33
377	23.932	10.33	-3.33	0.67	-4.33	-2.33	2.67	-2.33	-0.33	-2.33	-2.33	0.67	-0.33	-2.33	-2.33	-5.33	2.67	3.67	-0.33	-2.33	1.67	-2.33	-1.33	-0.33	-0.33	-1.33	-6.33	-1.33
384	24.377	6.67	-2.67	3.33	-2.67	0.33	4.33	-0.67	3.33	0.33	2.33	5.33	5.33	2.33	3.33	5.33	6.33	1.33	5.33	3.33	2.33	7.33	-0.67	6.33	-2.67	7.33	-0.67	0.33
391	24.822	9.67	-1.67	6.33	-2.67	-3.67	-2.67	-2.67	-1.67	-0.67	3.33	3.33	0.33	4.33	-1.67	2.33	2.33	-6.67	1.33	3.33	0.33	2.33	-1.67	-1.67	2.33	-5.67	5.33	9.33
398	25.267	8.67	1.33	-1.67	1.33	-1.67	-1.67	-3.67	-2.67	6.33	-1.67	2.33	6.33	-0.67	-0.67	3.33	-2.67	9.33	0.33	-2.67	3.33	4.33	-0.67	-5.67	0.33	-1.67	0.33	-3.67
405	25.711	5.67	-0.67	-2.67	-3.67	-3.67	6.33	2.33	9.33	3.33	7.33	3.33	5.33	2.33	1.33	1.33	4.33	4.33	4.33	2.33	0.33	5.33	-2.67	3.33	0.33	3.33	5.33	5.33
412	26.156	4.67	0.33	-0.67	-0.67	1.33	7.33	2.33	2.33	3.33	0.33	3.33	-0.67	5.33	5.33	4.33	1.33	0.33	3.33	7.33	0.33	6.33	1.33	3.33	2.33	6.33	6.33	1.33
419	26.601	7.67	8.33	2.33	4.33	-4.67	-0.67	-0.67	2.33	2.33	-2.67	6.33	3.33	0.33	-1.67	-3.67	-0.67	1.33	-3.67	1.33	0.33	3.33	1.33	-1.67	3.33	3.33	-1.67	1.33
426	27.045	6.67	2.33	0.33	0.33	3.33	0.33	2.33	2.33	1.33	-0.67	-1.67	0.33	0.33	-3.67	2.33	1.33	1.33	9.33	2.33	0.33	3.33	6.33	-2.67	1.33	0.33	-4.67	-1.67
433	27.49	7.0	4.0	2.0	-3.0	3.0	0.0	1.0	3.0	2.0	-1.0	1.0	-3.0	-2.0	-2.0	2.0	-2.0	-1.0	0.0	-1.0	2.0	-1.0	-1.0	1.0	5.0	1.0	0.0	-1.0
440	27.934	4.67	2.33	2.33	-1.67	4.33	2.33	5.33	2.33	5.33	2.33	3.33	4.33	-0.67	7.33	9.33	5.33	0.33	4.33	5.33	1.33	-1.67	6.33	1.33	0.33	1.33	1.33	4.33
447	28.379	5.33	7.67	-2.33	2.67	4.67	-1.33	0.67	2.67	2.67	0.67	-1.33	3.67	1.67	0.67	3.67	3.67	4.67	-0.33	-1.33	4.67	3.67	2.67	-0.33	0.67	4.67	3.67	6.67
454	28.823	7.0	1.0	-2.0	1.0	-2.0	0.0	-4.0	1.0	0.0	-1.0	-2.0	-3.0	0.0	-3.0	4.0	-2.0	6.0	2.0	2.0	-1.0	0.0	-3.0	2.0	2.0	4.0	2.0	-1.0
461	29.267	8.0	-1.0	-2.0	-2.0	-4.0	-3.0	4.0	-1.0	3.0	2.0	-2.0	-5.0	0.0	0.0	0.0	-1.0	-4.0	3.0	-1.0	-5.0	0.0	-3.0	-4.0	1.0	1.0	1.0	0.0
468	29.712	7.33	4.67	-2.33	-3.33	-1.33	-1.33	0.67	-4.33	-2.33	1.67	4.67	1.67	0.67	1.67	2.67	-0.33	-5.33	4.67	0.67	0.67	5.67	-2.33	-1.33	3.67	2.67	-0.33	2.67
475	30.156	3.33	9.67	5.67	1.67	3.67	9.67	-0.33	-0.33	3.67	-2.33	2.67	-0.33	2.67	4.67	1.67	5.67	6.67	3.67	7.67	4.67	4.67	4.67	7.67	6.67	5.67	2.67	5.67
482	30.6	6.33	5.67	-1.33	3.67	-2.33	-0.33	6.67	-5.33	4.67	2.67	-1.33	-0.33	1.67	-0.33	-0.33	2.67	1.67	-0.33	-2.33	0.67	8.67	-2.33	0.67	1.67	3.67	0.67	4.67
489	31.045	6.67	-6.67	3.33	-1.67	2.33	2.33	3.33	0.33	0.33	6.33	1.33	-0.67	-2.67	1.33	1.33	-0.67	-3.67	1.33	-0.67	-1.67	2.33	-2.67	3.33	0.33	0.33	-1.67	-1.67
496	31.489	7.33	-1.33	-1.33	-2.33	-2.33	-2.33	-0.33	-2.33	0.67	-2.33	0.67	-4.33	-5.33	-2.33	-3.33	-1.33	-3.33	-0.33	-6.33	-2.33	-4.33	1.67	-0.33	3.67	1.67	-4.33	-3.33
503	31.933	7.0	-1.0	-3.0	-3.0	0.0	-4.0	-3.0	-1.0	4.0	-1.0	-5.0	-4.0	-2.0	-5.0	1.0	-1.0	3.0	2.0	1.0	-3.0	4.0	-3.0	1.0	-3.0	0.0	1.0	-2.0
510	32.377	6.0	5.0	4.0	0.0	-1.0	-2.0	-3.0	1.0	-3.0	6.0	6.0	1.0	3.0	3.0	-2.0	2.0	-2.0	3.0	0.0	0.0	-1.0	3.0	3.0	-1.0	2.0	0.0	0.0
517	32.822	5.33	-0.33	2.67	-0.33	0.67	-0.33	2.67	-0.33	1.67	2.67	-0.33	-3.33	1.67	2.67	-1.33	-0.33	1.67	-2.33	-0.33	2.67	-2.33	2.67	2.67	4.67	0.67	5.67	2.67
524	33.266	6.0	-3.0	-3.0	0.0	-1.0	-2.0	-3.0	-1.0	-1.0	1.0	0.0	-1.0	-2.0	1.0	-1.0	-3.0	5.0	-1.0	-1.0	-1.0	-1.0	-3.0	0.0	4.0	-1.0	1.0	-4.0
531	33.71	4.0	4.0	5.0	1.0	3.0	3.0	-2.0	2.0	1.0	2.0	1.0	3.0	5.0	-2.0	-1.0	0.0	0.0	5.0	5.0	-1.0	0.0	6.0	-2.0	4.0	5.0	1.0	1.0
538	34.154	5.33	-0.33	2.67	-2.33	-1.33	-2.33	0.67	-2.33	3.67	-0.33	-5.33	3.67	-1.33	-0.33	0.67	-2.33	-2.33	2.67	1.67	0.67	7.67	0.67	0.67	4.67	3.67	-1.33	7.67
545	34.598	5.0	3.0	0.0	-1.0	4.0	0.0	5.0	-3.0	4.0	-1.0	6.0	-2.0	3.0	-2.0	5.0	-1.0	-1.0	1.0	3.0	0.0	-5.0	-1.0	1.0	2.0	-1.0	2.0	0.0
552	35.043	7.0	-1.0	-1.0	1.0	-1.0	-3.0	-2.0	2.0	5.0	-3.0	-6.0	-3.0	0.0	5.0	-4.0	0.0	-2.0	4.0	-3.0	3.0	-1.0	3.0	-3.0	-1.0	-6.0	-3.0	-2.0
559	35.487	7.0	-3.0	1.0	-3.0	0.0	0.0	-5.0	-1.0	-3.0	6.0	-1.0	-3.0	1.0	-2.0	-4.0	-1.0	-2.0	-4.0	-1.0	-2.0	0.0	1.0	-6.0	6.0	0.0	-4.0	3.0
566	35.931	4.0	0.0	3.0	1.0	0.0	1.0	-1.0	-1.0	0.0	-1.0	2.0	6.0	-1.0	3.0	2.0	4.0	1.0	3.0	3.0	4.0	2.0	3.0	-1.0	2.0	5.0	5.0	0.0
573	36.375	4.33	-0.33	-0.33	-0.33	3.67	-3.33	-1.33	-0.33	2.67	1.67	-0.33	1.67	1.67	-2.33	-1.33	0.67	1.67	3.67	7.67	0.67	0.67	7.67	1.67	-1.33	2.67	0.67	3.67
580	36.819	6.67	3.33	-2.67	0.33	-3.67	-2.67	-2.67	-0.67	-4.67	-1.67	4.33	-2.67	-2.67	-4.67	-0.67	-3.67	1.33	-2.67	2.33	-3.67	-3.67	-4.67	0.33	0.33	-0.67	-2.67	1.33
587	37.263	4.67	-1.67	-1.67	1.33	1.33	3.33	0.33	0.33	-1.67	2.33	0.33	0.33	0.33	-0.67	1.33	2.33	-0.67	-1.67	0.33	4.33	-0.67	0.33	2.33	3.33	0.33	1.33	1.33
594	37.707	6.0	0.0	-2.0	2.0	5.0	-3.0	2.0	-1.0	1.0	0.0	-3.0	1.0	-2.0	2.0	-1.0	0.0	-3.0	-3.0	-1.0	-1.0	-4.0	-2.0	4.0	-2.0	-1.0	3.0	1.0
601	38.152	5.33	-0.33	-1.33	-1.33	-0.33	-3.33	-1.33	3.67	0.67	0.67	-1.33	-2.33	-0.33	-1.33	7.67	-1.33	2.67	3.67	2.67	-3.33	-1.33	3.67	5.67	1.67	0.67	-2.33	-0.33
608	38.596	5.67	-0.67	2.33	-0.67	2.33	2.33	-0.67	-3.67	1.33	-0.67	4.33	-2.67	1.33	-0.67	-1.67	0.33	-1.67	1.33	0.33	-1.67	1.33	1.33	-0.67	6.33	4.33	2.33	3.33
615	39.04	4.0	0.0	-1.0	4.0	3.0	1.0	4.0	3.0	1.0	3.0	2.0	0.0	1.0	2.0	1.0	0.0	1.0	1.0	0.0	3.0	0.0	1.0	2.0	5.0	2.0	2.0	-1.0
622	39.484	5.0	0.0	-2.0	0.0	7.0	2.0	3.0	0.0	1.0	-1.0	7.0	1.0	2.0	0.0	3.0	-1.0	5.0	3.0	0.0	0.0	-1.0	0.0	5.0	-3.0	2.0	1.0	5.0
629	39.928	5.67	1.33	-2.67	-0.67	-0.67	-1.67	1.33	-1.67	-0.67	-2.67	2.33	0.33	3.33	1.33	2.33	-0.67	-2.67	3.33	4.33	3.33	-1.67	-0.67	-1.67	-1.67	0.33	2.33	0.33
636	40.372	5.33	-0.33	3.67	2.67	1.67	0.67	-0.33	2.67	2.67	0.67	-3.33	-1.33	0.67	-1.33	-2.33	0.67	1.67	-1.33	-2.33	-1.33	-0.33	2.67	3.67	2.67	-1.33	-1.33	-0.33
643	40.817	6.33	2.67	0.67	-4.33	2.67	0.67	-0.33	1.67	0.67	2.67	0.67	0.67	5.67	-1.33	-2.33	-3.33	0.67	-3.33	-0.33	-3.33	0.67	0.67	-2.33	2.67	-0.33	-0.33	-1.33
650	41.261	8.0	2.0	-3.0	-5.0	-5.0	-7.0	-4.0	-4.0	-1.0	-3.0	-2.0	4.0	-2.0	-7.0	-2.0	-5.0	-2.0	-4.0	-5.0	-5.0	1.0	-3.0	2.0	-3.0	1.0	1.0	0.0
657	41.705	9.33	-4.33	-3.33	-1.33	-8.33	-2.33	-4.33	-2.33	-4.33	-0.33	-3.33	-1.33	-5.33	-2.33	-1.33	-5.33	-5.33	-2.33	-6.33	-2.33	-4.33	-1.33	-3.33	0.67	-3.33	-5.33	-5.33
664	42.149	8.67	-3.67	0.33	-5.67	-5.67	-2.67	-1.67	-4.67	-2.67	0.33	-6.67	-5.67	-2.67	-4.67	-1.67	-3.67	-2.67	1.33	-3.67	-3.67	2.33	-2.67	-3.67	-3.67	0.33	2.33	2.33
671	42.594	8.67	-4.67	0.33	-4.67	-3.67	-1.67	-4.67	-4.67	-1.67	5.33	-3.67	-0.67	-3.67	-4.67	3.33	-3.67	-2.67	-2.67	-1.67	-0.67	-4.67	-4.67	1.33	-2.67	-2.67	-2.67	-3.67
678	43.038	7.33	-1.33	1.67	0.67	-2.33	0.67	-1.33	-1.33	-2.33	6.67	-2.33	-2.33	-5.33	-0.33	2.67	-1.33	-5.33	1.67	-0.33	-5.33	-2.33	0.67	0.67	1.67	-1.33	-3.33	-2.33
685	43.482	7.67	-0.67	0.33	2.33	-0.67	-2.67	1.33	-0.67	-3.67	-2.67	-1.67	-1.67	-4.67	-0.67	-2.67	-1.67	-4.67	-3.67	-5.67	-3.67	-1.67	-0.67	-1.67	-0.67	-1.67	4.33	-2.67
692	43.927	7.67	1.33	1.33	-4.67	3.33	-5.67	-3.67	6.33	-6.67	-3.67	1.33	-3.67	1.33	-1.67	-1.67	-0.67	-2.67	0.33	-2.67	-2.67	-0.67	-2.67	1.33	2.33	0.33	-4.67	1.33
699	44.371	7.0	1.0	3.0	-1.0	-1.0	1.0	0.0	-2.0	4.0	2.0	1.0	1.0	0.0	-2.0	1.0	1.0	0.0	-5.0	2.0	6.0	0.0	1.0	1.0	2.0	-3.0	0.0	0.0
706	44.815	9.33	1.67	-5.33	0.67	0.67	-1.33	-1.33	-1.33	-4.33	-6.33	-4.33	-2.33	-4.33	-0.33	-5.33	-0.33	-1.33	0.67	0.67	0.67	1.67	-2.33	-3.33	-2.33	-6.33	-4.33	-5.33
713	45.26	8.33	-1.33	0.67	-2.33	0.67	-2.33	1.67	0.67	-2.33	-2.33	0.67	3.67	-2.33	2.67	-1.33	-3.33	1.67	2.67	0.67	1.67	-1.33	-0.33	2.67	-2.33	-2.33	0.67	0.67
720	45.704	10.33	-3.33	-6.33	-5.33	-5.33	1.67	-3.33	-6.33	-0.33	-10.33	2.67	-4.33	-3.33	-8.33	-4.33	1.67	2.67	-2.33	-2.33	-6.33	-4.33	-1.33	-1.33	-2.33	-2.33	-7.33	-1.33
727	46.149	9.67	-1.67	-4.67	4.33	0.33	-2.67	-1.67	-0.67	-2.67	-2.67	-5.67	-5.67	-4.67	-2.67	-2.67	2.33	-4.67	-6.67	-2.67	-1.67	1.33	-0.67	-1.67	-5.67	-3.67	0.33	-2.67
734	46.594	11.67	-2.67	-3.67	4.33	-2.67	-4.67	-4.67	-3.67	-5.67	-2.67	-5.67	-3.67	-3.67	-5.67	-2.67	-4.67	-8.67	-4.67	-3.67	-5.67	-0.67	-0.67	-6.67	2.33	-5.67	-4.67	-2.67
741	47.038	8.33	7.67	-4.33	-3.33	-0.33	-1.33	-3.33	-5.33	6.67	-3.33	-2.33	3.67	-1.33	-2.33	5.67	0.67	-1.33	-3.33	7.67	-5.33	-2.33	3.67	-0.33	-2.33	1.67	-0.33	-0.33
748	47.483	13.0	-4.0	-1.0	-3.0	0.0	-3.0	-5.0	-6.0	-6.0	-5.0	-5.0	-3.0	-7.0	-4.0	-2.0	-4.0	-4.0	-5.0	-6.0	1.0	2.0	-4.0	-4.0	-4.0	-4.0	2.0	-4.0
755	47.928	10.33	2.67	-7.33	-2.33	-5.33	-1.33	-0.33	-2.33	-5.33	0.67	1.67	1.67	0.67	-8.33	-0.33	-3.33	-1.33	2.67	-4.33	-0.33	2.67	1.67	-5.33	-4.33	-5.33	-5.33	-1.33
762	48.372	12.0	2.0	-3.0	-5.0	-5.0	-7.0	-7.0	3.0	-8.0	-4.0	-3.0	-6.0	-8.0	-7.0	-4.0	-4.0	1.0	-2.0	-7.0	1.0	-3.0	-6.0	0.0	-3.0	-8.0	-7.0	-4.0
769	48.817	10.67	2.33	1.33	-2.67	0.33	2.33	4.33	3.33	1.33	-1.67	-3.67	-3.67	-2.67	-0.67	-3.67	-4.67	-5.67	-3.67	-0.67	-3.67	-4.67	-0.67	-2.67	-4.67	-2.67	-1.67	1.33
776	49.262	10.67	-4.67	1.33	2.33	-5.67	-0.67	-2.67	0.33	-3.67	-5.67	3.33	-1.67	-2.67	2.33	-5.67	-0.67	2.33	-1.67	-2.67	-2.67	-1.67	-3.67	-4.67	0.33	3.33	-0.67	2.33
783	49.707	12.33	-5.33	-3.33	-0.33	-2.33	8.67	3.67	-3.33	-7.33	1.67	-2.33	-0.33	-4.33	-6.33	4.67	-4.33	-1.33	-9.33	2.67	-0.33	1.67	-7.33	-3.33	-7.33	-2.33	-3.33	4.67
790	50.152	11.67	1.33	0.33	1.33	-3.67	-5.67	4.33	0.33	2.33	5.33	7.33	4.33	-0.67	-5.67	1.33	8.33	2.33	0.33	-0.67	-1.67	5.33	-4.67	-0.67	1.33	-3.67	-7.67	1.33
797	50.597	14.33	-1.33	-5.33	-1.33	-4.33	3.67	-4.33	6.67	-1.33	7.67	10.67	6.67	-3.33	-5.33	0.67	-0.33	-5.33	-4.33	5.67	-1.33	1.67	-1.33	4.67	-3.33	0.67	0.67	0.67
804	51.042	12.0	7.0	4.0	2.0	-1.0	21.0	13.0	8.0	12.0	16.0	16.0	16.0	14.0	14.0	11.0	7.0	4.0	12.0	7.0	12.0	2.0	11.0	10.0	19.0	12.0	9.0	18.0
811	51.487	15.0	7.0	0.0	-2.0	6.0	20.0	33.0	35.0	31.0	29.0	27.0	17.0	23.0	23.0	20.0	26.0	26.0	25.0	27.0	26.0	12.0	12.0	24.0	21.0	12.0	17.0	14.0
818	51.932	13.67	10.33	2.33	-2.67	-0.67	26.33	21.33	25.33	35.33	14.33	33.33	31.33	25.33	29.33	19.33	22.33	14.33	17.33	20.33	15.33	13.33	10.33	9.33	17.33	21.33	17.33	22.33
825	52.377	16.67	-4.67	-1.67	-2.67	-3.67	13.33	3.33	3.33	9.33	5.33	0.33	11.33	-0.67	3.33	4.33	-3.67	-3.67	3.33	-8.67	0.33	-3.67	0.33	-0.67	2.33	14.33	-5.67	1.33
832	52.823	16.33	-5.33	-3.33	8.67	-0.33	-4.33	-5.33	-2.33	-1.33	1.67	-3.33	-1.33	-0.33	2.67	-5.33	-3.33	-6.33	-5.33	-3.33	-2.33	-0.33	-5.33	-3.33	1.67	-3.33	-0.33	-14.33
839	53.268	15.67	-6.67	-6.67	2.33	-6.67	1.33	0.33	-1.67	7.33	-2.67	-3.67	-4.67	-0.67	-2.67	-2.67	-2.67	-7.67	-0.67	-3.67	-3.67	-5.67	-3.67	-4.67	-4.67	-3.67	-4.67	-4.67
846	53.713	14.0	-3.0	0.0	0.0	1.0	-2.0	2.0	0.0	-6.0	5.0	-4.0	-2.0	-4.0	-2.0	-1.0	-6.0	1.0	-3.0	-3.0	-5.0	-2.0	4.0	-5.0	-5.0	-3.0	1.0	0.0
853	54.159	16.67	-6.67	-12.67	-5.67	-3.67	-2.67	0.33	-2.67	-1.67	-5.67	3.33	-5.67	2.33	3.33	-5.67	0.33	-2.67	-5.67	-7.67	1.33	-3.67	3.33	-5.67	-6.67	-1.67	1.33	-3.67
860	54.604	14.67	0.33	1.33	0.33	-0.67	-3.67	1.33	5.33	-9.67	-4.67	-1.67	1.33	-0.67	-1.67	1.33	-8.67	-4.67	-4.67	3.33	-5.67	-4.67	-0.67	-4.67	-1.67	-0.67	-7.67	-4.67
867	55.05	15.67	-10.67	-7.67	-1.67	-1.67	-9.67	-5.67	-2.67	-3.67	2.33	-7.67	-0.67	-8.67	-8.67	0.33	-3.67	0.33	-8.67	1.33	2.33	-0.67	-4.67	-6.67	-0.67	-3.67	0.33	-5.67
874	55.496	13.0	1.0	0.0	-2.0	0.0	4.0	-2.0	4.0	1.0	3.0	-3.0	-1.0	0.0	-1.0	-1.0	-4.0	-2.0	1.0	9.0	-2.0	-3.0	1.0	2.0	0.0	6.0	-5.0	-1.0
881	55.942	19.33	-3.33	-1.33	-5.33	-5.33	-11.33	-4.33	0.67	0.67	-13.33	-13.33	-0.33	-0.33	-1.33	-8.33	-4.33	-4.33	-3.33	-5.33	-6.33	-6.33	-6.33	-3.33	0.67	-11.33	-10.33	-0.33
888	56.387	13.0	4.0	-1.0	0.0	-5.0	3.0	5.0	-4.0	5.0	-1.0	8.0	-1.0	-5.0	-1.0	7.0	7.0	-1.0	3.0	-1.0	-7.0	7.0	0.0	-1.0	-8.0	4.0	3.0	1.0
895	56.833	13.67	-2.67	2.33	-1.67	-4.67	4.33	6.33	-3.67	1.33	-0.67	-0.67	3.33	-1.67	2.33	2.33	-3.67	2.33	-2.67	1.33	5.33	-7.67	-2.67	1.33	-0.67	-3.67	-4.67	3.33
902	57.279	17.67	-9.67	-0.67	1.33	-0.67	-0.67	2.33	-0.67	-5.67	1.33	-7.67	5.33	-4.67	-1.67	-2.67	-3.67	-6.67	-1.67	-3.67	-0.67	-5.67	-2.67	-7.67	-8.67	-7.67	-4.67	-0.67
909	57.726	24.67	-9.67	-12.67	-9.67	-6.67	-13.67	-6.67	-0.67	-1.67	-12.67	-4.67	-5.67	-14.67	-10.67	5.33	-6.67	-9.67	-8.67	-0.67	-4.67	-3.67	-2.67	-7.67	-9.67	-11.67	-10.67	-8.67
916	58.172	21.67	-6.67	-5.67	-7.67	-4.67	-4.67	-13.67	-3.67	-9.67	-5.67	-2.67	-0.67	-6.67	-14.67	-2.67	-9.67	-10.67	-1.67	-6.67	-9.67	2.33	-0.67	-6.67	-4.67	-6.67	-1.67	-4.67
923	58.618	18.0	-2.0	0.0	-4.0	5.0	-4.0	-6.0	-5.0	-5.0	-4.0	-3.0	-5.0	-5.0	1.0	-3.0	-1.0	2.0	-6.0	-2.0	0.0	1.0	-2.0	-3.0	-8.0	-8.0	-3.0	0.0
930	59.064	20.0	-3.0	3.0	-5.0	-5.0	-1.0	0.0	-9.0	-1.0	11.0	-2.0	-1.0	-2.0	-7.0	-5.0	-3.0	-9.0	0.0	8.0	-6.0	-12.0	-1.0	-2.0	-12.0	1.0	1.0	-5.0
937	59.511	20.33	-1.33	-4.33	0.67	-2.33	4.67	1.67	1.67	-6.33	-10.33	5.67	-1.33	-7.33	-5.33	-0.33	-2.33	-0.33	-2.33	1.67	0.67	-4.33	-2.33	3.67	2.67	-7.33	1.67	1.67
944	59.957	19.67	0.33	1.33	-0.67	-4.67	-9.67	-9.67	2.33	-6.67	-2.67	-7.67	-9.67	-2.67	-6.67	-11.67	-7.67	-6.67	-7.67	-6.67	-6.67	-0.67	-9.67	-7.67	-1.67	-5.67	-8.67	-4.67
951	60.404	13.0	-6.0	1.0	0.0	0.0	3.0	-6.0	5.0	-5.0	2.0	-2.0	5.0	7.0	-5.0	0.0	2.0	0.0	4.0	-3.0	4.0	10.0	-1.0	2.0	-4.0	-1.0	0.0	2.0
958	60.851	22.33	-7.33	-3.33	-7.33	-5.33	-5.33	-12.33	-6.33	-10.33	-0.33	-15.33	-7.33	-8.33	-8.33	-9.33	-10.33	-9.33	-8.33	-8.33	-4.33	-12.33	-15.33	-18.33	-11.33	-10.33	-13.33	-10.33
965	61.298	11.33	5.67	5.67	7.67	3.67	3.67	4.67	4.67	3.67	7.67	-2.33	1.67	3.67	4.67	4.67	8.67	7.67	0.67	2.67	4.67	2.67	-3.33	2.67	0.67	6.67	5.67	5.67
972	61.745	15.67	4.33	0.33	1.33	1.33	6.33	0.33	-2.67	-4.67	0.33	-4.67	1.33	0.33	-1.67	-0.67	2.33	-6.67	1.33	-1.67	-3.67	-1.67	-6.67	-6.67	7.33	-1.67	-0.67	1.33
979	62.192	16.67	2.33	4.33	0.33	-3.67	-0.67	-1.67	-7.67	2.33	1.33	6.33	-3.67	3.33	0.33	7.33	-2.67	2.33	-0.67	4.33	-2.67	-3.67	-3.67	1.33	-4.67	-3.67	-2.67	-4.67
986	62.639	21.33	-5.33	-13.33	-3.33	-0.33	-8.33	5.67	-6.33	-5.33	-9.33	-1.33	-4.33	-3.33	-4.33	-9.33	-0.33	-3.33	-12.33	-4.33	-10.33	-3.33	-9.33	-11.33	-11.33	-3.33	-5.33	-8.33
993	63.086	16.33	-3.33	1.67	2.67	-9.33	9.67	-0.33	-1.33	-0.33	-0.33	2.67	-5.33	6.67	-3.33	2.67	6.67	-0.33	-1.33	1.67	-1.33	2.67	-1.33	1.67	0.67	-2.33	6.67	0.67
1000	63.533	16.0	1.0	4.0	-2.0	-2.0	-2.0	2.0	2.0	1.0	-1.0	-3.0	-3.0	-3.0	7.0	-6.0	-1.0	-3.0	-1.0	-2.0	4.0	2.0	-5.0	2.0	0.0	-4.0	-4.0	2.0
1007	63.981	15.0	5.0	4.0	6.0	1.0	3.0	2.0	0.0	3.0	-1.0	-3.0	0.0	-1.0	-7.0	3.0	6.0	4.0	4.0	1.0	-1.0	-1.0	10.0	-4.0	-5.0	3.0	-2.0	-1.0
1014	64.428	16.33	2.67	-7.33	10.67	1.67	4.67	2.67	8.67	1.67	-5.33	-1.33	-4.33	-2.33	0.67	-1.33	-2.33	-0.33	0.67	2.67	2.67	2.67	-7.33	3.67	0.67	1.67	2.67	-0.33
1021	64.876	15.0	24.0	2.0	16.0	17.0	0.0	20.0	6.0	10.0	0.0	2.0	9.0	9.0	13.0	3.0	10.0	-1.0	9.0	-1.0	6.0	11.0	10.0	12.0	-6.0	11.0	10.0	-2.0
1028	65.324	13.67	11.33	26.33	28.33	15.33	24.33	27.33	22.33	28.33	11.33	16.33	30.33	14.33	15.33	18.33	21.33	11.33	8.33	9.33	6.33	4.33	8.33	10.33	13.33	19.33	10.33	16.33
1035	65.772	20.0	18.0	28.0	28.0	26.0	29.0	17.0	13.0	14.0	16.0	19.0	6.0	9.0	11.0	17.0	6.0	10.0	6.0	16.0	14.0	10.0	5.0	11.0	21.0	18.0	5.0	21.0
1042	66.22	20.67	1.33	17.33	19.33	15.33	6.33	16.33	9.33	9.33	17.33	19.33	14.33	6.33	10.33	20.33	11.33	8.33	1.33	-0.67	17.33	3.33	4.33	4.33	11.33	4.33	2.33	8.33
1049	66.668	18.67	2.33	18.33	13.33	5.33	15.33	2.33	9.33	3.33	10.33	14.33	3.33	4.33	4.33	-1.67	7.33	9.33	5.33	0.33	7.33	-5.67	1.33	2.33	8.33	0.33	-2.67	-1.67
1056	67.116	22.0	-1.0	-5.0	0.0	9.0	-3.0	5.0	-3.0	1.0	1.0	3.0	-1.0	-4.0	2.0	4.0	-1.0	-3.0	-2.0	-4.0	-4.0	4.0	-6.0	-3.0	2.0	-5.0	-3.0	1.0
1063	67.564	18.0	3.0	2.0	0.0	-4.0	12.0	5.0	11.0	11.0	10.0	0.0	0.0	1.0	5.0	1.0	3.0	12.0	-2.0	4.0	6.0	0.0	-8.0	4.0	0.0	2.0	-3.0	6.0
1070	68.013	16.0	6.0	2.0	10.0	5.0	9.0	8.0	0.0	5.0	9.0	2.0	-4.0	3.0	3.0	4.0	2.0	5.0	-1.0	1.0	5.0	7.0	0.0	-4.0	7.0	3.0	-3.0	4.0
1077	68.462	15.67	2.33	4.33	3.33	8.33	2.33	10.33	8.33	7.33	6.33	5.33	-1.67	3.33	4.33	6.33	10.33	0.33	5.33	3.33	0.33	6.33	10.33	-1.67	7.33	4.33	4.33	5.33
1084	68.91	14.33	-3.33	2.67	17.67	12.67	5.67	10.67	6.67	-2.33	2.67	-0.33	11.67	1.67	-3.33	5.67	0.67	1.67	9.67	-1.33	11.67	7.67	5.67	1.67	5.67	9.67	15.67	1.67
1091	69.359	16.0	5.0	8.0	-2.0	5.0	-1.0	0.0	3.0	-4.0	5.0	0.0	5.0	7.0	9.0	4.0	10.0	7.0	-2.0	10.0	2.0	-2.0	5.0	6.0	2.0	8.0	13.0	4.0
1098	69.808	12.33	6.67	-0.33	5.67	15.67	16.67	1.67	-0.33	1.67	18.67	13.67	3.67	5.67	-2.33	0.67	-0.33	7.67	5.67	15.67	1.67	-0.33	7.67	6.67	3.67	6.67	13.67	11.67
1105	70.257	16.0	1.0	-2.0	6.0	6.0	2.0	2.0	0.0	-1.0	6.0	1.0	10.0	3.0	8.0	7.0	-1.0	-3.0	2.0	4.0	-1.0	2.0	2.0	-1.0	-2.0	0.0	3.0	8.0
1112	70.707	10.33	5.67	3.67	13.67	0.67	18.67	13.67	6.67	2.67	5.67	6.67	6.67	5.67	7.67	9.67	8.67	9.67	15.67	7.67	8.67	12.67	9.67	7.67	5.67	9.67	8.67	9.67
1119	71.156	16.67	-3.67	7.33	5.33	10.33	4.33	4.33	9.33	0.33	3.33	5.33	2.33	-0.67	2.33	-5.67	0.33	-0.67	0.33	1.33	5.33	7.33	3.33	4.33	-5.67	5.33	-3.67	4.33
1126	71.606	14.0	0.0	4.0	-7.0	-1.0	9.0	5.0	13.0	11.0	1.0	2.0	5.0	6.0	7.0	5.0	1.0	-2.0	5.0	3.0	2.0	6.0	2.0	7.0	12.0	3.0	3.0	1.0
1133	72.055	13.67	7.33	4.33	8.33	5.33	6.33	12.33	5.33	4.33	4.33	3.33	19.33	2.33	0.33	10.33	-1.67	4.33	6.33	3.33	4.33	8.33	1.33	9.33	8.33	12.33	14.33	-1.67
1140	72.505	20.33	-4.33	-1.33	-3.33	8.67	10.67	-1.33	17.67	2.67	-3.33	1.67	6.67	9.67	5.67	-8.33	8.67	6.67	10.67	0.67	6.67	-8.33	9.67	7.67	8.67	1.67	4.67	10.67
1147	72.955	30.0	2.0	13.0	7.0	0.0	18.0	15.0	0.0	12.0	3.0	11.0	-3.0	12.0	6.0	6.0	-3.0	0.0	4.0	10.0	5.0	2.0	12.0	6.0	0.0	-3.0	9.0	10.0
1154	73.405	22.67	-0.67	6.33	4.33	11.33	11.33	12.33	3.33	4.33	7.33	2.33	4.33	5.33	5.33	6.33	-1.67	3.33	5.33	2.33	9.33	9.33	6.33	6.33	9.33	2.33	-1.67	3.33
1161	73.855	18.0	-3.0	1.0	11.0	6.0	6.0	4.0	12.0	-4.0	8.0	1.0	6.0	5.0	7.0	-2.0	4.0	4.0	2.0	2.0	9.0	4.0	-6.0	6.0	-3.0	5.0	6.0	11.0
1168	74.306	14.0	5.0	12.0	13.0	6.0	4.0	2.0	6.0	7.0	18.0	0.0	12.0	15.0	10.0	2.0	16.0	5.0	6.0	6.0	3.0	14.0	8.0	11.0	11.0	9.0	11.0	8.0
1175	74.756	24.33	-0.33	2.67	-0.33	11.67	16.67	13.67	4.67	1.67	6.67	10.67	6.67	11.67	4.67	-1.33	5.67	1.67	0.67	5.67	4.67	8.67	4.67	7.67	12.67	0.67	9.67	15.67
1182	75.207	45.0	0.0	6.0	-1.0	-1.0	-6.0	3.0	13.0	5.0	1.0	20.0	3.0	11.0	4.0	4.0	-3.0	2.0	-1.0	-2.0	-7.0	12.0	0.0	-2.0	-2.0	7.0	-2.0	8.0
1189	75.658	22.67	9.33	8.33	2.33	8.33	21.33	2.33	15.33	5.33	17.33	6.33	14.33	1.33	17.33	5.33	21.33	7.33	14.33	9.33	3.33	4.33	22.33	0.33	5.33	22.33	13.33	4.33
1196	76.109	14.33	-1.33	5.67	15.67	0.67	7.67	8.67	10.67	7.67	11.67	4.67	13.67	4.67	1.67	14.67	2.67	1.67	2.67	4.67	11.67	6.67	6.67	3.67	4.67	4.67	8.67	15.67
1203	76.56	10.0	8.0	15.0	17.0	11.0	5.0	11.0	9.0	13.0	17.0	17.0	13.0	8.0	17.0	9.0	3.0	12.0	12.0	5.0	7.0	9.0	6.0	12.0	7.0	17.0	1.0	9.0
1210	77.011	14.0	7.0	5.0	8.0	3.0	7.0	-2.0	10.0	8.0	13.0	-3.0	4.0	13.0	12.0	4.0	8.0	3.0	8.0	4.0	7.0	3.0	6.0	10.0	11.0	6.0	13.0	10.0
1217	77.463	12.67	10.33	16.33	-0.67	1.33	15.33	16.33	10.33	6.33	5.33	4.33	5.33	8.33	12.33	2.33	10.33	17.33	4.33	9.33	17.33	9.33	7.33	9.33	7.33	-0.67	8.33	9.33
1224	77.915	13.33	3.67	12.67	8.67	12.67	8.67	14.67	14.67	3.67	13.67	9.67	-0.33	6.67	8.67	8.67	18.67	19.67	11.67	12.67	10.67	7.67	10.67	11.67	3.67	5.67	7.67	5.67
1231	78.366	16.33	-1.33	0.67	15.67	10.67	0.67	12.67	1.67	4.67	12.67	5.67	8.67	4.67	5.67	3.67	5.67	2.67	5.67	8.67	1.67	6.67	2.67	-5.33	15.67	0.67	4.67	8.67
1238	78.818	12.67	9.33	5.33	1.33	9.33	10.33	18.33	5.33	7.33	5.33	13.33	13.33	8.33	12.33	11.33	10.33	13.33	9.33	8.33	10.33	6.33	8.33	10.33	13.33	7.33	10.33	5.33
1245	79.271	15.67	5.33	5.33	7.33	14.33	1.33	11.33	8.33	10.33	14.33	7.33	6.33	1.33	12.33	3.33	7.33	17.33	8.33	7.33	-1.67	4.33	7.33	0.33	13.33	-0.67	5.33	3.33
1252	79.723	14.33	8.67	-1.33	13.67	9.67	12.67	4.67	10.67	10.67	14.67	9.67	4.67	5.67	9.67	13.67	9.67	9.67	10.67	2.67	7.67	9.67	11.67	0.67	9.67	0.67	11.67	8.67
1259	80.175	15.33	4.67	2.67	12.67	17.67	14.67	6.67	8.67	0.67	2.67	3.67	5.67	14.67	9.67	6.67	3.67	6.67	9.67	10.67	8.67	14.67	10.67	9.67	6.67	9.67	6.67	10.67
1266	80.628	11.0	6.0	14.0	19.0	14.0	15.0	16.0	19.0	23.0	14.0	17.0	21.0	13.0	17.0	10.0	5.0	17.0	14.0	6.0	13.0	17.0	13.0	15.0	12.0	8.0	17.0	18.0
1273	81.081	17.33	3.67	6.67	7.67	7.67	12.67	7.67	15.67	7.67	8.67	14.67	7.67	8.67	19.67	8.67	6.67	7.67	23.67	7.67	5.67	10.67	18.67	8.67	12.67	12.67	7.67	3.67
1280	81.534	11.0	11.0	19.0	28.0	18.0	22.0	21.0	32.0	33.0	31.0	22.0	23.0	21.0	20.0	21.0	22.0	25.0	15.0	17.0	18.0	20.0	19.0	21.0	27.0	21.0	14.0	18.0
1287	81.987	19.0	8.0	17.0	10.0	14.0	33.0	10.0	23.0	11.0	18.0	16.0	22.0	16.0	12.0	15.0	22.0	17.0	16.0	11.0	16.0	13.0	14.0	13.0	8.0	23.0	19.0	14.0
1294	82.441	19.67	15.33	33.33	33.33	32.33	37.33	24.33	39.33	28.33	18.33	18.33	26.33	20.33	9.33	23.33	28.33	18.33	16.33	18.33	31.33	19.33	8.33	8.33	29.33	17.33	26.33	19.33
1301	82.894	15.33	62.67	116.67	90.67	78.67	73.67	60.67	51.67	52.67	61.67	40.67	40.67	44.67	41.67	49.67	51.67	46.67	59.67	51.67	61.67	38.67	46.67	47.67	40.67	34.67	28.67	35.67
1308	83.348	20.67	115.33	197.33	210.33	149.33	110.33	133.33	91.33	83.33	95.33	94.33	73.33	84.33	83.33	68.33	71.33	79.33	64.33	62.33	81.33	73.33	71.33	70.33	86.33	54.33	57.33	68.33
1315	83.802	22.33	143.67	294.67	210.67	210.67	159.67	143.67	135.67	115.67	147.67	121.67	137.67	122.67	117.67	112.67	111.67	105.67	99.67	100.67	88.67	75.67	93.67	104.67	75.67	78.67	76.67	76.67
1322	84.256	18.67	129.33	297.33	214.33	184.33	156.33	131.33	132.33	157.33	112.33	109.33	108.33	100.33	100.33	102.33	118.33	103.33	87.33	71.33	98.33	87.33	81.33	90.33	86.33	69.33	60.33	86.33
1329	84.71	27.0	76.0	123.0	127.0	101.0	79.0	71.0	84.0	77.0	55.0	54.0	71.0	56.0	50.0	50.0	41.0	62.0	39.0	52.0	50.0	57.0	37.0	64.0	49.0	51.0	34.0	48.0
1336	85.165	29.67	19.33	40.33	38.33	41.33	28.33	21.33	21.33	35.33	28.33	-0.67	20.33	17.33	25.33	13.33	21.33	25.33	30.33	12.33	28.33	6.33	27.33	16.33	6.33	17.33	28.33	29.33
1343	85.619	28.67	7.33	11.33	10.33	14.33	20.33	-1.67	5.33	12.33	22.33	8.33	1.33	0.33	8.33	11.33	4.33	5.33	13.33	7.33	4.33	12.33	6.33	14.33	0.33	3.33	8.33	3.33
1350	86.074	28.33	-2.33	1.67	3.67	0.67	11.67	9.67	7.67	7.67	1.67	4.67	1.67	2.67	12.67	6.67	0.67	6.67	-4.33	1.67	3.67	0.67	7.67	3.67	2.67	1.67	-6.33	4.67
1357	86.529	22.33	3.67	6.67	6.67	10.67	22.67	21.67	4.67	10.67	8.67	4.67	9.67	8.67	-5.33	2.67	7.67	6.67	17.67	2.67	9.67	2.67	0.67	-5.33	2.67	5.67	8.67	-0.33
1364	86.985	21.33	3.67	3.67	10.67	19.67	-0.33	21.67	10.67	17.67	2.67	18.67	2.67	11.67	12.67	1.67	15.67	3.67	20.67	16.67	0.67	12.67	6.67	0.67	3.67	0.67	1.67	3.67
1371	87.44	24.0	0.0	-5.0	9.0	-2.0	13.0	11.0	2.0	4.0	11.0	1.0	-1.0	8.0	11.0	9.0	16.0	13.0	4.0	5.0	9.0	2.0	13.0	12.0	3.0	0.0	5.0	14.0
1378	87.896	28.33	-3.33	13.67	8.67	19.67	8.67	-2.33	7.67	4.67	13.67	6.67	0.67	7.67	8.67	2.67	4.67	2.67	13.67	14.67	2.67	13.67	7.67	2.67	5.67	4.67	11.67	0.67
1385	88.352	22.0	9.0	8.0	8.0	10.0	7.0	12.0	20.0	3.0	10.0	13.0	10.0	12.0	12.0	15.0	12.0	9.0	11.0	8.0	12.0	8.0	8.0	1.0	14.0	10.0	-6.0	4.0
1392	88.808	27.67	-0.67	2.33	4.33	4.33	7.33	3.33	-0.67	7.33	3.33	3.33	4.33	2.33	-4.67	-7.67	0.33	3.33	-2.67	4.33	7.33	5.33	-6.67	14.33	5.33	-6.67	-0.67	6.33
1399	89.264	23.0	7.0	11.0	12.0	8.0	16.0	14.0	17.0	10.0	12.0	11.0	16.0	15.0	3.0	-1.0	3.0	2.0	6.0	-3.0	8.0	12.0	8.0	7.0	9.0	8.0	4.0	4.0
1406	89.72	23.33	0.67	10.67	14.67	1.67	9.67	20.67	1.67	6.67	9.67	19.67	12.67	16.67	11.67	16.67	8.67	-1.33	11.67	12.67	4.67	16.67	12.67	8.67	13.67	12.67	8.67	-4.33
1413	90.177	20.67	23.33	3.33	10.33	4.33	6.33	9.33	-1.67	2.33	11.33	12.33	7.33	8.33	12.33	21.33	8.33	18.33	11.33	1.33	6.33	15.33	9.33	11.33	7.33	10.33	1.33	7.33
1420	90.634	26.0	-1.0	5.0	1.0	2.0	13.0	-1.0	11.0	0.0	10.0	3.0	7.0	5.0	1.0	-1.0	14.0	0.0	6.0	2.0	10.0	-6.0	15.0	11.0	9.0	2.0	9.0	3.0
1427	91.091	21.67	-3.67	5.33	6.33	15.33	12.33	9.33	1.33	24.33	8.33	11.33	17.33	10.33	8.33	7.33	26.33	8.33	14.33	2.33	8.33	9.33	8.33	15.33	3.33	6.33	26.33	12.33
1434	91.549	25.67	4.33	4.33	12.33	10.33	-1.67	9.33	11.33	10.33	-0.67	2.33	9.33	10.33	12.33	15.33	22.33	8.33	9.33	17.33	9.33	-7.67	8.33	7.33	0.33	7.33	7.33	11.33
1441	92.006	25.67	5.33	6.33	4.33	2.33	18.33	8.33	-1.67	-3.67	3.33	6.33	8.33	9.33	3.33	5.33	10.33	2.33	2.33	4.33	16.33	5.33	15.33	15.33	7.33	11.33	8.33	10.33
1448	92.464	25.67	-1.67	2.33	0.33	10.33	-1.67	2.33	12.33	17.33	9.33	6.33	11.33	7.33	12.33	8.33	3.33	8.33	7.33	-4.67	0.33	-2.67	14.33	1.33	0.33	11.33	5.33	2.33
1455	92.922	25.0	-6.0	4.0	14.0	10.0	8.0	5.0	3.0	2.0	18.0	14.0	6.0	12.0	14.0	6.0	11.0	1.0	7.0	8.0	13.0	6.0	6.0	15.0	9.0	16.0	5.0	17.0
1462	93.38	24.67	0.33	10.33	22.33	16.33	10.33	5.33	11.33	6.33	-3.67	4.33	7.33	6.33	-3.67	9.33	9.33	10.33	7.33	2.33	17.33	9.33	9.33	8.33	8.33	10.33	6.33	2.33
1469	93.839	22.33	6.67	11.67	13.67	2.67	7.67	9.67	5.67	5.67	15.67	9.67	19.67	3.67	14.67	10.67	13.67	14.67	4.67	24.67	10.67	7.67	12.67	10.67	13.67	12.67	2.67	10.67
1476	94.297	29.33	-1.33	-0.33	1.67	-2.33	-3.33	2.67	4.67	4.67	0.67	0.67	6.67	9.67	13.67	1.67	11.67	-7.33	-3.33	6.67	14.67	15.67	5.67	3.67	13.67	3.67	6.67	-8.33
1483	94.756	34.33	-3.33	-9.33	-4.33	3.67	2.67	-5.33	12.67	0.67	5.67	-2.33	-7.33	3.67	-0.33	3.67	-1.33	5.67	-4.33	-0.33	-0.33	-8.33	6.67	5.67	3.67	4.67	-0.33	-0.33
1490	95.215	27.67	-5.67	-2.67	2.33	-4.67	17.33	9.33	-0.67	-2.67	3.33	0.33	1.33	-0.67	3.33	0.33	3.33	13.33	18.33	14.33	0.33	7.33	9.33	14.33	8.33	-1.67	12.33	-1.67
1497	95.675	29.33	4.67	8.67	6.67	5.67	4.67	11.67	6.67	6.67	2.67	5.67	-2.33	3.67	9.67	10.67	5.67	6.67	6.67	2.67	7.67	11.67	3.67	3.67	1.67	12.67	24.67	7.67
1504	96.134	28.67	-3.67	7.33	4.33	9.33	16.33	21.33	22.33	2.33	20.33	23.33	14.33	21.33	10.33	21.33	20.33	20.33	17.33	17.33	26.33	18.33	19.33	13.33	9.33	13.33	15.33	12.33
1511	96.594	27.33	-7.33	1.67	8.67	8.67	24.67	17.67	19.67	24.67	28.67	27.67	27.67	23.67	28.67	23.67	23.67	19.67	13.67	31.67	23.67	28.67	9.67	19.67	9.67	31.67	26.67	25.67
1518	97.054	23.67	16.33	19.33	13.33	25.33	35.33	28.33	29.33	31.33	47.33	26.33	55.33	31.33	31.33	42.33	29.33	34.33	41.33	22.33	26.33	28.33	32.33	40.33	34.33	32.33	41.33	38.33
1525	97.514	36.67	5.33	-10.67	1.33	14.33	8.33	13.33	36.33	18.33	15.33	17.33	28.33	24.33	28.33	23.33	22.33	7.33	16.33	12.33	21.33	10.33	11.33	17.33	11.33	33.33	30.33	16.33
1532	97.975	30.67	2.33	1.33	6.33	1.33	18.33	17.33	24.33	21.33	18.33	19.33	15.33	16.33	22.33	30.33	21.33	20.33	20.33	22.33	21.33	28.33	11.33	26.33	22.33	9.33	14.33	15.33
1539	98.436	27.33	7.67	8.67	7.67	9.67	13.67	24.67	16.67	11.67	17.67	7.67	11.67	13.67	17.67	13.67	17.67	18.67	15.67	7.67	13.67	11.67	9.67	18.67	9.67	21.67	22.67	6.67
1546	98.897	29.67	-2.67	-9.67	0.33	8.33	3.33	13.33	1.33	6.33	6.33	-2.67	5.33	4.33	1.33	4.33	3.33	8.33	1.33	7.33	8.33	10.33	6.33	7.33	10.33	13.33	8.33	11.33
1553	99.358	32.67	-6.67	-4.67	-2.67	9.33	10.33	11.33	14.33	-0.67	1.33	0.33	2.33	11.33	5.33	-1.67	2.33	3.33	0.33	13.33	5.33	1.33	-3.67	4.33	0.33	6.33	-2.67	15.33
1560	99.82	23.33	12.67	5.67	10.67	9.67	9.67	14.67	4.67	11.67	11.67	21.67	9.67	30.67	10.67	10.67	16.67	10.67	11.67	9.67	20.67	8.67	14.67	8.67	13.67	20.67	18.67	11.67
1567	100.281	34.0	0.0	0.0	-4.0	2.0	-1.0	-8.0	4.0	7.0	-3.0	2.0	4.0	2.0	-4.0	4.0	-2.0	2.0	-3.0	-4.0	2.0	-4.0	4.0	4.0	3.0	-3.0	4.0	2.0
1574	100.743	26.0	1.0	0.0	5.0	15.0	1.0	6.0	1.0	11.0	10.0	5.0	7.0	12.0	13.0	3.0	22.0	9.0	-1.0	9.0	9.0	13.0	13.0	11.0	6.0	7.0	2.0	16.0
1581	101.206	31.33	-2.33	6.67	10.67	1.67	-7.33	-5.33	6.67	-4.33	-3.33	-0.33	-2.33	11.67	7.67	-0.33	2.67	4.67	-1.33	-5.33	12.67	-3.33	1.67	3.67	8.67	2.67	0.67	8.67
1588	101.668	27.67	-2.67	4.33	-3.67	4.33	4.33	5.33	11.33	8.33	-7.67	8.33	15.33	11.33	6.33	0.33	16.33	18.33	-3.67	12.33	11.33	2.33	7.33	15.33	16.33	13.33	14.33	4.33
1595	102.131	23.0	4.0	15.0	15.0	15.0	21.0	22.0	16.0	7.0	6.0	9.0	12.0	24.0	17.0	15.0	19.0	22.0	12.0	10.0	20.0	11.0	8.0	16.0	-1.0	13.0	17.0	8.0
1602	102.594	23.33	4.67	8.67	18.67	4.67	20.67	18.67	19.67	13.67	17.67	16.67	4.67	8.67	20.67	10.67	18.67	22.67	20.67	16.67	8.67	0.67	11.67	12.67	20.67	18.67	16.67	5.67
1609	103.057	32.67	11.33	12.33	10.33	-4.67	4.33	-0.67	4.33	-9.67	-4.67	-4.67	1.33	10.33	1.33	-6.67	10.33	2.33	-8.67	3.33	12.33	4.33	2.33	2.33	16.33	-1.67	15.33	3.33
1616	103.521	34.33	-8.33	-2.33	-3.33	-6.33	-4.33	0.67	-6.33	-5.33	-6.33	-9.33	5.67	-2.33	-5.33	-6.33	6.67	-8.33	6.67	-2.33	-6.33	-3.33	10.67	-3.33	4.67	-3.33	-0.33	-4.33
1623	103.985	25.67	8.33	0.33	7.33	-0.67	5.33	9.33	8.33	-6.67	6.33	6.33	5.33	-1.67	-2.67	0.33	14.33	3.33	-5.67	5.33	8.33	6.33	1.33	5.33	13.33	2.33	6.33	4.33
1630	104.449	25.67	1.33	-3.67	4.33	16.33	3.33	1.33	-0.67	17.33	15.33	-1.67	8.33	12.33	1.33	7.33	6.33	8.33	-1.67	1.33	8.33	7.33	7.33	9.33	5.33	10.33	5.33	6.33
1637	104.913	23.33	-3.33	5.67	-1.33	6.67	7.67	2.67	2.67	9.67	3.67	13.67	10.67	-0.33	12.67	4.67	9.67	2.67	13.67	12.67	5.67	3.67	11.67	2.67	6.67	10.67	0.67	2.67
1644	105.378	27.33	4.67	-4.33	1.67	6.67	0.67	6.67	-8.33	12.67	-0.33	13.67	-0.33	6.67	11.67	-7.33	1.67	-6.33	-3.33	6.67	6.67	5.67	-5.33	-4.33	4.67	2.67	3.67	10.67
1651	105.843	30.0	-7.0	1.0	-1.0	4.0	-4.0	-2.0	1.0	2.0	4.0	0.0	-13.0	-4.0	-8.0	3.0	-6.0	-3.0	5.0	0.0	2.0	0.0	-7.0	-4.0	-1.0	-5.0	8.0	0.0
1658	106.308	31.0	-5.0	-11.0	-3.0	-9.0	2.0	-2.0	-2.0	-1.0	-3.0	-8.0	-2.0	-3.0	3.0	0.0	-2.0	-14.0	8.0	7.0	-6.0	-1.0	-3.0	3.0	-6.0	-1.0	-6.0	-5.0
1665	106.773	24.0	1.0	-3.0	-6.0	10.0	-12.0	0.0	5.0	5.0	11.0	7.0	17.0	-4.0	-4.0	2.0	1.0	3.0	13.0	-3.0	0.0	-2.0	7.0	10.0	12.0	6.0	10.0	0.0
1672	107.239	31.67	-7.67	-5.67	-2.67	-11.67	-0.67	0.33	-3.67	-8.67	-4.67	4.33	-11.67	-11.67	-9.67	-12.67	-5.67	-5.67	4.33	2.33	-12.67	0.33	-1.67	1.33	0.33	-5.67	-6.67	-2.67
1679	107.705	25.67	-8.67	-8.67	1.33	-0.67	-7.67	8.33	-4.67	2.33	-3.67	-0.67	3.33	-3.67	-0.67	0.33	3.33	0.33	-7.67	0.33	-1.67	-3.67	-0.67	7.33	8.33	9.33	-0.67	8.33
1686	108.171	25.0	4.0	-4.0	-4.0	-4.0	-2.0	-2.0	-9.0	-7.0	4.0	-11.0	6.0	11.0	-4.0	5.0	12.0	0.0	0.0	2.0	-4.0	11.0	6.0	2.0	-4.0	8.0	6.0	7.0
1693	108.638	16.0	6.0	8.0	8.0	9.0	1.0	15.0	9.0	-2.0	8.0	10.0	2.0	11.0	7.0	13.0	10.0	11.0	10.0	10.0	0.0	11.0	12.0	13.0	9.0	10.0	0.0	8.0
1700	109.105	22.67	-1.67	-2.67	-9.67	3.33	2.33	-0.67	-2.67	-4.67	2.33	-5.67	-2.67	4.33	2.33	10.33	4.33	7.33	7.33	8.33	-1.67	15.33	4.33	4.33	5.33	-1.67	-2.67	3.33
1707	109.572	28.67	-6.67	-5.67	-4.67	-8.67	-2.67	-13.67	-3.67	-2.67	-2.67	-8.67	-0.67	1.33	-5.67	-10.67	0.33	5.33	-11.67	-4.67	-4.67	2.33	0.33	-4.67	-5.67	3.33	-3.67	-9.67
1714	110.039	19.67	2.33	4.33	-0.67	-1.67	0.33	2.33	0.33	7.33	7.33	9.33	0.33	11.33	0.33	8.33	-2.67	-1.67	-3.67	3.33	5.33	5.33	-1.67	8.33	3.33	-1.67	5.33	5.33
1721	110.507	20.0	4.0	6.0	8.0	8.0	2.0	0.0	4.0	7.0	1.0	1.0	1.0	7.0	-1.0	0.0	6.0	1.0	2.0	0.0	8.0	-7.0	6.0	2.0	8.0	-4.0	-5.0	11.0
1728	110.975	21.0	3.0	3.0	-3.0	2.0	-7.0	1.0	10.0	9.0	2.0	4.0	-6.0	-5.0	-5.0	7.0	5.0	4.0	5.0	-10.0	-1.0	0.0	1.0	2.0	7.0	-3.0	5.0	10.0
1735	111.443	18.0	6.0	9.0	4.0	10.0	8.0	4.0	7.0	2.0	8.0	4.0	4.0	14.0	8.0	11.0	3.0	0.0	10.0	9.0	4.0	6.0	10.0	2.0	7.0	-5.0	15.0	10.0
1742	111.912	20.33	5.67	10.67	0.67	6.67	-0.33	2.67	4.67	6.67	2.67	5.67	4.67	1.67	5.67	14.67	5.67	4.67	7.67	3.67	-1.33	0.67	4.67	-1.33	9.67	-0.33	5.67	13.67
1749	112.38	15.67	8.33	22.33	15.33	9.33	7.33	11.33	2.33	11.33	2.33	13.33	5.33	10.33	17.33	1.33	1.33	13.33	4.33	8.33	6.33	7.33	6.33	9.33	14.33	10.33	8.33	10.33
1756	112.85	22.0	-2.0	3.0	0.0	11.0	0.0	6.0	4.0	-8.0	5.0	0.0	9.0	5.0	4.0	1.0	13.0	2.0	6.0	0.0	-2.0	9.0	9.0	-1.0	0.0	-3.0	2.0	5.0
1763	113.319	17.33	5.67	17.67	8.67	2.67	-5.33	-1.33	7.67	5.67	8.67	1.67	3.67	7.67	5.67	5.67	9.67	7.67	3.67	0.67	8.67	12.67	0.67	10.67	9.67	-3.33	3.67	4.67
1770	113.789	13.67	5.33	8.33	8.33	0.33	5.33	5.33	7.33	16.33	1.33	6.33	10.33	0.33	6.33	10.33	13.33	6.33	-1.67	8.33	3.33	16.33	11.33	4.33	6.33	4.33	10.33	10.33
1777	114.259	19.67	-5.67	-0.67	9.33	-10.67	-2.67	-5.67	-1.67	-4.67	0.33	-6.67	-2.67	-8.67	-1.67	0.33	0.33	-3.67	-4.67	-8.67	-0.67	3.33	1.33	0.33	-0.67	-2.67	1.33	6.33
1784	114.729	17.0	1.0	4.0	-1.0	0.0	-1.0	-2.0	0.0	5.0	6.0	0.0	0.0	8.0	-5.0	-2.0	5.0	2.0	-2.0	0.0	7.0	4.0	2.0	-1.0	6.0	-1.0	3.0	-2.0
1791	115.2	14.0	1.0	0.0	6.0	13.0	7.0	8.0	5.0	4.0	-5.0	2.0	9.0	6.0	6.0	11.0	9.0	2.0	0.0	4.0	-3.0	7.0	6.0	4.0	4.0	6.0	0.0	10.0
1798	115.671	16.0	0.0	4.0	0.0	-3.0	-1.0	-5.0	0.0	3.0	-6.0	3.0	6.0	-1.0	6.0	2.0	-1.0	1.0	4.0	-1.0	3.0	0.0	2.0	4.0	1.0	-1.0	1.0	-2.0
1805	116.142	19.0	-5.0	0.0	-4.0	4.0	-1.0	-6.0	1.0	1.0	-3.0	4.0	2.0	-1.0	-4.0	-2.0	-4.0	4.0	-6.0	0.0	-5.0	0.0	0.0	3.0	7.0	2.0	2.0	2.0
1812	116.614	18.67	-0.67	-4.67	-0.67	-4.67	5.33	-10.67	1.33	-2.67	-0.67	-0.67	-1.67	-2.67	0.33	-0.67	9.33	2.33	-3.67	8.33	3.33	-5.67	7.33	2.33	7.33	-1.67	5.33	-1.67
1819	117.086	11.33	0.67	-3.33	4.67	2.67	10.67	-0.33	9.67	4.67	2.67	4.67	8.67	8.67	7.67	7.67	3.67	3.67	5.67	1.67	5.67	9.67	0.67	1.67	7.67	2.67	15.67	2.67
1826	117.558	12.0	9.0	1.0	-1.0	9.0	9.0	11.0	7.0	6.0	3.0	5.0	0.0	6.0	1.0	1.0	9.0	5.0	8.0	4.0	5.0	7.0	8.0	6.0	8.0	9.0	4.0	1.0
1833	118.03	17.0	3.0	7.0	-5.0	0.0	-2.0	-5.0	-5.0	1.0	-12.0	2.0	1.0	-7.0	1.0	-5.0	-1.0	-3.0	-11.0	3.0	-2.0	-6.0	-5.0	-2.0	6.0	4.0	0.0	1.0
1840	118.503	14.33	-7.33	-6.33	-0.33	2.67	6.67	5.67	11.67	2.67	0.67	0.67	-1.33	-2.33	0.67	-0.33	-0.33	1.67	1.67	1.67	2.67	-6.33	-3.33	3.67	-3.33	-2.33	-0.33	3.67
1847	118.976	12.67	3.33	3.33	8.33	0.33	1.33	2.33	6.33	5.33	3.33	0.33	2.33	2.33	8.33	6.33	-6.67	2.33	0.33	-2.67	-0.67	2.33	-1.67	5.33	-2.67	10.33	4.33	5.33
1854	119.45	13.67	0.33	2.33	2.33	-0.67	3.33	7.33	-2.67	-4.67	-1.67	-2.67	-4.67	0.33	-1.67	7.33	5.33	2.33	2.33	1.33	4.33	11.33	0.33	-0.67	3.33	-7.67	0.33	2.33
1861	119.924	14.67	2.33	-0.67	0.33	-1.67	-8.67	-1.67	-0.67	-4.67	0.33	0.33	-0.67	7.33	2.33	5.33	-0.67	2.33	-5.67	-0.67	-0.67	-3.67	-2.67	0.33	0.33	2.33	1.33	4.33
1868	120.398	10.0	-1.0	6.0	6.0	5.0	2.0	4.0	6.0	8.0	7.0	3.0	9.0	0.0	7.0	2.0	1.0	5.0	9.0	2.0	2.0	3.0	2.0	8.0	13.0	0.0	4.0	8.0
1875	120.872	9.0	2.0	5.0	-3.0	3.0	5.0	5.0	5.0	5.0	6.0	0.0	1.0	5.0	5.0	6.0	7.0	1.0	5.0	8.0	6.0	9.0	9.0	9.0	4.0	3.0	4.0	9.0
1882	121.347	11.33	3.67	4.67	5.67	0.67	5.67	4.67	0.67	8.67	6.67	6.67	-3.33	-2.33	-0.33	7.67	-3.33	-4.33	1.67	6.67	-3.33	-1.33	2.67	1.67	7.67	4.67	-0.33	2.67
1889	121.822	9.0	16.0	1.0	6.0	10.0	9.0	8.0	4.0	0.0	6.0	4.0	6.0	3.0	4.0	0.0	6.0	8.0	5.0	11.0	3.0	5.0	0.0	4.0	1.0	14.0	5.0	8.0
1896	122.298	9.33	7.67	1.67	1.67	5.67	-3.33	3.67	-0.33	4.67	1.67	-0.33	1.67	5.67	4.67	16.67	6.67	17.67	6.67	6.67	4.67	3.67	7.67	3.67	8.67	-0.33	3.67	0.67
1903	122.773	9.67	6.33	3.33	1.33	3.33	1.33	10.33	8.33	2.33	0.33	7.33	1.33	8.33	6.33	6.33	2.33	8.33	7.33	7.33	8.33	5.33	9.33	6.33	-1.67	6.33	6.33	2.33
1910	123.25	8.33	4.67	7.67	12.67	9.67	4.67	3.67	10.67	7.67	10.67	6.67	6.67	7.67	5.67	13.67	1.67	6.67	2.67	7.67	3.67	10.67	16.67	5.67	0.67	9.67	8.67	10.67
1917	123.726	10.67	-2.67	0.33	6.33	-2.67	7.33	1.33	1.33	0.33	5.33	9.33	5.33	3.33	1.33	3.33	3.33	-3.67	-2.67	1.33	2.33	5.33	3.33	1.33	1.33	4.33	1.33	9.33
1924	124.203	13.33	0.67	-2.33	4.67	2.67	-6.33	-1.33	-3.33	-3.33	-0.33	-0.33	-4.33	-3.33	-5.33	-1.33	1.67	-3.33	-1.33	4.67	-0.33	-5.33	0.67	-4.33	2.67	-6.33	-6.33	2.67
1931	124.68	8.67	1.33	9.33	2.33	4.33	4.33	5.33	-0.67	1.33	6.33	4.33	4.33	6.33	1.33	5.33	9.33	2.33	0.33	1.33	5.33	4.33	0.33	7.33	1.33	1.33	-0.67	0.33
1938	125.158	10.33	-0.33	2.67	0.67	-3.33	1.67	3.67	9.67	-3.33	7.67	-4.33	8.67	0.67	-1.33	3.67	-2.33	4.67	0.67	-2.33	-2.33	7.67	4.67	-4.33	-0.33	-2.33	2.67	0.67
1945	125.635	11.67	-2.67	-0.67	0.33	0.33	-1.67	-2.67	-3.67	3.33	-1.67	0.33	-3.67	1.33	3.33	4.33	-2.67	-0.67	-3.67	-0.67	1.33	-2.67	-4.67	-1.67	0.33	-1.67	2.33	1.33
1952	126.114	7.33	0.67	6.67	1.67	2.67	8.67	3.67	8.67	12.67	-0.33	6.67	1.67	3.67	-0.33	9.67	5.67	7.67	2.67	2.67	8.67	6.67	12.67	3.67	1.67	0.67	11.67	-0.33
1959	126.592	6.67	15.33	6.33	6.33	2.33	5.33	10.33	0.33	5.33	1.33	12.33	2.33	11.33	5.33	6.33	6.33	0.33	3.33	7.33	6.33	7.33	-2.67	9.33	7.33	11.33	1.33	3.33
1966	127.071	10.0	-2.0	-1.0	-2.0	-1.0	-3.0	-7.0	-1.0	-2.0	0.0	4.0	3.0	2.0	3.0	2.0	-1.0	-2.0	2.0	4.0	1.0	2.0	-3.0	3.0	4.0	1.0	-1.0	4.0
1973	127.55	7.67	2.33	8.33	-0.67	0.33	-0.67	2.33	3.33	2.33	-0.67	5.33	-3.67	2.33	9.33	-2.67	8.33	6.33	-2.67	-0.67	3.33	3.33	5.33	0.33	4.33	2.33	-0.67	2.33
1980	128.03	7.67	3.33	0.33	-4.67	5.33	3.33	-1.67	3.33	0.33	0.33	2.33	0.33	7.33	0.33	2.33	4.33	3.33	-0.67	6.33	-1.67	4.33	4.33	0.33	4.33	-0.67	0.33	0.33
1987	128.51	8.67	0.33	5.33	10.33	-2.67	5.33	0.33	-1.67	-0.67	1.33	-3.67	1.33	1.33	2.33	2.33	-1.67	7.33	-0.67	9.33	2.33	-4.67	-3.67	0.33	-5.67	4.33	0.33	4.33
1994	128.99	10.67	5.33	-0.67	-3.67	-6.67	-3.67	1.33	1.33	1.33	0.33	-2.67	7.33	5.33	-2.67	-3.67	-1.67	1.33	3.33	-0.67	-5.67	-0.67	0.33	0.33	-3.67	0.33	4.33	-1.67
2001	129.471	9.67	-3.67	-1.67	-2.67	-3.67	2.33	-2.67	1.33	-0.67	-0.67	-2.67	-0.67	-2.67	3.33	0.33	-1.67	0.33	-1.67	-0.67	-2.67	-2.67	0.33	-1.67	2.33	1.33	0.33	6.33
2008	129.952	9.33	3.67	0.67	-1.33	-2.33	-5.33	1.67	-0.33	-1.33	1.67	0.67	0.67	5.67	3.67	-2.33	-1.33	3.67	-3.33	2.67	-3.33	3.67	4.67	0.67	-2.33	-1.33	1.67	1.67
2015	130.433	6.67	-1.67	2.33	5.33	6.33	2.33	6.33	0.33	0.33	-0.67	7.33	2.33	1.33	2.33	4.33	2.33	0.33	0.33	4.33	0.33	5.33	-3.67	5.33	3.33	1.33	0.33	1.33
2022	130.915	4.67	7.33	5.33	3.33	6.33	8.33	5.33	5.33	3.33	3.33	5.33	6.33	0.33	1.33	4.33	3.33	4.33	-0.67	4.33	3.33	4.33	5.33	0.33	8.33	9.33	5.33	0.33
2029	131.397	9.0	-3.0	-1.0	5.0	5.0	-1.0	1.0	1.0	-3.0	-2.0	-2.0	1.0	1.0	-2.0	2.0	-1.0	4.0	2.0	3.0	-2.0	5.0	-1.0	-2.0	0.0	-1.0	-1.0	-3.0
2036	131.879	10.67	-3.67	-5.67	-3.67	1.33	-2.67	-0.67	-0.67	-3.67	1.33	-2.67	0.33	-2.67	0.33	-4.67	-6.67	-2.67	3.33	-1.67	0.33	2.33	-5.67	-0.67	1.33	-4.67	-0.67	-1.67
2043	132.362	9.0	-3.0	-2.0	-5.0	0.0	-1.0	0.0	4.0	0.0	3.0	5.0	-1.0	3.0	1.0	7.0	-1.0	0.0	0.0	0.0	2.0	-1.0	0.0	-2.0	3.0	3.0	1.0	2.0
2047	132.638	7.0	0.0	4.0	-1.0	0.0	1.0	2.0	5.0	1.0	5.0	4.0	1.0	2.0	2.0	0.0	1.0	-1.0	4.0	-5.0	3.0	1.0	6.0	4.0	-1.0	3.0	4.0	7.0