File: EDX Back Ups and Old Files/EDX Processed Data/High pH SF 60C 14d.txt
Name: High pH SF 60C 14d
Number of Scans: 29
Positions: [-13.0, -12.75, -12.5, -12.25, -12.0, -11.75, -11.5, -11.25, -11.0, -10.75, -10.5, -10.25, -10.0, -9.75, -9.5, -9.25, -9.0, -8.75, -8.5, -8.25, -8.0, -7.75, -7.5, -7.25, -7.0, -6.75, -6.5, -6.25, -6.0]
Points per Scan: 2048
Sample Edge: 3
Scans Off Sample: [0, 1, 2]
Conversion Features: [(275, 17444.3), (309, 19608.3), (913, 57981.7), (934, 59318.24), (1058, 67244.3)]
Degree of Fit: 3
Fit Coeffecients: [ 8.59183e-07 -0.001482  64.3003 -144.207]
pH: High
Steel Fiber: True
Aging Temp.: 60
Aging Atm.: 100% CO2
Aging Humidity: None
Aging Time: 14

*********
#Bins	Energy [keV]	Avg. Background	-12.25	-12.0	-11.75	-11.5	-11.25	-11.0	-10.75	-10.5	-10.25	-10.0	-9.75	-9.5	-9.25	-9.0	-8.75	-8.5	-8.25	-8.0	-7.75	-7.5	-7.25	-7.0	-6.75	-6.5	-6.25	-6.0
6	0.242	1828.0	-8.0	32.0	-31.0	-8.0	-2.0	70.0	33.0	93.0	54.0	17.0	5.0	63.0	148.0	9.0	21.0	26.0	74.0	35.0	33.0	-60.0	24.0	-22.0	-7.0	-26.0	16.0	10.0
13	0.691	1205.33	103.67	24.67	-28.33	-18.33	63.67	34.67	40.67	16.67	-4.33	-25.33	29.67	81.67	88.67	29.67	48.67	71.67	72.67	49.67	1.67	29.67	10.67	-16.33	32.67	93.67	40.67	23.67
20	1.141	327.33	-0.33	-29.33	-51.33	-13.33	-18.33	-33.33	-34.33	-17.33	-24.33	19.67	-36.33	-9.33	-42.33	-12.33	-37.33	-18.33	-29.33	-42.33	-21.33	-41.33	-5.33	-36.33	-40.33	0.67	-14.33	-13.33
27	1.591	50.0	12.0	3.0	-4.0	6.0	14.0	-1.0	-2.0	2.0	1.0	3.0	-3.0	1.0	3.0	10.0	2.0	5.0	10.0	6.0	4.0	10.0	-6.0	0.0	4.0	12.0	5.0	10.0
34	2.04	7.33	-2.33	-2.33	-5.33	0.67	-0.33	4.67	-5.33	-6.33	-3.33	0.67	-0.33	10.67	3.67	-1.33	-1.33	-6.33	0.67	-2.33	2.67	0.67	0.67	-0.33	-0.33	-1.33	0.67	-1.33
41	2.49	2.0	-2.0	-2.0	-1.0	-1.0	-2.0	0.0	0.0	1.0	0.0	-2.0	0.0	-1.0	0.0	-1.0	0.0	-2.0	-1.0	-2.0	0.0	-2.0	-2.0	-1.0	-1.0	-1.0	1.0	-2.0
48	2.939	0.0	1.0	0.0	2.0	2.0	0.0	1.0	1.0	1.0	0.0	0.0	0.0	1.0	1.0	1.0	0.0	0.0	0.0	2.0	1.0	0.0	0.0	0.0	1.0	0.0	0.0	0.0
55	3.388	0.0	0.0	0.0	0.0	0.0	2.0	0.0	1.0	0.0	0.0	0.0	0.0	0.0	0.0	0.0	0.0	0.0	0.0	0.0	0.0	1.0	0.0	0.0	0.0	0.0	1.0	1.0
62	3.837	0.33	-0.33	0.67	-0.33	-0.33	0.67	-0.33	-0.33	-0.33	-0.33	-0.33	0.67	-0.33	-0.33	-0.33	1.67	-0.33	-0.33	-0.33	0.67	-0.33	0.67	-0.33	-0.33	-0.33	0.67	0.67
69	4.286	0.67	-0.67	-0.67	0.33	-0.67	-0.67	0.33	-0.67	-0.67	0.33	1.33	-0.67	-0.67	-0.67	-0.67	-0.67	1.33	0.33	-0.67	-0.67	-0.67	1.33	0.33	1.33	-0.67	-0.67	-0.67
76	4.734	1.0	-1.0	-1.0	-1.0	-1.0	-1.0	-1.0	0.0	1.0	-1.0	0.0	-1.0	-1.0	0.0	-1.0	-1.0	0.0	0.0	0.0	-1.0	-1.0	0.0	-1.0	-1.0	-1.0	0.0	0.0
83	5.183	0.33	0.67	-0.33	-0.33	1.67	0.67	0.67	-0.33	-0.33	0.67	0.67	-0.33	-0.33	-0.33	-0.33	-0.33	0.67	-0.33	2.67	-0.33	-0.33	-0.33	-0.33	0.67	-0.33	-0.33	-0.33
90	5.631	0.67	-0.67	0.33	-0.67	-0.67	-0.67	0.33	2.33	-0.67	2.33	-0.67	0.33	-0.67	1.33	0.33	0.33	1.33	-0.67	0.33	-0.67	-0.67	-0.67	0.33	0.33	0.33	0.33	-0.67
97	6.08	1.33	-0.33	1.67	1.67	-0.33	0.67	-1.33	-0.33	2.67	-1.33	-0.33	-0.33	0.67	-0.33	-0.33	-1.33	0.67	0.67	-0.33	1.67	1.67	-1.33	-1.33	-1.33	1.67	-0.33	-0.33
104	6.528	1.33	-1.33	1.67	0.67	-1.33	0.67	-0.33	1.67	-0.33	-1.33	1.67	-1.33	0.67	0.67	-0.33	3.67	2.67	-0.33	0.67	0.67	-1.33	0.67	-0.33	-0.33	0.67	0.67	0.67
111	6.976	2.0	0.0	1.0	0.0	0.0	-1.0	1.0	2.0	1.0	3.0	1.0	0.0	-2.0	-1.0	0.0	1.0	-1.0	0.0	2.0	-2.0	-2.0	0.0	2.0	1.0	0.0	5.0	0.0
118	7.424	4.0	-2.0	-2.0	0.0	3.0	3.0	-1.0	2.0	3.0	0.0	-1.0	1.0	-2.0	1.0	3.0	-1.0	-2.0	1.0	4.0	5.0	0.0	-1.0	-1.0	-1.0	3.0	0.0	-1.0
125	7.872	4.67	-1.67	-1.67	-0.67	1.33	1.33	2.33	-0.67	-0.67	-2.67	-1.67	0.33	4.33	6.33	-3.67	-3.67	-2.67	-2.67	0.33	-1.67	2.33	-1.67	8.33	0.33	1.33	0.33	-0.67
132	8.32	10.0	-2.0	-6.0	-2.0	-5.0	0.0	-4.0	-1.0	-4.0	-4.0	-1.0	0.0	3.0	-6.0	-1.0	1.0	-2.0	-3.0	-8.0	-3.0	2.0	-1.0	-5.0	-2.0	-6.0	0.0	-5.0
139	8.767	7.67	2.33	7.33	-0.67	4.33	1.33	2.33	-4.67	-2.67	8.33	1.33	8.33	3.33	0.33	-1.67	6.33	0.33	0.33	0.33	2.33	3.33	5.33	-0.67	3.33	-1.67	3.33	3.33
146	9.215	11.0	-3.0	0.0	-1.0	-5.0	-5.0	3.0	-1.0	-5.0	-3.0	-1.0	0.0	-6.0	3.0	-1.0	-5.0	0.0	-1.0	-4.0	0.0	1.0	4.0	4.0	-3.0	2.0	0.0	-1.0
153	9.662	9.0	1.0	1.0	0.0	4.0	2.0	4.0	4.0	1.0	8.0	8.0	1.0	1.0	0.0	4.0	1.0	-2.0	4.0	3.0	-1.0	5.0	0.0	11.0	4.0	1.0	3.0	3.0
160	10.109	11.33	-3.33	0.67	6.67	-1.33	-1.33	4.67	-3.33	-3.33	0.67	6.67	-2.33	-2.33	-1.33	1.67	2.67	0.67	5.67	1.67	0.67	-0.33	-1.33	0.67	-4.33	-1.33	2.67	-0.33
167	10.557	12.33	-4.33	-1.33	-0.33	-0.33	-3.33	2.67	-1.33	-1.33	3.67	-2.33	-3.33	-4.33	-5.33	3.67	-3.33	-2.33	3.67	1.67	3.67	-1.33	3.67	-2.33	1.67	-3.33	-1.33	5.67
174	11.004	15.33	-6.33	-6.33	-4.33	-5.33	-4.33	-8.33	-1.33	0.67	-1.33	-5.33	-2.33	-7.33	-0.33	-3.33	-6.33	5.67	-7.33	4.67	1.67	-4.33	-6.33	0.67	-1.33	1.67	-3.33	-2.33
181	11.451	10.0	-2.0	-1.0	-4.0	8.0	-1.0	8.0	4.0	4.0	1.0	-2.0	2.0	-4.0	1.0	3.0	4.0	4.0	6.0	4.0	0.0	0.0	5.0	0.0	11.0	4.0	5.0	-2.0
188	11.898	15.0	-3.0	-4.0	0.0	-4.0	1.0	1.0	-9.0	2.0	-4.0	-9.0	7.0	-3.0	-3.0	-6.0	-1.0	0.0	0.0	-3.0	1.0	6.0	-3.0	3.0	-5.0	-4.0	-1.0	3.0
195	12.344	9.33	8.67	2.67	-0.33	5.67	5.67	2.67	0.67	1.67	5.67	1.67	5.67	6.67	1.67	-4.33	5.67	2.67	8.67	-0.33	2.67	5.67	10.67	8.67	4.67	6.67	-0.33	2.67
202	12.791	6.33	5.67	9.67	7.67	11.67	6.67	7.67	9.67	6.67	3.67	4.67	7.67	8.67	2.67	13.67	4.67	7.67	8.67	3.67	15.67	8.67	4.67	12.67	10.67	8.67	10.67	11.67
209	13.238	10.67	8.33	1.33	0.33	-1.67	7.33	2.33	5.33	-3.67	4.33	3.33	5.33	-2.67	-0.67	-2.67	-1.67	2.33	10.33	6.33	3.33	0.33	5.33	-1.67	5.33	6.33	7.33	1.33
216	13.684	13.0	-7.0	-2.0	-2.0	-5.0	-1.0	-3.0	-2.0	-7.0	-1.0	-3.0	9.0	1.0	-2.0	1.0	-4.0	4.0	-3.0	-6.0	-6.0	-6.0	-5.0	-5.0	3.0	2.0	2.0	3.0
223	14.131	18.0	-10.0	-4.0	-7.0	-9.0	-9.0	-4.0	-8.0	-7.0	4.0	-9.0	-4.0	1.0	-5.0	2.0	-4.0	-2.0	-6.0	-10.0	-2.0	-2.0	-8.0	-5.0	-3.0	-7.0	-5.0	-5.0
230	14.577	9.0	2.0	0.0	-3.0	5.0	4.0	3.0	1.0	0.0	1.0	3.0	-3.0	12.0	5.0	14.0	1.0	8.0	6.0	7.0	8.0	3.0	2.0	7.0	4.0	2.0	7.0	4.0
237	15.023	13.67	-6.67	-4.67	4.33	1.33	-2.67	-5.67	-0.67	-9.67	2.33	-1.67	-1.67	-2.67	-2.67	-0.67	-0.67	-0.67	5.33	1.33	-0.67	-3.67	0.33	-0.67	3.33	-1.67	3.33	0.33
244	15.469	10.0	4.0	6.0	8.0	4.0	8.0	2.0	13.0	0.0	-2.0	5.0	-5.0	3.0	7.0	5.0	-1.0	1.0	8.0	-5.0	8.0	2.0	3.0	5.0	2.0	0.0	5.0	2.0
251	15.915	9.33	-0.33	3.67	7.67	6.67	2.67	7.67	-2.33	-0.33	0.67	5.67	-1.33	2.67	-1.33	-0.33	5.67	0.67	0.67	8.67	4.67	7.67	0.67	8.67	3.67	6.67	3.67	10.67
258	16.361	11.33	-3.33	2.67	5.67	-0.33	-0.33	-0.33	2.67	-1.33	4.67	0.67	0.67	4.67	3.67	2.67	3.67	2.67	0.67	-0.33	0.67	-0.33	-2.33	3.67	3.67	5.67	1.67	1.67
265	16.807	14.0	-4.0	-7.0	-3.0	-8.0	-7.0	-7.0	5.0	2.0	1.0	-2.0	12.0	-3.0	3.0	-6.0	-8.0	-4.0	-7.0	-7.0	0.0	-5.0	-1.0	1.0	-3.0	4.0	-1.0	1.0
272	17.253	11.33	3.67	3.67	4.67	-2.33	-5.33	1.67	1.67	-1.33	4.67	7.67	-2.33	3.67	-0.33	0.67	-2.33	10.67	8.67	-2.33	0.67	3.67	0.67	1.67	3.67	1.67	4.67	-0.33
279	17.699	9.0	-2.0	2.0	3.0	6.0	4.0	3.0	5.0	0.0	0.0	8.0	2.0	6.0	-3.0	1.0	9.0	5.0	13.0	11.0	4.0	6.0	0.0	2.0	1.0	4.0	-1.0	7.0
286	18.145	9.0	10.0	5.0	-5.0	3.0	3.0	7.0	0.0	4.0	3.0	5.0	3.0	4.0	-3.0	-2.0	-2.0	2.0	0.0	2.0	6.0	-1.0	5.0	5.0	5.0	1.0	1.0	2.0
293	18.59	11.33	1.67	8.67	1.67	-0.33	1.67	3.67	-0.33	1.67	3.67	0.67	0.67	0.67	-0.33	-3.33	1.67	1.67	1.67	-3.33	-0.33	-0.33	-0.33	-2.33	-3.33	-0.33	5.67	5.67
300	19.036	12.33	3.67	-0.33	-1.33	-6.33	-3.33	0.67	-1.33	-4.33	-4.33	0.67	10.67	-1.33	2.67	-7.33	-0.33	0.67	1.67	7.67	-2.33	-6.33	8.67	0.67	1.67	0.67	-2.33	-5.33
307	19.481	11.67	-0.67	-2.67	5.33	-0.67	-4.67	-3.67	-0.67	-5.67	-0.67	2.33	1.33	-2.67	4.33	-8.67	5.33	1.33	-5.67	-2.67	0.33	-7.67	5.33	5.33	-3.67	-5.67	-2.67	3.33
314	19.927	6.67	8.33	7.33	6.33	8.33	-0.67	15.33	13.33	7.33	8.33	5.33	4.33	5.33	3.33	5.33	10.33	1.33	3.33	5.33	2.33	10.33	0.33	5.33	4.33	3.33	6.33	9.33
321	20.372	13.0	-2.0	-3.0	-5.0	-4.0	3.0	-4.0	-2.0	-5.0	-8.0	4.0	2.0	3.0	2.0	-5.0	-1.0	1.0	-7.0	-2.0	-5.0	-1.0	-1.0	3.0	0.0	-2.0	3.0	0.0
328	20.817	10.0	2.0	0.0	-2.0	8.0	0.0	5.0	3.0	2.0	2.0	2.0	0.0	9.0	0.0	-2.0	0.0	3.0	4.0	3.0	3.0	7.0	-4.0	4.0	-3.0	2.0	0.0	1.0
335	21.262	8.0	2.0	3.0	-2.0	4.0	3.0	6.0	6.0	7.0	-1.0	8.0	0.0	2.0	5.0	-2.0	7.0	9.0	-5.0	4.0	3.0	10.0	2.0	6.0	-3.0	-1.0	8.0	4.0
342	21.708	11.0	1.0	-3.0	0.0	1.0	1.0	2.0	-1.0	6.0	-5.0	4.0	-2.0	5.0	2.0	4.0	2.0	4.0	6.0	1.0	10.0	0.0	5.0	2.0	2.0	0.0	1.0	-1.0
349	22.153	9.67	1.33	-2.67	-2.67	-1.67	0.33	-3.67	2.33	5.33	-0.67	-1.67	5.33	3.33	-0.67	1.33	-2.67	1.33	-2.67	3.33	-4.67	8.33	-2.67	-2.67	2.33	4.33	0.33	7.33
356	22.598	7.0	2.0	1.0	4.0	5.0	1.0	3.0	6.0	9.0	4.0	8.0	1.0	3.0	2.0	8.0	3.0	1.0	2.0	3.0	5.0	6.0	6.0	3.0	3.0	3.0	1.0	4.0
363	23.043	7.67	1.33	3.33	4.33	3.33	2.33	3.33	3.33	3.33	3.33	-1.67	3.33	0.33	-3.67	6.33	3.33	1.33	5.33	7.33	4.33	11.33	4.33	9.33	6.33	3.33	5.33	-3.67
370	23.488	8.0	4.0	5.0	3.0	-2.0	8.0	1.0	7.0	0.0	11.0	2.0	3.0	-2.0	0.0	3.0	8.0	2.0	-3.0	4.0	12.0	5.0	3.0	0.0	0.0	9.0	3.0	4.0
377	23.932	10.0	1.0	-2.0	3.0	1.0	10.0	2.0	-2.0	1.0	-1.0	5.0	0.0	-3.0	3.0	3.0	7.0	5.0	1.0	2.0	5.0	3.0	-1.0	5.0	5.0	2.0	4.0	-1.0
384	24.377	9.0	2.0	3.0	5.0	8.0	3.0	5.0	0.0	-3.0	-1.0	2.0	-2.0	1.0	4.0	-1.0	5.0	4.0	4.0	4.0	-1.0	5.0	-4.0	-2.0	-1.0	1.0	6.0	3.0
391	24.822	5.0	2.0	4.0	12.0	6.0	9.0	-3.0	1.0	7.0	12.0	9.0	11.0	2.0	7.0	3.0	11.0	4.0	4.0	5.0	6.0	1.0	7.0	1.0	2.0	13.0	5.0	8.0
398	25.267	6.0	1.0	2.0	-1.0	7.0	13.0	0.0	9.0	3.0	2.0	4.0	5.0	2.0	4.0	5.0	6.0	8.0	9.0	3.0	1.0	7.0	2.0	2.0	5.0	3.0	9.0	8.0
405	25.711	11.0	-6.0	-5.0	3.0	1.0	-3.0	-8.0	-3.0	8.0	-4.0	-4.0	-3.0	-2.0	9.0	-1.0	0.0	-3.0	1.0	-4.0	0.0	0.0	-1.0	-2.0	-2.0	0.0	1.0	0.0
412	26.156	9.33	2.67	4.67	-4.33	0.67	2.67	-5.33	0.67	-3.33	-4.33	-6.33	1.67	-4.33	3.67	-1.33	4.67	4.67	-1.33	3.67	-0.33	-1.33	5.67	-3.33	-2.33	-6.33	5.67	-2.33
419	26.601	8.67	-2.67	0.33	-2.67	5.33	0.33	-0.67	3.33	0.33	-0.67	-2.67	-0.67	-1.67	0.33	-1.67	6.33	2.33	-0.67	-1.67	-2.67	-0.67	-1.67	3.33	-1.67	0.33	2.33	1.33
426	27.045	9.67	-1.67	-4.67	-0.67	2.33	0.33	3.33	-3.67	2.33	9.33	-0.67	-0.67	7.33	-3.67	-0.67	0.33	-5.67	-0.67	-4.67	-2.67	-4.67	0.33	-1.67	-0.67	-0.67	-0.67	-3.67
433	27.49	6.67	5.33	-1.67	3.33	2.33	5.33	-0.67	4.33	2.33	1.33	1.33	-0.67	2.33	5.33	0.33	4.33	0.33	4.33	3.33	1.33	2.33	8.33	4.33	13.33	1.33	-0.67	4.33
440	27.934	11.33	-2.33	-4.33	-6.33	-2.33	1.67	2.67	-3.33	-1.33	-2.33	-0.33	5.67	-6.33	-2.33	-7.33	-7.33	-0.33	-0.33	-5.33	-6.33	-1.33	-4.33	-3.33	-0.33	-0.33	-3.33	-4.33
447	28.379	8.67	-2.67	5.33	1.33	-6.67	-1.67	5.33	-3.67	-2.67	-4.67	-1.67	3.33	-2.67	-0.67	0.33	0.33	-0.67	0.33	0.33	0.33	0.33	-2.67	3.33	2.33	-2.67	1.33	4.33
454	28.823	8.33	-5.33	-2.33	-1.33	-0.33	-2.33	0.67	-0.33	-1.33	-0.33	-6.33	-2.33	-4.33	-3.33	-1.33	-6.33	-2.33	-4.33	0.67	4.67	-3.33	1.67	-0.33	1.67	3.67	-0.33	-4.33
461	29.267	4.67	5.33	3.33	1.33	2.33	1.33	6.33	2.33	0.33	7.33	3.33	0.33	3.33	5.33	9.33	9.33	4.33	8.33	2.33	2.33	2.33	7.33	5.33	5.33	2.33	10.33	2.33
468	29.712	6.0	1.0	6.0	-2.0	5.0	5.0	4.0	3.0	6.0	0.0	-2.0	-1.0	4.0	6.0	-2.0	0.0	-2.0	1.0	0.0	7.0	2.0	1.0	2.0	3.0	3.0	3.0	5.0
475	30.156	5.33	2.67	2.67	3.67	0.67	-0.33	-3.33	-1.33	1.67	0.67	1.67	1.67	2.67	1.67	2.67	3.67	2.67	3.67	2.67	4.67	0.67	0.67	5.67	0.67	0.67	4.67	6.67
482	30.6	6.0	3.0	3.0	2.0	5.0	1.0	-2.0	2.0	0.0	3.0	2.0	2.0	1.0	6.0	1.0	6.0	0.0	-1.0	0.0	2.0	2.0	7.0	1.0	-3.0	3.0	2.0	3.0
489	31.045	8.33	-1.33	-0.33	0.67	2.67	5.67	-3.33	2.67	0.67	0.67	3.67	2.67	1.67	0.67	-1.33	-2.33	2.67	-1.33	-4.33	0.67	-5.33	-0.33	-2.33	0.67	-5.33	-3.33	2.67
496	31.489	10.0	-5.0	-6.0	-3.0	-2.0	-4.0	1.0	-4.0	-3.0	-6.0	-7.0	-5.0	-5.0	-1.0	-2.0	2.0	-5.0	-3.0	-4.0	-6.0	-2.0	-1.0	-3.0	-4.0	-8.0	4.0	-5.0
503	31.933	12.0	-4.0	-3.0	-5.0	-5.0	-5.0	-5.0	-5.0	-9.0	-4.0	-7.0	-6.0	3.0	-5.0	-6.0	-3.0	-5.0	1.0	-4.0	2.0	-4.0	-8.0	0.0	-5.0	-2.0	-4.0	-7.0
510	32.377	5.33	-2.33	-0.33	4.67	-0.33	4.67	2.67	3.67	-0.33	0.67	5.67	2.67	1.67	2.67	-2.33	1.67	0.67	1.67	1.67	0.67	0.67	0.67	6.67	-0.33	0.67	1.67	-1.33
517	32.822	5.33	2.67	1.67	-0.33	-1.33	-1.33	-0.33	-2.33	-2.33	-0.33	3.67	3.67	1.67	-0.33	4.67	-0.33	4.67	5.67	4.67	-2.33	4.67	6.67	5.67	-1.33	2.67	4.67	-0.33
524	33.266	6.0	0.0	0.0	2.0	1.0	-3.0	-2.0	0.0	0.0	2.0	1.0	3.0	4.0	0.0	0.0	-1.0	2.0	6.0	2.0	1.0	0.0	1.0	1.0	2.0	3.0	3.0	0.0
531	33.71	6.0	2.0	2.0	3.0	1.0	-4.0	0.0	-3.0	2.0	-2.0	6.0	4.0	3.0	0.0	1.0	-2.0	-3.0	6.0	-2.0	0.0	0.0	-3.0	5.0	-1.0	0.0	5.0	2.0
538	34.154	5.33	-3.33	3.67	-0.33	0.67	2.67	1.67	3.67	3.67	1.67	1.67	-2.33	-0.33	2.67	-0.33	4.67	0.67	0.67	3.67	0.67	5.67	1.67	-0.33	-1.33	0.67	-0.33	3.67
545	34.598	5.67	-2.67	1.33	-0.67	-2.67	-1.67	4.33	5.33	2.33	3.33	-0.67	-3.67	2.33	1.33	1.33	1.33	-0.67	4.33	1.33	3.33	5.33	3.33	2.33	0.33	1.33	2.33	-0.67
552	35.043	6.33	0.67	0.67	0.67	-1.33	-1.33	1.67	4.67	0.67	-3.33	-1.33	2.67	-0.33	1.67	-3.33	4.67	-1.33	1.67	0.67	4.67	2.67	-1.33	-0.33	2.67	-0.33	2.67	2.67
559	35.487	6.0	-3.0	0.0	-3.0	3.0	3.0	0.0	0.0	0.0	-2.0	-2.0	7.0	-5.0	0.0	0.0	-3.0	1.0	0.0	2.0	-2.0	2.0	2.0	-1.0	-3.0	-1.0	1.0	3.0
566	35.931	6.33	-2.33	-2.33	2.67	-2.33	-0.33	2.67	1.67	-2.33	-0.33	4.67	-0.33	-0.33	0.67	-1.33	-1.33	2.67	-1.33	-0.33	-0.33	-1.33	-4.33	-1.33	0.67	0.67	3.67	-0.33
573	36.375	5.33	-0.33	1.67	4.67	-4.33	-1.33	0.67	-1.33	0.67	1.67	0.67	-1.33	3.67	3.67	-2.33	0.67	0.67	-1.33	2.67	5.67	-2.33	-1.33	1.67	3.67	-1.33	-2.33	0.67
580	36.819	6.0	0.0	0.0	1.0	3.0	3.0	0.0	0.0	-4.0	-1.0	-3.0	-2.0	1.0	-2.0	0.0	4.0	0.0	0.0	8.0	-1.0	-2.0	-4.0	-1.0	6.0	1.0	-1.0	-1.0
587	37.263	5.67	-0.67	-1.67	2.33	-2.67	1.33	4.33	-0.67	-0.67	4.33	-3.67	-1.67	0.33	0.33	-1.67	-2.67	-0.67	-2.67	-1.67	-0.67	-3.67	5.33	-2.67	3.33	3.33	-0.67	4.33
594	37.707	6.67	-1.67	-3.67	-3.67	6.33	-2.67	-2.67	-0.67	1.33	-1.67	-3.67	0.33	-3.67	5.33	-1.67	-1.67	-0.67	0.33	2.33	2.33	-2.67	3.33	-1.67	-0.67	-4.67	2.33	0.33
601	38.152	4.67	2.33	-0.67	1.33	-1.67	-2.67	-0.67	-1.67	0.33	2.33	0.33	-0.67	-0.67	-0.67	4.33	-1.67	2.33	5.33	0.33	3.33	2.33	1.33	7.33	0.33	1.33	0.33	-0.67
608	38.596	5.0	1.0	5.0	1.0	2.0	-2.0	4.0	1.0	4.0	0.0	1.0	5.0	-2.0	-2.0	-2.0	1.0	-1.0	1.0	-1.0	-2.0	0.0	-2.0	0.0	3.0	0.0	1.0	4.0
615	39.04	7.33	-4.33	-5.33	-0.33	-1.33	-4.33	2.67	-2.33	-2.33	-1.33	-1.33	-4.33	0.67	-4.33	-2.33	-5.33	-3.33	-4.33	-2.33	-3.33	0.67	0.67	1.67	0.67	-0.33	-2.33	0.67
622	39.484	4.67	5.33	-4.67	4.33	3.33	3.33	2.33	1.33	-0.67	3.33	-1.67	2.33	-1.67	0.33	3.33	1.33	-1.67	-1.67	0.33	-0.67	2.33	0.33	-0.67	1.33	3.33	3.33	2.33
629	39.928	6.0	-1.0	-2.0	-2.0	-2.0	-2.0	-2.0	4.0	-2.0	-2.0	2.0	2.0	-2.0	-2.0	0.0	2.0	-1.0	-3.0	2.0	0.0	1.0	5.0	0.0	5.0	-1.0	3.0	-4.0
636	40.372	6.33	1.67	-1.33	0.67	-0.33	-2.33	-0.33	-4.33	2.67	1.67	-2.33	-2.33	0.67	-0.33	-1.33	3.67	-2.33	-1.33	-3.33	4.67	4.67	3.67	-2.33	-0.33	2.67	-1.33	-1.33
643	40.817	9.0	-5.0	-2.0	-3.0	-4.0	-4.0	-1.0	-3.0	-3.0	0.0	-1.0	-7.0	-6.0	-5.0	-1.0	-6.0	-4.0	-4.0	1.0	-1.0	-1.0	1.0	-3.0	-2.0	-2.0	-6.0	-4.0
650	41.261	4.67	1.33	-2.67	3.33	4.33	2.33	0.33	0.33	3.33	-0.67	3.33	-0.67	2.33	1.33	-0.67	3.33	0.33	-0.67	4.33	3.33	-0.67	7.33	8.33	-1.67	3.33	-0.67	3.33
657	41.705	6.67	-1.67	-2.67	3.33	2.33	2.33	-1.67	-3.67	1.33	-0.67	0.33	-2.67	4.33	-1.67	1.33	-0.67	-1.67	-0.67	-1.67	4.33	-2.67	3.33	0.33	-0.67	-0.67	-0.67	1.33
664	42.149	9.33	-6.33	-5.33	-1.33	-0.33	-0.33	-3.33	-5.33	-3.33	-2.33	-1.33	-4.33	1.67	-4.33	-0.33	0.67	-3.33	-5.33	-3.33	-2.33	-1.33	-5.33	3.67	-0.33	2.67	-5.33	-5.33
671	42.594	8.33	-1.33	1.67	-3.33	-4.33	-2.33	1.67	-3.33	-0.33	1.67	-0.33	3.67	-0.33	-2.33	-4.33	-4.33	-7.33	-2.33	-1.33	-1.33	0.67	-1.33	-3.33	4.67	-1.33	-2.33	-4.33
678	43.038	8.67	-1.67	-3.67	-0.67	-0.67	-0.67	-0.67	-2.67	-0.67	-5.67	-4.67	-4.67	1.33	-3.67	-2.67	2.33	0.33	-1.67	-1.67	1.33	-2.67	0.33	-2.67	-3.67	0.33	2.33	-4.67
685	43.482	7.33	-1.33	-1.33	2.67	-0.33	-0.33	0.67	-2.33	1.67	0.67	-3.33	3.67	-0.33	-3.33	-2.33	2.67	2.67	4.67	-1.33	1.67	3.67	-0.33	-2.33	-0.33	0.67	3.67	-3.33
692	43.927	8.67	-5.67	-2.67	-3.67	4.33	-3.67	4.33	1.33	-4.67	1.33	-3.67	-6.67	0.33	-4.67	0.33	-3.67	-3.67	-7.67	-6.67	3.33	2.33	-2.67	-2.67	-5.67	3.33	-3.67	4.33
699	44.371	8.33	3.67	-3.33	-1.33	-0.33	-5.33	-2.33	-5.33	-4.33	-3.33	2.67	-0.33	1.67	0.67	-7.33	0.67	1.67	-1.33	-4.33	-4.33	1.67	1.67	1.67	-1.33	-0.33	-0.33	-4.33
706	44.815	13.67	-5.67	-3.67	-8.67	-4.67	2.33	-4.67	-5.67	-5.67	-5.67	-4.67	-9.67	-6.67	-4.67	-2.67	-8.67	-11.67	-2.67	-7.67	-3.67	-3.67	-7.67	-2.67	-7.67	-6.67	-9.67	-7.67
713	45.26	7.33	-3.33	1.67	0.67	3.67	-1.33	2.67	2.67	2.67	-3.33	2.67	-2.33	-4.33	1.67	-4.33	-0.33	-1.33	1.67	9.67	-0.33	-3.33	-2.33	3.67	-0.33	2.67	2.67	-3.33
720	45.704	11.67	-4.67	-6.67	-1.67	-8.67	-4.67	-3.67	0.33	-3.67	-1.67	-2.67	-2.67	-5.67	-5.67	-3.67	-4.67	-5.67	-6.67	-3.67	1.33	-3.67	-2.67	-0.67	2.33	-1.67	-9.67	-4.67
727	46.149	8.67	-2.67	-2.67	1.33	0.33	-4.67	6.33	-1.67	3.33	2.33	1.33	-1.67	1.33	0.33	-2.67	-0.67	-1.67	3.33	1.33	4.33	2.33	-0.67	0.33	-2.67	-0.67	1.33	-5.67
734	46.594	12.67	-5.67	-3.67	-4.67	-5.67	-2.67	-7.67	-1.67	-6.67	-4.67	-7.67	-6.67	-0.67	0.33	-1.67	-6.67	-7.67	-6.67	-7.67	0.33	-5.67	-3.67	-2.67	-6.67	-3.67	-6.67	-9.67
741	47.038	11.0	-5.0	-4.0	-5.0	-5.0	0.0	2.0	-3.0	-5.0	-2.0	2.0	-7.0	-9.0	-8.0	-4.0	-1.0	-3.0	1.0	-3.0	-3.0	-7.0	-6.0	-2.0	1.0	-3.0	-2.0	-2.0
748	47.483	9.0	-5.0	-3.0	1.0	-4.0	-3.0	-3.0	-2.0	-4.0	-3.0	-2.0	0.0	-3.0	-1.0	-4.0	-3.0	1.0	-5.0	-1.0	-1.0	0.0	-3.0	7.0	-5.0	-1.0	2.0	0.0
755	47.928	11.0	-6.0	-3.0	-3.0	-3.0	-2.0	-4.0	1.0	-3.0	0.0	0.0	-4.0	-4.0	-2.0	0.0	-2.0	-1.0	-7.0	0.0	-2.0	0.0	-3.0	-1.0	-4.0	-1.0	-3.0	0.0
762	48.372	15.0	-9.0	-5.0	-12.0	-8.0	-10.0	-5.0	-4.0	-12.0	-2.0	-9.0	-11.0	-3.0	-6.0	-9.0	-11.0	-3.0	1.0	-7.0	-12.0	-8.0	-7.0	-9.0	-8.0	-6.0	-1.0	-5.0
769	48.817	16.33	-10.33	-4.33	-7.33	-11.33	-7.33	-4.33	-5.33	-8.33	-10.33	-6.33	-8.33	-8.33	-11.33	-2.33	-7.33	-5.33	-4.33	-5.33	-4.33	-8.33	-9.33	-5.33	-7.33	-4.33	-6.33	-3.33
776	49.262	14.0	-3.0	-6.0	-3.0	-5.0	-1.0	-5.0	-6.0	-5.0	-5.0	1.0	-5.0	-6.0	-3.0	-7.0	-6.0	2.0	-4.0	-6.0	-7.0	-4.0	3.0	-3.0	-8.0	5.0	-4.0	2.0
783	49.707	13.33	-1.33	-7.33	-2.33	-6.33	4.67	-7.33	5.67	-2.33	-4.33	-5.33	-9.33	-5.33	-4.33	-6.33	-3.33	0.67	-4.33	1.67	-1.33	-4.33	-5.33	-0.33	-3.33	-3.33	-3.33	-2.33
790	50.152	14.33	-8.33	-5.33	-12.33	-4.33	-5.33	-5.33	-7.33	3.67	-6.33	-4.33	-1.33	-4.33	-2.33	-0.33	-0.33	-4.33	-0.33	-2.33	-4.33	-0.33	1.67	-1.33	-3.33	-3.33	1.67	-5.33
797	50.597	17.0	-10.0	-9.0	-6.0	-10.0	-2.0	-2.0	-8.0	0.0	-3.0	2.0	-6.0	-5.0	-5.0	-1.0	1.0	-4.0	-4.0	-5.0	0.0	1.0	9.0	-3.0	-6.0	-5.0	-3.0	-7.0
804	51.042	19.33	-5.33	-9.33	-9.33	-7.33	0.67	4.67	-0.33	1.67	3.67	-5.33	0.67	-0.33	-0.33	-1.33	-6.33	5.67	0.67	-3.33	9.67	8.67	2.67	5.67	6.67	4.67	-0.33	1.67
811	51.487	12.0	7.0	3.0	-7.0	4.0	18.0	26.0	11.0	17.0	19.0	17.0	21.0	23.0	16.0	10.0	17.0	14.0	12.0	21.0	16.0	21.0	28.0	19.0	21.0	19.0	13.0	15.0
818	51.932	18.33	-7.33	-4.33	-11.33	-2.33	-2.33	10.67	14.67	8.67	17.67	9.67	9.67	6.67	5.67	13.67	16.67	5.67	7.67	20.67	7.67	7.67	1.67	10.67	11.67	12.67	12.67	7.67
825	52.377	17.0	-4.0	-6.0	-9.0	-3.0	-4.0	-2.0	-8.0	-4.0	-2.0	-1.0	4.0	8.0	-4.0	10.0	9.0	0.0	-2.0	0.0	-1.0	0.0	4.0	5.0	3.0	7.0	-6.0	0.0
832	52.823	24.33	-17.33	-11.33	-17.33	-7.33	-13.33	-9.33	-12.33	-2.33	-2.33	-7.33	-12.33	-11.33	-13.33	-4.33	-9.33	-12.33	-10.33	3.67	-8.33	-14.33	-12.33	-11.33	-20.33	-12.33	-10.33	-12.33
839	53.268	16.0	-6.0	-10.0	-5.0	2.0	-6.0	-5.0	4.0	-3.0	-6.0	-5.0	-10.0	1.0	-4.0	0.0	-3.0	0.0	-3.0	-4.0	-10.0	0.0	-9.0	-3.0	-7.0	-1.0	-1.0	-5.0
846	53.713	18.33	-6.33	2.67	-15.33	-3.33	-4.33	-6.33	0.67	-7.33	0.67	-4.33	-7.33	3.67	-4.33	-5.33	-11.33	-2.33	-7.33	-5.33	-7.33	-9.33	-5.33	-3.33	-6.33	-12.33	-3.33	-6.33
853	54.159	17.0	0.0	-3.0	-11.0	-1.0	-1.0	-7.0	-5.0	3.0	-2.0	-2.0	6.0	-3.0	-2.0	-3.0	-4.0	-8.0	-2.0	-11.0	1.0	1.0	-4.0	-2.0	7.0	1.0	-6.0	-7.0
860	54.604	18.0	-6.0	-8.0	-3.0	0.0	-2.0	-1.0	0.0	-8.0	-4.0	-6.0	-10.0	-6.0	-2.0	-1.0	-2.0	-1.0	2.0	0.0	-5.0	-3.0	-3.0	-1.0	-4.0	1.0	-3.0	-12.0
867	55.05	21.33	-8.33	-11.33	-6.33	-9.33	-9.33	-8.33	1.67	-13.33	-6.33	-7.33	-7.33	-7.33	-2.33	-3.33	-10.33	-10.33	-6.33	0.67	-9.33	-9.33	-14.33	-12.33	-10.33	-6.33	-6.33	-5.33
874	55.496	17.0	-7.0	-6.0	-9.0	2.0	1.0	-4.0	-6.0	-2.0	-1.0	-5.0	-8.0	-7.0	-6.0	-8.0	-8.0	-6.0	-10.0	-4.0	-1.0	-11.0	-10.0	-5.0	-1.0	3.0	-6.0	-4.0
881	55.942	22.0	-7.0	-8.0	-11.0	-13.0	-10.0	-9.0	-9.0	-12.0	-12.0	-5.0	-7.0	-11.0	-9.0	-7.0	-11.0	-15.0	-6.0	-13.0	-11.0	-11.0	-6.0	-4.0	-10.0	-9.0	-7.0	-8.0
888	56.387	21.0	-12.0	-2.0	-8.0	-4.0	-7.0	-7.0	-7.0	-6.0	-5.0	0.0	-10.0	-11.0	-7.0	-5.0	-4.0	-9.0	-12.0	-11.0	-10.0	-13.0	-11.0	-9.0	-4.0	-2.0	-2.0	-8.0
895	56.833	19.0	-12.0	1.0	-7.0	-7.0	0.0	-11.0	-10.0	-3.0	-4.0	-6.0	-12.0	-5.0	-8.0	-8.0	-7.0	-8.0	-4.0	-8.0	-9.0	-10.0	-10.0	0.0	3.0	-5.0	-6.0	-4.0
902	57.279	21.67	-16.67	-4.67	-11.67	-6.67	-1.67	0.33	-6.67	-12.67	-10.67	-8.67	-10.67	-4.67	-11.67	-1.67	-8.67	-4.67	0.33	-14.67	-8.67	-3.67	-2.67	-10.67	-1.67	-5.67	-11.67	-4.67
909	57.726	17.0	-11.0	3.0	5.0	-3.0	-5.0	-2.0	0.0	-3.0	-7.0	1.0	-3.0	1.0	0.0	2.0	1.0	4.0	-8.0	0.0	-4.0	0.0	-4.0	-3.0	-4.0	7.0	-5.0	6.0
916	58.172	18.0	-1.0	-3.0	-5.0	0.0	-6.0	-1.0	-5.0	3.0	4.0	-3.0	0.0	6.0	0.0	-5.0	6.0	-6.0	1.0	-6.0	12.0	3.0	-6.0	-1.0	1.0	-3.0	-10.0	-2.0
923	58.618	19.33	-6.33	-7.33	-6.33	-5.33	-4.33	-2.33	1.67	-1.33	2.67	-13.33	-2.33	-10.33	-5.33	-6.33	-8.33	-6.33	-1.33	-7.33	-3.33	-5.33	-4.33	-9.33	2.67	-5.33	-1.33	-9.33
930	59.064	22.67	-6.67	-6.67	-11.67	-9.67	-1.67	-1.67	-2.67	-0.67	-11.67	-1.67	-2.67	3.33	-9.67	-1.67	-2.67	-10.67	4.33	-5.67	2.33	-4.67	-6.67	2.33	-6.67	-12.67	-6.67	-5.67
937	59.511	23.67	7.33	-7.67	-6.67	-3.67	-5.67	-4.67	0.33	0.33	-6.67	-14.67	-3.67	-12.67	-1.67	4.33	-5.67	-0.67	-7.67	-2.67	1.33	3.33	-8.67	-3.67	-9.67	-2.67	-9.67	1.33
944	59.957	18.33	-8.33	1.67	-0.33	-4.33	-6.33	-4.33	8.67	-5.33	-7.33	-8.33	-0.33	-3.33	-0.33	3.67	-0.33	-4.33	-6.33	-7.33	-1.33	-3.33	-9.33	0.67	-2.33	-2.33	-2.33	-1.33
951	60.404	18.67	-10.67	-2.67	-0.67	-7.67	-2.67	0.33	-0.67	2.33	6.33	-3.67	-2.67	-7.67	-4.67	-10.67	0.33	-1.67	-7.67	-7.67	-2.67	-2.67	1.33	-10.67	-7.67	2.33	-4.67	-10.67
958	60.851	23.33	-12.33	-16.33	-12.33	-15.33	-11.33	-11.33	-6.33	-8.33	-8.33	-12.33	-18.33	-10.33	-15.33	-8.33	-5.33	-6.33	-4.33	-9.33	-12.33	-11.33	-13.33	-8.33	-7.33	-11.33	-9.33	-7.33
965	61.298	17.33	-6.33	-7.33	-2.33	-5.33	-11.33	-2.33	-5.33	-2.33	5.67	0.67	-8.33	-0.33	-8.33	-4.33	-5.33	-0.33	-3.33	-8.33	-6.33	-5.33	0.67	-3.33	-2.33	-4.33	-1.33	-3.33
972	61.745	21.33	-7.33	-8.33	-4.33	-5.33	-1.33	-1.33	-1.33	-3.33	-1.33	-15.33	2.67	-7.33	-7.33	-4.33	-8.33	-9.33	-5.33	-8.33	-5.33	-7.33	-9.33	-5.33	-2.33	-9.33	1.67	-5.33
979	62.192	17.67	-7.67	-3.67	-1.67	-7.67	1.33	-5.67	1.33	-3.67	4.33	4.33	-1.67	1.33	0.33	3.33	-0.67	-7.67	-1.67	-8.67	-9.67	-0.67	2.33	-2.67	-8.67	-0.67	-4.67	-5.67
986	62.639	18.67	-7.67	-1.67	-4.67	-5.67	4.33	2.33	-2.67	1.33	-4.67	5.33	-2.67	-6.67	-5.67	-5.67	-1.67	-9.67	0.33	-2.67	0.33	-4.67	-5.67	5.33	-2.67	-3.67	4.33	-0.67
993	63.086	19.33	-4.33	-2.33	-3.33	-3.33	-3.33	-6.33	-0.33	-2.33	-3.33	2.67	-1.33	-2.33	-0.33	-3.33	-3.33	-10.33	-3.33	-4.33	-4.33	-2.33	-1.33	-9.33	-3.33	4.67	-1.33	-4.33
1000	63.533	14.0	0.0	-2.0	6.0	3.0	3.0	2.0	1.0	-1.0	6.0	1.0	0.0	-5.0	-1.0	5.0	3.0	2.0	0.0	2.0	5.0	-1.0	-2.0	-3.0	3.0	0.0	-1.0	-4.0
1007	63.981	16.33	-5.33	3.67	2.67	-2.33	1.67	6.67	0.67	0.67	0.67	-8.33	9.67	3.67	-4.33	-4.33	-0.33	15.67	-0.33	1.67	1.67	0.67	-6.33	-0.33	2.67	0.67	0.67	-0.33
1014	64.428	18.33	5.67	-3.33	0.67	3.67	3.67	-0.33	1.67	-2.33	5.67	-0.33	-5.33	-1.33	4.67	12.67	-2.33	1.67	-3.33	-9.33	4.67	-6.33	-3.33	1.67	2.67	1.67	4.67	0.67
1021	64.876	21.33	-6.33	-3.33	7.67	3.67	11.67	-3.33	-6.33	7.67	4.67	-2.33	8.67	-0.33	0.67	0.67	0.67	3.67	3.67	6.67	3.67	-0.33	10.67	6.67	-0.33	-4.33	-4.33	0.67
1028	65.324	18.67	17.33	14.33	15.33	29.33	28.33	16.33	14.33	10.33	12.33	8.33	11.33	13.33	10.33	16.33	13.33	8.33	9.33	16.33	13.33	12.33	10.33	11.33	1.33	12.33	3.33	4.33
1035	65.772	18.33	14.67	27.67	26.67	32.67	16.67	20.67	28.67	30.67	8.67	30.67	31.67	19.67	14.67	22.67	29.67	12.67	17.67	13.67	4.67	10.67	12.67	16.67	10.67	12.67	2.67	2.67
1042	66.22	16.33	12.67	19.67	25.67	22.67	12.67	17.67	17.67	25.67	17.67	12.67	18.67	13.67	11.67	16.67	14.67	27.67	13.67	9.67	17.67	9.67	14.67	11.67	12.67	17.67	9.67	17.67
1049	66.668	18.0	-7.0	13.0	17.0	7.0	7.0	9.0	4.0	8.0	4.0	4.0	11.0	13.0	10.0	1.0	12.0	5.0	4.0	1.0	9.0	6.0	6.0	13.0	3.0	1.0	9.0	2.0
1056	67.116	26.67	-1.67	0.33	-2.67	-5.67	-8.67	-1.67	2.33	-7.67	-1.67	4.33	-7.67	1.33	3.33	-3.67	2.33	1.33	-2.67	-11.67	-4.67	-2.67	3.33	-13.67	-11.67	-3.67	2.33	-8.67
1063	67.564	23.33	-6.33	1.67	-3.33	-1.33	-0.33	-0.33	-0.33	-2.33	-5.33	-2.33	-7.33	-4.33	-0.33	4.67	0.67	-5.33	-3.33	1.67	-7.33	5.67	-0.33	-0.33	6.67	0.67	0.67	-1.33
1070	68.013	21.0	-9.0	-1.0	8.0	-4.0	6.0	8.0	-1.0	-2.0	2.0	-5.0	-2.0	-4.0	-4.0	3.0	1.0	-3.0	4.0	-4.0	-3.0	-1.0	-3.0	-1.0	1.0	2.0	-7.0	-2.0
1077	68.462	21.0	-3.0	0.0	-3.0	9.0	-3.0	9.0	-11.0	0.0	-1.0	0.0	-2.0	1.0	-3.0	0.0	-2.0	-5.0	3.0	-2.0	0.0	3.0	-5.0	1.0	2.0	-3.0	2.0	6.0
1084	68.91	20.0	-7.0	-8.0	12.0	6.0	3.0	-3.0	1.0	6.0	-2.0	-5.0	-3.0	7.0	-1.0	-1.0	-5.0	-3.0	9.0	-3.0	1.0	0.0	-3.0	3.0	-6.0	2.0	-1.0	-5.0
1091	69.359	18.67	-9.67	-1.67	3.33	3.33	8.33	1.33	-1.67	14.33	2.33	16.33	-3.67	3.33	10.33	1.33	8.33	-2.67	-5.67	2.33	4.33	-2.67	-2.67	2.33	-2.67	2.33	3.33	5.33
1098	69.808	19.67	-3.67	2.33	1.33	5.33	4.33	-4.67	0.33	2.33	-1.67	2.33	0.33	-0.67	-3.67	-3.67	-5.67	-3.67	-0.67	3.33	-1.67	-3.67	-1.67	0.33	0.33	-1.67	1.33	-6.67
1105	70.257	17.67	-2.67	6.33	-4.67	0.33	-0.67	-4.67	0.33	-2.67	8.33	3.33	-1.67	0.33	2.33	-4.67	12.33	0.33	2.33	1.33	-4.67	-1.67	-4.67	6.33	7.33	0.33	4.33	5.33
1112	70.707	15.67	-0.67	-0.67	1.33	1.33	0.33	-3.67	7.33	-5.67	2.33	8.33	0.33	5.33	3.33	5.33	7.33	5.33	2.33	8.33	2.33	9.33	3.33	11.33	10.33	-2.67	-2.67	7.33
1119	71.156	16.67	-4.67	3.33	0.33	-4.67	7.33	-0.67	9.33	8.33	-10.67	7.33	4.33	3.33	-1.67	1.33	-0.67	6.33	7.33	-1.67	3.33	-0.67	1.33	2.33	7.33	-0.67	3.33	0.33
1126	71.606	13.0	2.0	3.0	14.0	8.0	-1.0	4.0	12.0	-1.0	12.0	11.0	-1.0	1.0	0.0	5.0	8.0	11.0	5.0	11.0	0.0	4.0	1.0	5.0	4.0	9.0	8.0	7.0
1133	72.055	15.67	-3.67	0.33	3.33	5.33	5.33	1.33	7.33	5.33	1.33	8.33	2.33	5.33	-0.67	9.33	3.33	2.33	6.33	3.33	13.33	4.33	8.33	6.33	12.33	1.33	2.33	7.33
1140	72.505	21.0	-7.0	3.0	6.0	0.0	2.0	11.0	-2.0	10.0	3.0	11.0	0.0	-1.0	4.0	2.0	-1.0	10.0	1.0	7.0	2.0	3.0	-2.0	3.0	-3.0	6.0	7.0	1.0
1147	72.955	32.0	6.0	1.0	-6.0	-1.0	0.0	5.0	4.0	3.0	12.0	10.0	13.0	1.0	-4.0	9.0	-6.0	-3.0	11.0	13.0	12.0	3.0	3.0	11.0	11.0	-1.0	13.0	0.0
1154	73.405	26.33	-5.33	-2.33	2.67	1.67	0.67	-0.33	1.67	6.67	3.67	3.67	-0.33	5.67	-4.33	-0.33	9.67	-3.33	6.67	-5.33	8.67	10.67	-7.33	2.67	11.67	0.67	4.67	0.67
1161	73.855	18.67	10.33	0.33	-4.67	4.33	5.33	8.33	4.33	1.33	15.33	5.33	3.33	7.33	5.33	3.33	-0.67	7.33	14.33	9.33	7.33	-2.67	2.33	2.33	7.33	13.33	4.33	8.33
1168	74.306	14.0	10.0	11.0	14.0	11.0	7.0	14.0	13.0	10.0	12.0	11.0	9.0	12.0	6.0	8.0	1.0	6.0	12.0	1.0	4.0	6.0	10.0	5.0	7.0	1.0	13.0	6.0
1175	74.756	28.67	-1.67	5.33	16.33	-0.67	4.33	11.33	10.33	13.33	3.33	6.33	1.33	2.33	-9.67	2.33	12.33	5.33	9.33	4.33	-5.67	2.33	7.33	4.33	14.33	-3.67	1.33	14.33
1182	75.207	44.33	-2.33	12.67	7.67	17.67	14.67	7.67	17.67	11.67	13.67	1.67	12.67	12.67	5.67	1.67	-7.33	8.67	9.67	13.67	9.67	10.67	-0.33	4.67	8.67	12.67	6.67	7.67
1189	75.658	34.67	-1.67	-4.67	0.33	-4.67	5.33	4.33	-2.67	15.33	9.33	-4.67	0.33	4.33	5.33	-2.67	-3.67	0.33	1.33	-2.67	-6.67	11.33	-0.67	2.33	-6.67	-8.67	2.33	2.33
1196	76.109	13.67	8.33	11.33	7.33	11.33	7.33	9.33	6.33	17.33	2.33	3.33	4.33	8.33	7.33	3.33	6.33	11.33	11.33	7.33	5.33	0.33	10.33	10.33	8.33	3.33	5.33	19.33
1203	76.56	19.0	-1.0	-3.0	2.0	10.0	0.0	7.0	5.0	8.0	7.0	0.0	4.0	0.0	2.0	1.0	5.0	1.0	-3.0	4.0	0.0	-1.0	-2.0	3.0	-1.0	-2.0	-2.0	1.0
1210	77.011	19.33	-2.33	-4.33	-3.33	9.67	5.67	-1.33	3.67	-0.33	0.67	1.67	5.67	1.67	4.67	-1.33	-1.33	-3.33	10.67	-0.33	8.67	2.67	5.67	6.67	-0.33	-0.33	3.67	-2.33
1217	77.463	13.0	3.0	16.0	9.0	7.0	14.0	14.0	19.0	8.0	12.0	13.0	16.0	21.0	10.0	11.0	8.0	15.0	5.0	14.0	8.0	11.0	10.0	10.0	4.0	9.0	5.0	7.0
1224	77.915	15.33	4.67	5.67	5.67	20.67	8.67	5.67	5.67	5.67	8.67	9.67	-1.33	0.67	11.67	11.67	-1.33	5.67	12.67	2.67	3.67	9.67	4.67	3.67	7.67	15.67	6.67	15.67
1231	78.366	19.33	-4.33	-1.33	-0.33	-0.33	3.67	9.67	5.67	0.67	-3.33	12.67	5.67	5.67	9.67	-3.33	7.67	-0.33	-0.33	1.67	-0.33	9.67	6.67	5.67	9.67	0.67	8.67	1.67
1238	78.818	19.33	-3.33	1.67	2.67	8.67	4.67	9.67	-0.33	4.67	5.67	4.67	17.67	8.67	8.67	1.67	13.67	7.67	-1.33	2.67	2.67	8.67	0.67	2.67	-3.33	2.67	3.67	3.67
1245	79.271	19.67	-3.67	-3.67	6.33	8.33	6.33	-4.67	4.33	6.33	-1.67	9.33	5.33	6.33	-3.67	10.33	4.33	0.33	6.33	4.33	-0.67	8.33	0.33	0.33	-0.67	15.33	4.33	2.33
1252	79.723	16.0	4.0	1.0	-2.0	9.0	12.0	9.0	12.0	12.0	7.0	2.0	3.0	6.0	9.0	12.0	11.0	1.0	10.0	14.0	7.0	10.0	4.0	2.0	11.0	8.0	13.0	-4.0
1259	80.175	15.67	1.33	10.33	11.33	6.33	2.33	12.33	3.33	6.33	9.33	6.33	11.33	3.33	12.33	21.33	11.33	9.33	5.33	14.33	3.33	8.33	8.33	16.33	14.33	8.33	6.33	4.33
1266	80.628	19.0	0.0	1.0	-3.0	15.0	0.0	16.0	4.0	6.0	8.0	8.0	12.0	16.0	12.0	6.0	8.0	9.0	6.0	12.0	3.0	5.0	-3.0	4.0	1.0	4.0	16.0	8.0
1273	81.081	16.67	11.33	11.33	4.33	4.33	22.33	9.33	12.33	9.33	8.33	16.33	12.33	17.33	17.33	9.33	7.33	6.33	9.33	16.33	5.33	11.33	11.33	16.33	11.33	11.33	5.33	16.33
1280	81.534	22.33	6.67	7.67	3.67	7.67	9.67	2.67	6.67	14.67	9.67	3.67	11.67	11.67	7.67	4.67	10.67	12.67	6.67	16.67	17.67	4.67	3.67	7.67	5.67	15.67	14.67	21.67
1287	81.987	17.0	6.0	9.0	11.0	6.0	20.0	19.0	12.0	16.0	14.0	22.0	16.0	14.0	18.0	25.0	19.0	24.0	14.0	18.0	14.0	18.0	16.0	15.0	23.0	26.0	16.0	4.0
1294	82.441	22.33	19.67	20.67	38.67	37.67	36.67	26.67	19.67	32.67	27.67	14.67	16.67	19.67	10.67	6.67	34.67	25.67	8.67	13.67	13.67	27.67	22.67	13.67	5.67	22.67	12.67	9.67
1301	82.894	27.33	55.67	91.67	97.67	76.67	45.67	54.67	67.67	75.67	63.67	51.67	47.67	52.67	34.67	50.67	32.67	34.67	30.67	43.67	19.67	27.67	45.67	17.67	34.67	29.67	29.67	27.67
1308	83.348	16.67	117.33	223.33	205.33	172.33	150.33	129.33	159.33	155.33	139.33	125.33	142.33	108.33	83.33	90.33	93.33	96.33	76.33	98.33	81.33	80.33	59.33	74.33	68.33	75.33	76.33	65.33
1315	83.802	25.67	184.33	268.33	291.33	246.33	207.33	176.33	170.33	163.33	160.33	154.33	134.33	108.33	102.33	95.33	120.33	118.33	119.33	92.33	80.33	97.33	78.33	89.33	95.33	95.33	101.33	68.33
1322	84.256	22.0	155.0	281.0	251.0	209.0	178.0	163.0	175.0	152.0	165.0	134.0	137.0	119.0	115.0	106.0	86.0	118.0	95.0	85.0	109.0	85.0	74.0	89.0	80.0	83.0	79.0	82.0
1329	84.71	27.0	86.0	170.0	147.0	138.0	96.0	94.0	97.0	99.0	96.0	88.0	64.0	74.0	75.0	72.0	66.0	69.0	68.0	62.0	52.0	72.0	47.0	54.0	58.0	29.0	51.0	46.0
1336	85.165	35.67	18.33	36.33	57.33	33.33	15.33	30.33	11.33	21.33	18.33	18.33	23.33	22.33	23.33	27.33	25.33	8.33	28.33	12.33	25.33	19.33	2.33	16.33	9.33	7.33	13.33	22.33
1343	85.619	33.33	13.67	24.67	3.67	16.67	-4.33	9.67	13.67	9.67	6.67	-6.33	5.67	2.67	8.67	6.67	8.67	0.67	8.67	5.67	4.67	2.67	3.67	3.67	14.67	10.67	15.67	9.67
1350	86.074	23.0	8.0	4.0	9.0	25.0	10.0	6.0	15.0	6.0	19.0	3.0	1.0	18.0	7.0	13.0	11.0	8.0	14.0	8.0	8.0	15.0	9.0	13.0	10.0	11.0	3.0	17.0
1357	86.529	24.33	1.67	10.67	9.67	6.67	13.67	12.67	-6.33	10.67	4.67	6.67	0.67	11.67	6.67	6.67	4.67	21.67	1.67	9.67	-1.33	9.67	8.67	-0.33	2.67	-2.33	6.67	11.67
1364	86.985	23.0	6.0	11.0	-3.0	18.0	11.0	7.0	11.0	1.0	7.0	2.0	5.0	11.0	13.0	-1.0	-6.0	23.0	4.0	16.0	7.0	8.0	11.0	10.0	10.0	16.0	-1.0	11.0
1371	87.44	26.0	3.0	14.0	12.0	16.0	2.0	11.0	8.0	11.0	-2.0	0.0	9.0	8.0	9.0	9.0	3.0	1.0	15.0	11.0	16.0	15.0	5.0	15.0	5.0	0.0	6.0	11.0
1378	87.896	34.0	-6.0	-3.0	0.0	0.0	-1.0	-1.0	6.0	5.0	-6.0	-10.0	7.0	-5.0	-6.0	-2.0	6.0	5.0	1.0	2.0	14.0	7.0	-2.0	-2.0	-8.0	12.0	-1.0	12.0
1385	88.352	22.0	12.0	14.0	4.0	15.0	16.0	13.0	7.0	3.0	20.0	14.0	0.0	4.0	16.0	6.0	7.0	13.0	11.0	5.0	21.0	9.0	14.0	6.0	11.0	11.0	9.0	8.0
1392	88.808	28.33	-6.33	-4.33	1.67	4.67	1.67	7.67	0.67	4.67	3.67	-1.33	-4.33	2.67	2.67	17.67	2.67	4.67	5.67	14.67	8.67	3.67	13.67	11.67	6.67	3.67	-5.33	-1.33
1399	89.264	26.0	1.0	3.0	3.0	7.0	10.0	-2.0	14.0	12.0	1.0	9.0	3.0	3.0	7.0	-2.0	4.0	7.0	2.0	1.0	11.0	10.0	12.0	11.0	5.0	9.0	6.0	17.0
1406	89.72	28.33	-8.33	13.67	-7.33	4.67	0.67	8.67	3.67	2.67	3.67	-7.33	7.67	4.67	-4.33	8.67	14.67	2.67	8.67	-2.33	4.67	22.67	2.67	-1.33	13.67	18.67	9.67	2.67
1413	90.177	22.67	-0.67	13.33	5.33	9.33	25.33	17.33	7.33	18.33	17.33	-2.67	4.33	13.33	10.33	19.33	14.33	8.33	12.33	15.33	16.33	12.33	13.33	5.33	5.33	15.33	7.33	7.33
1420	90.634	29.0	-1.0	0.0	7.0	17.0	7.0	0.0	7.0	6.0	5.0	10.0	7.0	16.0	14.0	4.0	13.0	-1.0	7.0	11.0	5.0	9.0	8.0	-2.0	5.0	-2.0	2.0	9.0
1427	91.091	28.0	8.0	7.0	5.0	14.0	3.0	15.0	-1.0	5.0	7.0	4.0	20.0	7.0	0.0	6.0	8.0	-1.0	7.0	8.0	15.0	4.0	11.0	13.0	12.0	10.0	8.0	-1.0
1434	91.549	25.67	1.33	1.33	2.33	11.33	10.33	19.33	6.33	16.33	0.33	16.33	17.33	14.33	11.33	1.33	9.33	14.33	10.33	-0.67	6.33	-0.67	13.33	10.33	12.33	2.33	14.33	2.33
1441	92.006	25.0	-2.0	12.0	7.0	-2.0	3.0	9.0	18.0	7.0	10.0	4.0	14.0	7.0	6.0	18.0	12.0	21.0	-7.0	9.0	11.0	8.0	21.0	7.0	13.0	16.0	11.0	8.0
1448	92.464	28.67	13.33	-5.67	2.33	11.33	8.33	7.33	9.33	14.33	3.33	7.33	13.33	7.33	14.33	0.33	7.33	13.33	7.33	12.33	8.33	7.33	3.33	5.33	4.33	4.33	4.33	6.33
1455	92.922	25.67	13.33	4.33	7.33	6.33	24.33	13.33	12.33	18.33	5.33	16.33	10.33	11.33	9.33	9.33	8.33	3.33	7.33	18.33	14.33	9.33	7.33	20.33	27.33	23.33	-0.67	5.33
1462	93.38	33.67	-3.67	-6.67	0.33	-0.67	2.33	-6.67	4.33	3.33	10.33	7.33	2.33	6.33	2.33	7.33	6.33	0.33	5.33	3.33	10.33	3.33	2.33	5.33	4.33	2.33	-5.67	-9.67
1469	93.839	28.67	-0.67	4.33	-4.67	5.33	4.33	16.33	7.33	5.33	5.33	0.33	8.33	13.33	5.33	11.33	4.33	18.33	16.33	5.33	13.33	-4.67	0.33	1.33	13.33	5.33	4.33	11.33
1476	94.297	28.0	11.0	17.0	0.0	10.0	6.0	5.0	2.0	19.0	6.0	4.0	12.0	5.0	14.0	1.0	23.0	7.0	18.0	12.0	12.0	3.0	5.0	11.0	7.0	13.0	19.0	1.0
1483	94.756	33.33	1.67	-1.33	-11.33	5.67	8.67	9.67	8.67	-3.33	5.67	4.67	-0.33	10.67	1.67	-1.33	-11.33	4.67	-2.33	0.67	0.67	-0.33	7.67	10.67	7.67	2.67	17.67	2.67
1490	95.215	31.33	-8.33	-1.33	11.67	2.67	4.67	2.67	-2.33	7.67	5.67	2.67	19.67	-8.33	11.67	6.67	16.67	3.67	-0.33	8.67	4.67	7.67	14.67	2.67	8.67	20.67	18.67	11.67
1497	95.675	36.0	-8.0	-1.0	18.0	16.0	4.0	0.0	-3.0	7.0	-3.0	1.0	4.0	18.0	-6.0	1.0	1.0	-1.0	-2.0	7.0	5.0	3.0	7.0	6.0	2.0	9.0	7.0	10.0
1504	96.134	30.33	-1.33	4.67	6.67	5.67	22.67	10.67	9.67	8.67	3.67	4.67	16.67	17.67	11.67	12.67	7.67	7.67	23.67	6.67	10.67	23.67	21.67	11.67	10.67	26.67	13.67	14.67
1511	96.594	35.33	2.67	-2.33	-3.33	10.67	6.67	15.67	15.67	15.67	9.67	3.67	7.67	12.67	13.67	19.67	3.67	21.67	13.67	27.67	15.67	9.67	18.67	14.67	12.67	21.67	14.67	23.67
1518	97.054	36.33	-7.33	-9.33	-5.33	-2.33	13.67	11.67	10.67	8.67	14.67	9.67	17.67	7.67	19.67	16.67	32.67	25.67	3.67	28.67	28.67	21.67	19.67	35.67	16.67	32.67	23.67	16.67
1525	97.514	29.0	12.0	9.0	11.0	15.0	14.0	21.0	30.0	13.0	25.0	27.0	35.0	13.0	25.0	26.0	26.0	26.0	23.0	16.0	34.0	30.0	19.0	36.0	28.0	20.0	34.0	28.0
1532	97.975	34.33	16.67	-6.33	8.67	-6.33	18.67	11.67	13.67	23.67	9.67	17.67	16.67	0.67	21.67	9.67	14.67	36.67	32.67	8.67	21.67	20.67	20.67	15.67	13.67	3.67	12.67	3.67
1539	98.436	37.0	-1.0	-6.0	-6.0	4.0	3.0	-4.0	9.0	2.0	2.0	3.0	-11.0	1.0	5.0	10.0	2.0	0.0	15.0	5.0	0.0	15.0	14.0	2.0	8.0	-4.0	4.0	1.0
1546	98.897	30.33	-6.33	1.67	0.67	7.67	7.67	7.67	10.67	5.67	7.67	10.67	10.67	9.67	0.67	21.67	13.67	9.67	11.67	14.67	8.67	6.67	12.67	7.67	6.67	12.67	4.67	11.67
1553	99.358	38.33	-9.33	-2.33	-7.33	0.67	-12.33	5.67	1.67	-0.33	3.67	-4.33	-5.33	3.67	8.67	-8.33	-12.33	6.67	-2.33	0.67	7.67	-0.33	9.67	-3.33	3.67	8.67	14.67	-2.33
1560	99.82	35.0	-2.0	8.0	-2.0	-1.0	3.0	-3.0	1.0	12.0	20.0	-1.0	1.0	4.0	-7.0	0.0	4.0	2.0	9.0	0.0	3.0	15.0	3.0	-2.0	18.0	0.0	5.0	-2.0
1567	100.281	39.33	2.67	0.67	3.67	8.67	11.67	-9.33	-9.33	-2.33	-0.33	-6.33	-0.33	-2.33	-5.33	0.67	-16.33	0.67	-9.33	10.67	1.67	-2.33	-1.33	-0.33	0.67	7.67	-1.33	-2.33
1574	100.743	33.67	8.33	-3.67	-2.67	-0.67	2.33	3.33	12.33	5.33	3.33	4.33	14.33	4.33	9.33	-0.67	-0.67	10.33	7.33	3.33	-2.67	11.33	5.33	16.33	4.33	18.33	2.33	-3.67
1581	101.206	37.67	-5.67	-0.67	1.33	2.33	1.33	-2.67	0.33	-4.67	2.33	-3.67	-7.67	4.33	-0.67	-10.67	2.33	7.33	1.33	0.33	-1.67	-3.67	11.33	0.33	7.33	4.33	-0.67	11.33
1588	101.668	30.0	10.0	6.0	10.0	2.0	14.0	25.0	7.0	2.0	9.0	1.0	10.0	16.0	3.0	10.0	9.0	4.0	7.0	5.0	1.0	6.0	2.0	3.0	9.0	14.0	10.0	4.0
1595	102.131	31.67	-0.67	9.33	3.33	12.33	12.33	16.33	16.33	21.33	4.33	9.33	13.33	11.33	25.33	8.33	5.33	2.33	15.33	17.33	4.33	10.33	11.33	7.33	15.33	7.33	20.33	12.33
1602	102.594	30.33	11.67	13.67	13.67	9.67	7.67	16.67	23.67	3.67	13.67	5.67	11.67	11.67	16.67	-2.33	13.67	11.67	14.67	16.67	6.67	6.67	4.67	1.67	-5.33	10.67	13.67	13.67
1609	103.057	30.33	7.67	10.67	15.67	4.67	17.67	15.67	15.67	14.67	2.67	8.67	13.67	10.67	9.67	13.67	8.67	7.67	8.67	11.67	8.67	3.67	11.67	6.67	14.67	14.67	10.67	15.67
1616	103.521	29.0	3.0	7.0	9.0	8.0	20.0	2.0	9.0	3.0	7.0	16.0	14.0	14.0	15.0	1.0	13.0	7.0	2.0	3.0	13.0	12.0	11.0	19.0	13.0	18.0	2.0	15.0
1623	103.985	28.0	6.0	3.0	7.0	13.0	8.0	9.0	2.0	7.0	10.0	2.0	4.0	7.0	0.0	21.0	-1.0	0.0	7.0	7.0	4.0	-2.0	5.0	21.0	3.0	4.0	1.0	9.0
1630	104.449	33.67	-3.67	-0.67	-0.67	0.33	9.33	-5.67	-1.67	2.33	-4.67	14.33	1.33	-4.67	2.33	-5.67	-0.67	-6.67	0.33	0.33	-1.67	-2.67	-2.67	-6.67	4.33	-2.67	-5.67	-6.67
1637	104.913	24.67	-7.67	9.33	7.33	0.33	7.33	10.33	11.33	16.33	11.33	9.33	3.33	-0.67	-0.67	13.33	2.33	10.33	12.33	5.33	11.33	10.33	14.33	3.33	4.33	18.33	5.33	14.33
1644	105.378	26.0	12.0	-4.0	7.0	18.0	9.0	13.0	9.0	7.0	6.0	6.0	19.0	1.0	7.0	13.0	-1.0	11.0	7.0	5.0	10.0	0.0	5.0	11.0	2.0	12.0	13.0	2.0
1651	105.843	32.0	-6.0	-1.0	-11.0	-5.0	-1.0	3.0	-1.0	-9.0	1.0	0.0	-1.0	3.0	12.0	-2.0	5.0	8.0	3.0	4.0	-4.0	2.0	-9.0	-8.0	-6.0	-7.0	-4.0	0.0
1658	106.308	31.0	-4.0	5.0	4.0	-8.0	0.0	-4.0	7.0	-5.0	-16.0	-1.0	-3.0	3.0	3.0	2.0	-2.0	0.0	0.0	-5.0	6.0	9.0	2.0	1.0	2.0	6.0	12.0	2.0
1665	106.773	28.33	-2.33	3.67	-1.33	2.67	-1.33	5.67	3.67	2.67	5.67	6.67	-0.33	6.67	-1.33	5.67	-2.33	1.67	-2.33	2.67	1.67	2.67	-2.33	5.67	3.67	-6.33	-0.33	-2.33
1672	107.239	25.67	3.33	1.33	4.33	4.33	-1.67	8.33	-6.67	7.33	13.33	11.33	7.33	9.33	-1.67	10.33	9.33	4.33	0.33	3.33	6.33	10.33	-5.67	14.33	-3.67	-1.67	10.33	2.33
1679	107.705	29.0	-2.0	-4.0	4.0	3.0	9.0	14.0	3.0	2.0	7.0	2.0	-3.0	8.0	-4.0	9.0	-1.0	-3.0	5.0	-1.0	-3.0	2.0	-2.0	4.0	6.0	4.0	8.0	2.0
1686	108.171	25.33	11.67	4.67	0.67	3.67	0.67	-0.33	-2.33	11.67	15.67	3.67	14.67	8.67	0.67	4.67	5.67	5.67	8.67	5.67	2.67	1.67	-0.33	1.67	10.67	0.67	4.67	-1.33
1693	108.638	29.33	-2.33	1.67	7.67	-0.33	0.67	-1.33	-4.33	2.67	3.67	-0.33	1.67	-0.33	-7.33	-2.33	-11.33	-5.33	-3.33	-4.33	2.67	-2.33	-7.33	-0.33	0.67	-5.33	-0.33	3.67
1700	109.105	24.0	-1.0	7.0	6.0	5.0	-1.0	8.0	6.0	-9.0	9.0	4.0	1.0	4.0	1.0	-2.0	10.0	-1.0	-5.0	8.0	6.0	7.0	2.0	-2.0	13.0	5.0	-3.0	-1.0
1707	109.572	27.67	-1.67	3.33	-8.67	2.33	-4.67	6.33	1.33	4.33	-3.67	7.33	-4.67	7.33	5.33	-6.67	-1.67	-0.67	-6.67	-1.67	3.33	-1.67	-2.67	-10.67	0.33	-0.67	-5.67	-4.67
1714	110.039	19.67	16.33	7.33	6.33	7.33	14.33	5.33	11.33	14.33	5.33	4.33	5.33	5.33	3.33	5.33	9.33	3.33	4.33	10.33	2.33	2.33	17.33	15.33	8.33	8.33	8.33	4.33
1721	110.507	26.0	0.0	-1.0	0.0	-1.0	-2.0	-4.0	5.0	-3.0	9.0	1.0	4.0	2.0	-10.0	-2.0	3.0	-2.0	0.0	0.0	-6.0	-9.0	3.0	2.0	5.0	-4.0	1.0	-11.0
1728	110.975	21.0	4.0	-4.0	18.0	3.0	4.0	15.0	6.0	2.0	12.0	7.0	13.0	2.0	11.0	10.0	-8.0	0.0	5.0	2.0	5.0	3.0	1.0	11.0	14.0	8.0	10.0	18.0
1735	111.443	23.67	3.33	4.33	7.33	-1.67	5.33	8.33	6.33	13.33	-1.67	9.33	-9.67	-1.67	7.33	-5.67	5.33	1.33	0.33	0.33	1.33	6.33	10.33	1.33	10.33	-3.67	8.33	3.33
1742	111.912	24.33	0.67	5.67	5.67	4.67	5.67	7.67	7.67	-0.33	14.67	11.67	4.67	2.67	1.67	-5.33	8.67	3.67	-3.33	6.67	13.67	1.67	6.67	4.67	4.67	3.67	3.67	1.67
1749	112.38	18.0	2.0	19.0	10.0	15.0	7.0	10.0	8.0	20.0	18.0	19.0	10.0	13.0	12.0	15.0	8.0	1.0	13.0	13.0	14.0	5.0	3.0	17.0	8.0	10.0	6.0	5.0
1756	112.85	26.67	-5.67	13.33	-0.67	4.33	-1.67	2.33	15.33	-2.67	2.33	7.33	-3.67	7.33	2.33	-5.67	-2.67	1.33	0.33	-3.67	3.33	-5.67	-8.67	0.33	2.33	-1.67	-3.67	3.33
1763	113.319	24.67	6.33	4.33	4.33	5.33	1.33	2.33	-0.67	-6.67	12.33	7.33	-2.67	-1.67	-1.67	-1.67	2.33	-5.67	-0.67	0.33	0.33	6.33	2.33	-1.67	2.33	10.33	2.33	-5.67
1770	113.789	22.67	3.33	1.33	-3.67	-4.67	1.33	1.33	0.33	2.33	2.33	-3.67	12.33	5.33	-0.67	11.33	-1.67	9.33	5.33	-0.67	3.33	-4.67	-6.67	-0.67	-7.67	-1.67	2.33	-2.67
1777	114.259	17.33	8.67	-5.33	8.67	14.67	3.67	2.67	4.67	8.67	3.67	-1.33	-2.33	5.67	3.67	10.67	-0.33	3.67	5.67	-1.33	5.67	-1.33	2.67	3.67	5.67	1.67	2.67	-4.33
1784	114.729	18.67	1.33	3.33	-0.67	-4.67	5.33	1.33	2.33	-1.67	3.33	2.33	-1.67	6.33	5.33	0.33	0.33	-0.67	6.33	6.33	-2.67	5.33	-2.67	5.33	16.33	2.33	-1.67	6.33
1791	115.2	20.0	-3.0	-5.0	-11.0	11.0	3.0	8.0	-2.0	-2.0	-1.0	-6.0	4.0	-4.0	-2.0	0.0	3.0	0.0	-1.0	-1.0	-4.0	2.0	-5.0	1.0	4.0	-8.0	2.0	5.0
1798	115.671	18.33	2.67	-5.33	-4.33	-5.33	1.67	4.67	1.67	0.67	-1.33	1.67	-0.33	6.67	1.67	6.67	3.67	6.67	1.67	-1.33	-7.33	5.67	9.67	-1.33	0.67	-0.33	7.67	1.67
1805	116.142	18.33	-0.33	10.67	-6.33	-1.33	1.67	0.67	-2.33	0.67	3.67	-1.33	-6.33	-2.33	7.67	2.67	-0.33	7.67	-1.33	-6.33	-0.33	6.67	3.67	-0.33	0.67	-3.33	8.67	6.67
1812	116.614	15.33	1.67	4.67	8.67	1.67	-2.33	2.67	2.67	-4.33	0.67	1.67	1.67	7.67	9.67	8.67	0.67	3.67	8.67	6.67	11.67	-2.33	6.67	1.67	-0.33	5.67	-2.33	1.67
1819	117.086	18.67	0.33	-2.67	-0.67	2.33	-4.67	-1.67	-3.67	-4.67	-7.67	3.33	2.33	-4.67	-2.67	-5.67	-2.67	-1.67	-0.67	-1.67	1.33	3.33	-3.67	5.33	3.33	-0.67	-0.67	0.33
1826	117.558	14.33	-5.33	8.67	4.67	2.67	1.67	1.67	4.67	-1.33	6.67	5.67	3.67	-1.33	11.67	-1.33	2.67	6.67	6.67	3.67	8.67	12.67	-0.33	3.67	1.67	-1.33	-4.33	0.67
1833	118.03	12.67	-2.67	0.33	2.33	2.33	-1.67	1.33	1.33	3.33	3.33	10.33	1.33	1.33	8.33	11.33	6.33	3.33	5.33	8.33	2.33	7.33	10.33	3.33	3.33	3.33	9.33	-1.67
1840	118.503	15.67	-3.67	1.33	1.33	0.33	1.33	-3.67	0.33	-6.67	2.33	0.33	1.33	-5.67	2.33	2.33	2.33	-4.67	6.33	2.33	-0.67	3.33	2.33	1.33	0.33	4.33	0.33	5.33
1847	118.976	14.0	-1.0	3.0	4.0	4.0	0.0	-2.0	4.0	3.0	3.0	10.0	4.0	0.0	-2.0	0.0	5.0	3.0	2.0	4.0	-2.0	7.0	7.0	-5.0	-5.0	10.0	-1.0	3.0
1854	119.45	11.33	2.67	-0.33	2.67	4.67	10.67	5.67	6.67	3.67	8.67	5.67	14.67	5.67	0.67	8.67	5.67	9.67	4.67	2.67	-2.33	10.67	3.67	5.67	6.67	7.67	10.67	7.67
1861	119.924	15.0	-3.0	-1.0	6.0	4.0	2.0	6.0	-7.0	9.0	-7.0	2.0	3.0	2.0	12.0	4.0	5.0	-6.0	-2.0	-2.0	4.0	4.0	7.0	0.0	1.0	-1.0	0.0	-1.0
1868	120.398	16.0	2.0	2.0	6.0	3.0	-3.0	-8.0	-5.0	-8.0	-4.0	-3.0	-2.0	0.0	-4.0	1.0	-4.0	2.0	0.0	4.0	-5.0	1.0	-3.0	7.0	2.0	2.0	-3.0	4.0
1875	120.872	13.33	-0.33	6.67	1.67	-1.33	-1.33	3.67	5.67	2.67	-2.33	6.67	3.67	2.67	1.67	3.67	1.67	3.67	-5.33	5.67	4.67	5.67	4.67	3.67	-0.33	4.67	4.67	2.67
1882	121.347	12.33	9.67	11.67	7.67	0.67	1.67	10.67	3.67	-2.33	-0.33	4.67	2.67	4.67	9.67	7.67	5.67	-3.33	-1.33	4.67	-3.33	3.67	9.67	4.67	3.67	2.67	0.67	8.67
1889	121.822	14.67	-5.67	4.33	-1.67	8.33	-2.67	5.33	-1.67	3.33	4.33	3.33	-2.67	5.33	3.33	1.33	2.33	-5.67	-1.67	-4.67	4.33	7.33	-0.67	10.33	5.33	-1.67	-1.67	-6.67
1896	122.298	17.33	-0.33	-2.33	5.67	-6.33	-0.33	-2.33	7.67	-1.33	-0.33	-2.33	-2.33	-3.33	3.67	-0.33	3.67	-6.33	-0.33	-1.33	-6.33	4.67	3.67	-0.33	-7.33	0.67	6.67	-0.33
1903	122.773	14.33	-0.33	-1.33	-2.33	-1.33	2.67	2.67	9.67	2.67	1.67	-0.33	-2.33	0.67	3.67	-4.33	0.67	6.67	2.67	-2.33	2.67	3.67	-1.33	4.67	-2.33	8.67	3.67	-2.33
1910	123.25	10.67	4.33	2.33	8.33	3.33	3.33	7.33	7.33	-0.67	4.33	7.33	2.33	4.33	7.33	2.33	6.33	4.33	7.33	5.33	0.33	1.33	12.33	0.33	0.33	0.33	-1.67	10.33
1917	123.726	12.0	9.0	4.0	12.0	8.0	11.0	4.0	5.0	7.0	2.0	-3.0	-6.0	5.0	7.0	7.0	11.0	5.0	3.0	5.0	6.0	5.0	-1.0	3.0	9.0	2.0	4.0	-3.0
1924	124.203	12.0	4.0	4.0	1.0	-1.0	1.0	1.0	3.0	5.0	6.0	-2.0	1.0	13.0	-2.0	9.0	-3.0	-5.0	8.0	0.0	3.0	1.0	-3.0	-1.0	9.0	-2.0	-1.0	5.0
1931	124.68	11.0	-2.0	-1.0	0.0	5.0	7.0	-2.0	2.0	2.0	2.0	3.0	-2.0	2.0	1.0	7.0	0.0	0.0	1.0	8.0	2.0	-2.0	4.0	2.0	-3.0	6.0	4.0	1.0
1938	125.158	9.33	6.67	1.67	2.67	1.67	8.67	-0.33	0.67	-0.33	7.67	-0.33	5.67	9.67	5.67	-0.33	-2.33	6.67	-1.33	-0.33	-1.33	3.67	0.67	5.67	10.67	5.67	11.67	0.67
1945	125.635	10.0	1.0	3.0	-3.0	7.0	-4.0	1.0	0.0	-1.0	-1.0	5.0	1.0	3.0	2.0	3.0	4.0	7.0	0.0	3.0	1.0	1.0	5.0	0.0	2.0	6.0	1.0	4.0
1952	126.114	13.0	-4.0	-6.0	-9.0	-3.0	-2.0	-5.0	2.0	4.0	-3.0	0.0	-4.0	3.0	-2.0	-1.0	-1.0	4.0	2.0	-2.0	-4.0	-3.0	-1.0	3.0	0.0	-3.0	0.0	0.0
1959	126.592	10.33	-3.33	-3.33	-3.33	0.67	-1.33	2.67	3.67	0.67	-1.33	-0.33	-5.33	-0.33	-0.33	0.67	1.67	0.67	-1.33	1.67	1.67	-0.33	0.67	2.67	-0.33	6.67	6.67	1.67
1966	127.071	8.33	-3.33	3.67	-0.33	-3.33	2.67	1.67	5.67	6.67	-1.33	-1.33	3.67	-1.33	2.67	0.67	5.67	8.67	11.67	6.67	-2.33	-1.33	7.67	1.67	7.67	-3.33	4.67	3.67
1973	127.55	9.0	6.0	4.0	-3.0	6.0	0.0	-2.0	9.0	2.0	-1.0	-1.0	4.0	0.0	0.0	2.0	8.0	3.0	4.0	-1.0	1.0	-4.0	7.0	1.0	4.0	5.0	7.0	4.0
1980	128.03	10.33	-2.33	-0.33	2.67	0.67	-2.33	-3.33	2.67	0.67	-1.33	0.67	4.67	1.67	4.67	2.67	-4.33	-4.33	5.67	-1.33	1.67	3.67	-1.33	3.67	-1.33	2.67	-0.33	8.67
1987	128.51	10.33	11.67	2.67	0.67	1.67	4.67	2.67	-0.33	-0.33	0.67	-0.33	-8.33	3.67	-0.33	-2.33	-0.33	6.67	-0.33	3.67	0.67	2.67	5.67	6.67	4.67	1.67	2.67	4.67
1994	128.99	7.67	-0.67	6.33	5.33	0.33	1.33	5.33	-1.67	7.33	-0.67	3.33	6.33	2.33	4.33	6.33	4.33	6.33	3.33	2.33	3.33	5.33	1.33	4.33	-0.67	2.33	1.33	6.33
2001	129.471	9.33	1.67	2.67	-2.33	-0.33	0.67	2.67	2.67	2.67	0.67	-0.33	6.67	1.67	1.67	-0.33	-1.33	-3.33	-1.33	1.67	0.67	0.67	-1.33	2.67	4.67	-1.33	1.67	-0.33
2008	129.952	9.33	0.67	3.67	-0.33	-3.33	0.67	1.67	-0.33	-0.33	-0.33	-1.33	-0.33	-5.33	-2.33	2.67	4.67	4.67	-1.33	6.67	0.67	3.67	-5.33	-1.33	0.67	1.67	-0.33	7.67
2015	130.433	10.67	-1.67	1.33	-0.67	1.33	1.33	-7.67	2.33	2.33	1.33	2.33	-0.67	1.33	5.33	-6.67	0.33	2.33	0.33	4.33	-4.67	-3.67	-1.67	-2.67	-4.67	5.33	0.33	3.33
2022	130.915	8.0	0.0	5.0	1.0	-6.0	3.0	-2.0	1.0	2.0	4.0	1.0	4.0	-1.0	0.0	2.0	5.0	5.0	0.0	9.0	-1.0	-1.0	-1.0	4.0	3.0	2.0	1.0	3.0
2029	131.397	5.33	-0.33	8.67	1.67	5.67	-1.33	1.67	3.67	4.67	6.67	4.67	-0.33	7.67	0.67	6.67	-1.33	4.67	4.67	3.67	5.67	2.67	4.67	6.67	2.67	10.67	5.67	6.67
2036	131.879	5.33	5.67	3.67	6.67	2.67	8.67	8.67	11.67	5.67	4.67	5.67	3.67	2.67	10.67	5.67	1.67	5.67	3.67	6.67	6.67	-1.33	7.67	1.67	2.67	3.67	3.67	1.67
2043	132.362	8.67	3.33	-4.67	-0.67	-2.67	-5.67	5.33	1.33	2.33	-1.67	-3.67	-3.67	-3.67	-1.67	-2.67	5.33	2.33	-0.67	4.33	2.33	8.33	-0.67	1.33	3.33	-1.67	1.33	-3.67
2047	132.638	7.33	5.67	1.67	0.67	-2.33	-2.33	1.67	1.67	1.67	2.67	-1.33	5.67	2.67	-0.33	0.67	0.67	-1.33	2.67	2.67	2.67	3.67	5.67	2.67	3.67	2.67	3.67	8.67