File: EDX Back Ups and Old Files/EDX Processed Data/High pH BL 60C 6d.txt
Name: High pH BL 60C 6d
Number of Scans: 29
Positions: [-13.0, -12.75, -12.5, -12.25, -12.0, -11.75, -11.5, -11.25, -11.0, -10.75, -10.5, -10.25, -10.0, -9.75, -9.5, -9.25, -9.0, -8.75, -8.5, -8.25, -8.0, -7.75, -7.5, -7.25, -7.0, -6.75, -6.5, -6.25, -6.0]
Points per Scan: 2048
Sample Edge: 3
Scans Off Sample: [0, 1, 2]
Conversion Features: [(275, 17444.3), (309, 19608.3), (913, 57981.7), (934, 59318.24), (1058, 67244.3)]
Degree of Fit: 3
Fit Coeffecients: [ 8.59183e-07 -0.001482  64.3003 -144.207]
pH: High
Steel Fiber: False
Aging Temp.: 60
Aging Atm.: 100% CO2
Aging Humidity: None
Aging Time: 6

*********
#Bins	Energy [keV]	Avg. Background	-12.25	-12.0	-11.75	-11.5	-11.25	-11.0	-10.75	-10.5	-10.25	-10.0	-9.75	-9.5	-9.25	-9.0	-8.75	-8.5	-8.25	-8.0	-7.75	-7.5	-7.25	-7.0	-6.75	-6.5	-6.25	-6.0
6	0.242	1813.67	-26.67	115.33	49.33	-3.67	85.33	54.33	35.33	44.33	23.33	53.33	46.33	-14.67	9.33	47.33	28.33	-5.67	-8.67	41.33	66.33	63.33	-20.67	-1.67	27.33	46.33	26.33	-64.67
13	0.691	1222.67	32.33	40.33	60.33	2.33	18.33	45.33	89.33	33.33	0.33	-8.67	30.33	-4.67	-23.67	35.33	-0.67	50.33	18.33	-7.67	32.33	-1.67	-24.67	38.33	84.33	-11.67	20.33	-63.67
20	1.141	315.67	-17.67	24.33	-1.67	-27.67	-40.67	-4.67	-41.67	-29.67	-6.67	1.33	-20.67	3.33	-0.67	27.33	15.33	-48.67	12.33	-14.67	10.33	11.33	-10.67	-20.67	3.33	-5.67	-14.67	4.33
27	1.591	52.0	-3.0	-7.0	-4.0	-7.0	5.0	-7.0	5.0	6.0	-18.0	4.0	-6.0	-8.0	7.0	4.0	-1.0	10.0	4.0	4.0	-5.0	6.0	-8.0	-3.0	-24.0	-8.0	-2.0	2.0
34	2.04	6.67	-3.67	-1.67	2.33	1.33	-0.67	3.33	2.33	0.33	0.33	-0.67	-3.67	-0.67	-0.67	3.33	-0.67	1.33	1.33	-0.67	-4.67	-0.67	-0.67	-2.67	3.33	2.33	1.33	-0.67
41	2.49	1.0	0.0	-1.0	-1.0	0.0	-1.0	0.0	-1.0	1.0	-1.0	0.0	-1.0	1.0	-1.0	-1.0	0.0	-1.0	0.0	-1.0	1.0	0.0	-1.0	0.0	2.0	2.0	-1.0	0.0
48	2.939	1.33	-1.33	-0.33	-0.33	-0.33	-1.33	-1.33	-0.33	0.67	-0.33	-1.33	0.67	-0.33	-1.33	-1.33	-0.33	-1.33	-1.33	-0.33	-1.33	-1.33	-1.33	-1.33	-0.33	0.67	-1.33	-1.33
55	3.388	0.0	0.0	0.0	2.0	1.0	0.0	1.0	0.0	0.0	1.0	1.0	0.0	0.0	1.0	1.0	1.0	0.0	1.0	1.0	1.0	0.0	2.0	0.0	0.0	0.0	1.0	0.0
62	3.837	0.0	1.0	0.0	0.0	0.0	1.0	1.0	1.0	1.0	1.0	0.0	0.0	1.0	0.0	1.0	1.0	0.0	0.0	0.0	0.0	0.0	0.0	1.0	0.0	0.0	0.0	0.0
69	4.286	0.33	-0.33	-0.33	0.67	-0.33	-0.33	-0.33	0.67	0.67	-0.33	-0.33	1.67	-0.33	0.67	0.67	-0.33	0.67	-0.33	0.67	-0.33	-0.33	-0.33	-0.33	0.67	-0.33	-0.33	-0.33
76	4.734	0.33	-0.33	0.67	-0.33	-0.33	-0.33	-0.33	-0.33	-0.33	-0.33	-0.33	-0.33	0.67	0.67	0.67	-0.33	0.67	-0.33	-0.33	-0.33	0.67	1.67	-0.33	-0.33	-0.33	0.67	-0.33
83	5.183	0.33	-0.33	0.67	0.67	-0.33	1.67	0.67	-0.33	-0.33	-0.33	0.67	-0.33	-0.33	-0.33	-0.33	0.67	-0.33	-0.33	-0.33	-0.33	0.67	0.67	-0.33	0.67	-0.33	-0.33	-0.33
90	5.631	0.33	-0.33	0.67	-0.33	0.67	-0.33	-0.33	-0.33	-0.33	1.67	1.67	0.67	-0.33	0.67	0.67	0.67	-0.33	-0.33	1.67	-0.33	-0.33	-0.33	0.67	0.67	0.67	-0.33	-0.33
97	6.08	0.0	0.0	1.0	0.0	1.0	2.0	0.0	1.0	2.0	2.0	0.0	0.0	1.0	1.0	0.0	1.0	1.0	1.0	1.0	0.0	2.0	2.0	1.0	0.0	0.0	1.0	3.0
104	6.528	0.67	0.33	1.33	2.33	1.33	0.33	0.33	0.33	-0.67	-0.67	-0.67	3.33	0.33	-0.67	3.33	0.33	1.33	1.33	1.33	1.33	1.33	2.33	1.33	-0.67	0.33	2.33	0.33
111	6.976	2.67	1.33	-0.67	1.33	1.33	2.33	-0.67	2.33	-1.67	2.33	-1.67	-2.67	-0.67	-0.67	-0.67	-2.67	1.33	-0.67	-0.67	2.33	-0.67	2.33	0.33	-0.67	-1.67	-0.67	-1.67
118	7.424	3.0	1.0	-1.0	0.0	1.0	2.0	0.0	1.0	-2.0	2.0	2.0	3.0	0.0	-1.0	0.0	2.0	0.0	0.0	2.0	2.0	2.0	0.0	3.0	3.0	3.0	3.0	-1.0
125	7.872	4.0	-4.0	-1.0	1.0	-1.0	5.0	0.0	1.0	5.0	-2.0	-2.0	-2.0	2.0	0.0	6.0	1.0	2.0	7.0	6.0	-2.0	0.0	1.0	2.0	1.0	1.0	3.0	3.0
132	8.32	4.67	3.33	3.33	1.33	-0.67	1.33	5.33	3.33	1.33	-0.67	4.33	5.33	4.33	2.33	4.33	3.33	1.33	-0.67	0.33	-1.67	2.33	1.33	5.33	2.33	4.33	1.33	7.33
139	8.767	9.33	-1.33	-0.33	0.67	4.67	0.67	-0.33	3.67	1.67	1.67	0.67	-3.33	-4.33	0.67	-1.33	-0.33	2.67	-2.33	0.67	-0.33	-2.33	-3.33	-0.33	0.67	1.67	1.67	0.67
146	9.215	5.67	-0.67	1.33	3.33	3.33	0.33	5.33	-1.67	6.33	1.33	0.33	4.33	4.33	5.33	0.33	6.33	1.33	5.33	3.33	6.33	5.33	5.33	6.33	1.33	7.33	4.33	7.33
153	9.662	9.67	-0.67	4.33	-1.67	-0.67	4.33	-5.67	0.33	-0.67	-3.67	0.33	4.33	0.33	4.33	-1.67	8.33	-0.67	7.33	-3.67	-1.67	-6.67	-2.67	4.33	2.33	0.33	-1.67	10.33
160	10.109	12.0	-5.0	-3.0	-6.0	0.0	1.0	-1.0	0.0	-2.0	-4.0	-1.0	0.0	-5.0	-5.0	-3.0	2.0	-6.0	-2.0	-3.0	-2.0	1.0	-3.0	0.0	0.0	-4.0	-4.0	6.0
167	10.557	5.33	1.67	3.67	8.67	7.67	10.67	4.67	4.67	7.67	2.67	5.67	11.67	9.67	11.67	7.67	6.67	0.67	6.67	2.67	0.67	13.67	-0.33	8.67	7.67	6.67	4.67	2.67
174	11.004	10.33	2.67	-0.33	-0.33	5.67	1.67	-0.33	-4.33	5.67	-3.33	4.67	8.67	7.67	1.67	5.67	4.67	-1.33	1.67	-0.33	4.67	1.67	6.67	8.67	-3.33	-0.33	-2.33	1.67
181	11.451	12.33	-0.33	-4.33	0.67	0.67	-4.33	-0.33	-6.33	-3.33	4.67	-2.33	-0.33	0.67	2.67	0.67	-1.33	4.67	-1.33	4.67	-1.33	7.67	-3.33	-4.33	-0.33	-2.33	3.67	7.67
188	11.898	6.33	0.67	1.67	10.67	3.67	11.67	2.67	6.67	9.67	2.67	3.67	0.67	2.67	1.67	2.67	4.67	4.67	8.67	6.67	11.67	2.67	5.67	12.67	9.67	4.67	6.67	6.67
195	12.344	10.33	-2.33	4.67	-3.33	-0.33	3.67	2.67	0.67	1.67	1.67	4.67	-1.33	-4.33	-2.33	4.67	6.67	0.67	-1.33	1.67	-1.33	-0.33	-0.33	1.67	6.67	4.67	4.67	0.67
202	12.791	11.33	7.67	2.67	3.67	1.67	0.67	2.67	4.67	-6.33	0.67	-1.33	-1.33	-1.33	-1.33	-1.33	-1.33	-3.33	-0.33	-3.33	0.67	10.67	2.67	-1.33	-1.33	2.67	1.67	-0.33
209	13.238	7.33	2.67	8.67	2.67	6.67	4.67	4.67	0.67	0.67	6.67	10.67	4.67	4.67	5.67	0.67	6.67	2.67	7.67	5.67	7.67	1.67	1.67	7.67	3.67	8.67	9.67	-0.33
216	13.684	8.67	5.33	-0.67	-0.67	1.33	1.33	4.33	5.33	7.33	3.33	2.33	-0.67	2.33	5.33	3.33	1.33	2.33	-0.67	3.33	8.33	6.33	0.33	-0.67	5.33	5.33	3.33	2.33
223	14.131	9.33	3.67	8.67	4.67	4.67	-1.33	-1.33	0.67	6.67	1.67	-0.33	1.67	0.67	2.67	6.67	1.67	5.67	0.67	0.67	-0.33	13.67	3.67	5.67	1.67	3.67	2.67	6.67
230	14.577	10.67	-2.67	-0.67	4.33	1.33	3.33	2.33	3.33	-1.67	7.33	-0.67	-0.67	0.33	2.33	8.33	-0.67	0.33	0.33	1.33	4.33	-2.67	-0.67	8.33	2.33	-1.67	4.33	8.33
237	15.023	9.67	6.33	-0.67	2.33	2.33	0.33	2.33	0.33	-3.67	3.33	0.33	6.33	-0.67	2.33	-0.67	4.33	0.33	-0.67	2.33	-3.67	0.33	5.33	8.33	2.33	1.33	2.33	0.33
244	15.469	8.67	0.33	3.33	4.33	3.33	3.33	1.33	0.33	5.33	3.33	5.33	1.33	2.33	12.33	2.33	1.33	1.33	2.33	0.33	-0.67	6.33	1.33	3.33	3.33	1.33	2.33	8.33
251	15.915	9.33	0.67	3.67	-0.33	-1.33	3.67	3.67	6.67	2.67	0.67	5.67	7.67	-0.33	3.67	-0.33	5.67	-4.33	4.67	1.67	-0.33	8.67	5.67	1.67	-3.33	2.67	4.67	3.67
258	16.361	10.33	-0.33	-3.33	3.67	1.67	4.67	2.67	0.67	3.67	2.67	0.67	7.67	1.67	6.67	-0.33	-2.33	-5.33	3.67	-5.33	-1.33	1.67	2.67	-3.33	-0.33	-1.33	6.67	-2.33
265	16.807	11.33	0.67	-2.33	-0.33	-0.33	-5.33	-2.33	-0.33	-2.33	1.67	9.67	-1.33	-2.33	2.67	-1.33	-1.33	2.67	-0.33	4.67	-3.33	2.67	-3.33	-2.33	-2.33	-1.33	-2.33	-1.33
272	17.253	9.0	7.0	5.0	2.0	-4.0	6.0	2.0	-3.0	1.0	0.0	16.0	3.0	1.0	1.0	5.0	-1.0	8.0	3.0	12.0	1.0	7.0	6.0	11.0	-1.0	9.0	1.0	-4.0
279	17.699	10.33	-2.33	0.67	1.67	-2.33	-1.33	-1.33	4.67	0.67	3.67	2.67	7.67	0.67	2.67	-0.33	9.67	7.67	2.67	3.67	-4.33	-1.33	4.67	-0.33	0.67	4.67	6.67	0.67
286	18.145	8.0	1.0	3.0	13.0	2.0	3.0	4.0	1.0	9.0	3.0	1.0	2.0	10.0	12.0	2.0	5.0	4.0	3.0	2.0	8.0	4.0	3.0	4.0	4.0	9.0	7.0	7.0
293	18.59	11.33	2.67	-1.33	3.67	2.67	-1.33	-1.33	0.67	-0.33	7.67	-0.33	-2.33	5.67	6.67	-0.33	-0.33	3.67	-4.33	1.67	0.67	1.67	-0.33	-3.33	-5.33	1.67	4.67	-2.33
300	19.036	9.67	1.33	0.33	5.33	1.33	-3.67	5.33	-3.67	5.33	4.33	-2.67	1.33	9.33	3.33	1.33	2.33	3.33	8.33	3.33	-0.67	0.33	9.33	3.33	0.33	5.33	-1.67	3.33
307	19.481	8.33	3.67	3.67	0.67	0.67	3.67	5.67	0.67	-0.33	-0.33	1.67	3.67	1.67	4.67	8.67	1.67	0.67	5.67	-3.33	2.67	-0.33	0.67	7.67	8.67	-1.33	2.67	0.67
314	19.927	7.0	8.0	6.0	4.0	8.0	-1.0	5.0	3.0	3.0	-2.0	0.0	2.0	3.0	8.0	3.0	-1.0	8.0	5.0	3.0	6.0	4.0	4.0	7.0	4.0	1.0	4.0	6.0
321	20.372	8.67	1.33	4.33	-1.67	0.33	3.33	-0.67	0.33	1.33	2.33	2.33	1.33	2.33	-0.67	-0.67	4.33	3.33	1.33	3.33	-0.67	1.33	-2.67	0.33	6.33	1.33	11.33	-3.67
328	20.817	11.0	-1.0	-5.0	-1.0	-2.0	-4.0	1.0	2.0	1.0	1.0	-2.0	-3.0	3.0	1.0	-2.0	-4.0	3.0	-2.0	1.0	1.0	1.0	-2.0	6.0	1.0	4.0	-4.0	8.0
335	21.262	7.0	2.0	6.0	3.0	4.0	5.0	1.0	9.0	5.0	3.0	3.0	1.0	9.0	4.0	7.0	4.0	2.0	7.0	4.0	9.0	10.0	-2.0	11.0	5.0	9.0	6.0	3.0
342	21.708	10.67	3.33	0.33	-2.67	2.33	-0.67	5.33	5.33	-4.67	4.33	2.33	1.33	-0.67	5.33	3.33	3.33	-2.67	-5.67	-1.67	0.33	3.33	1.33	2.33	3.33	3.33	-2.67	4.33
349	22.153	9.0	0.0	-2.0	-2.0	-1.0	1.0	1.0	1.0	3.0	2.0	1.0	5.0	-4.0	5.0	0.0	2.0	2.0	4.0	0.0	7.0	4.0	-1.0	-3.0	10.0	-1.0	3.0	4.0
356	22.598	10.67	-0.67	5.33	1.33	-2.67	-5.67	-0.67	-1.67	0.33	0.33	-0.67	3.33	2.33	-0.67	2.33	-1.67	1.33	-5.67	-0.67	1.33	5.33	3.33	-1.67	3.33	0.33	-0.67	2.33
363	23.043	7.33	4.67	-1.33	4.67	9.67	-4.33	4.67	-0.33	-0.33	4.67	-1.33	3.67	4.67	4.67	-3.33	0.67	-0.33	-0.33	4.67	7.67	2.67	7.67	1.67	4.67	0.67	4.67	3.67
370	23.488	10.0	-3.0	1.0	-1.0	0.0	6.0	-7.0	-1.0	-4.0	-4.0	-1.0	-3.0	-5.0	6.0	2.0	4.0	-3.0	-4.0	0.0	4.0	8.0	-3.0	1.0	-3.0	0.0	-4.0	-1.0
377	23.932	6.33	3.67	6.67	3.67	-0.33	3.67	4.67	2.67	3.67	6.67	2.67	1.67	2.67	0.67	3.67	1.67	0.67	5.67	-1.33	5.67	4.67	-1.33	-0.33	0.67	4.67	9.67	6.67
384	24.377	8.67	0.33	5.33	6.33	-1.67	-5.67	0.33	-2.67	5.33	-1.67	8.33	-0.67	0.33	-3.67	7.33	5.33	-5.67	-1.67	-0.67	5.33	4.33	-1.67	-1.67	2.33	0.33	6.33	6.33
391	24.822	3.0	8.0	8.0	2.0	8.0	6.0	11.0	6.0	5.0	6.0	8.0	5.0	3.0	7.0	11.0	12.0	2.0	7.0	6.0	9.0	7.0	7.0	8.0	5.0	14.0	8.0	7.0
398	25.267	13.33	-4.33	-5.33	-7.33	-3.33	-0.33	-3.33	-6.33	-1.33	-9.33	-1.33	-0.33	-1.33	-5.33	-7.33	-3.33	-8.33	-6.33	-6.33	-6.33	-5.33	-3.33	-5.33	-2.33	-3.33	-5.33	-8.33
405	25.711	7.67	2.33	4.33	-1.67	2.33	3.33	2.33	-0.67	-5.67	3.33	-2.67	0.33	-3.67	5.33	0.33	-0.67	0.33	1.33	-4.67	-0.67	0.33	-0.67	1.33	-0.67	-3.67	0.33	2.33
412	26.156	8.33	4.67	1.67	-0.33	4.67	-3.33	2.67	-1.33	-4.33	-1.33	5.67	-5.33	7.67	1.67	-1.33	1.67	-0.33	2.67	-2.33	5.67	3.67	-3.33	-0.33	4.67	-4.33	2.67	-1.33
419	26.601	9.0	-3.0	2.0	-3.0	-3.0	0.0	4.0	-2.0	-3.0	-7.0	1.0	0.0	3.0	0.0	2.0	-5.0	-1.0	0.0	1.0	2.0	4.0	-4.0	-1.0	1.0	4.0	1.0	-6.0
426	27.045	7.33	1.67	0.67	-3.33	2.67	2.67	-1.33	-0.33	4.67	-0.33	-4.33	2.67	3.67	3.67	-2.33	4.67	-1.33	1.67	1.67	3.67	-2.33	2.67	-1.33	1.67	1.67	4.67	-0.33
433	27.49	9.0	-1.0	-4.0	0.0	-2.0	3.0	-5.0	-1.0	-2.0	2.0	-3.0	-3.0	0.0	-4.0	-2.0	0.0	-3.0	2.0	-3.0	0.0	0.0	-4.0	-1.0	-3.0	-1.0	4.0	1.0
440	27.934	7.0	3.0	1.0	-1.0	1.0	5.0	0.0	3.0	0.0	1.0	1.0	0.0	0.0	4.0	0.0	1.0	5.0	8.0	-1.0	3.0	5.0	-3.0	0.0	6.0	-1.0	-3.0	2.0
447	28.379	8.33	-4.33	-4.33	-2.33	6.67	-1.33	-1.33	-1.33	2.67	-2.33	-3.33	3.67	-0.33	-0.33	-0.33	0.67	0.67	2.67	0.67	-0.33	4.67	5.67	1.67	-0.33	-2.33	0.67	-4.33
454	28.823	4.33	-1.33	4.67	2.67	-0.33	-0.33	4.67	0.67	1.67	3.67	3.67	3.67	3.67	3.67	7.67	2.67	0.67	4.67	9.67	0.67	2.67	6.67	2.67	4.67	-0.33	4.67	-0.33
461	29.267	4.33	-0.33	1.67	5.67	2.67	-2.33	5.67	2.67	2.67	0.67	2.67	4.67	0.67	2.67	2.67	5.67	6.67	4.67	6.67	5.67	1.67	3.67	2.67	1.67	11.67	2.67	6.67
468	29.712	5.67	0.33	-2.67	2.33	2.33	4.33	2.33	-0.67	1.33	3.33	1.33	2.33	1.33	4.33	0.33	3.33	0.33	-0.67	-3.67	4.33	0.33	-1.67	-0.67	4.33	-1.67	8.33	8.33
475	30.156	6.67	1.33	5.33	1.33	-1.67	-5.67	0.33	-0.67	-3.67	-1.67	-1.67	-0.67	4.33	4.33	0.33	-1.67	3.33	4.33	-0.67	-1.67	7.33	5.33	-4.67	2.33	2.33	3.33	0.33
482	30.6	5.67	-1.67	5.33	1.33	-0.67	-2.67	0.33	-3.67	-0.67	1.33	0.33	4.33	4.33	3.33	4.33	-2.67	2.33	1.33	2.33	-2.67	1.33	3.33	-3.67	6.33	-3.67	4.33	1.33
489	31.045	8.33	-5.33	-2.33	-5.33	1.67	-2.33	-1.33	0.67	2.67	2.67	-1.33	-3.33	0.67	0.67	-4.33	0.67	-1.33	-0.33	-1.33	-1.33	-2.33	2.67	-1.33	-0.33	-3.33	-0.33	-6.33
496	31.489	7.0	2.0	6.0	-2.0	1.0	0.0	-2.0	-3.0	1.0	1.0	-6.0	-2.0	-3.0	2.0	0.0	4.0	6.0	-3.0	-3.0	-1.0	-2.0	-1.0	5.0	-4.0	-2.0	0.0	0.0
503	31.933	5.33	-4.33	1.67	-0.33	0.67	1.67	3.67	-2.33	-0.33	-2.33	1.67	4.67	-0.33	1.67	3.67	6.67	0.67	-3.33	0.67	6.67	3.67	-1.33	3.67	-1.33	2.67	0.67	-0.33
510	32.377	5.33	2.67	-0.33	0.67	1.67	-0.33	2.67	-1.33	-0.33	-2.33	8.67	3.67	1.67	4.67	3.67	-2.33	-0.33	4.67	0.67	-1.33	2.67	-5.33	3.67	5.67	0.67	4.67	1.67
517	32.822	8.0	0.0	2.0	-1.0	0.0	-4.0	-2.0	-1.0	-6.0	-2.0	-7.0	4.0	-3.0	-3.0	-1.0	-2.0	6.0	-5.0	-1.0	-2.0	-1.0	7.0	-3.0	-3.0	-1.0	6.0	-4.0
524	33.266	5.33	-1.33	-2.33	-0.33	0.67	-0.33	-2.33	-2.33	-2.33	-1.33	0.67	-2.33	-2.33	0.67	1.67	0.67	-2.33	3.67	1.67	-3.33	-1.33	-0.33	-2.33	8.67	-0.33	-0.33	-0.33
531	33.71	5.67	-1.67	0.33	-0.67	4.33	-2.67	1.33	2.33	0.33	6.33	0.33	-4.67	-0.67	-4.67	1.33	1.33	0.33	2.33	1.33	0.33	3.33	0.33	-0.67	0.33	-0.67	0.33	-1.67
538	34.154	4.33	1.67	0.67	-0.33	-2.33	3.67	-2.33	-1.33	3.67	0.67	1.67	4.67	-0.33	1.67	2.67	3.67	-1.33	-0.33	0.67	1.67	3.67	2.67	-0.33	3.67	1.67	4.67	3.67
545	34.598	5.0	-1.0	-1.0	3.0	-1.0	-1.0	-2.0	3.0	1.0	0.0	0.0	1.0	-1.0	1.0	0.0	-2.0	2.0	3.0	2.0	2.0	0.0	-1.0	5.0	3.0	-1.0	5.0	5.0
552	35.043	3.33	0.67	2.67	2.67	2.67	0.67	5.67	0.67	5.67	-0.33	-1.33	1.67	-0.33	3.67	4.67	1.67	1.67	2.67	3.67	1.67	7.67	2.67	3.67	3.67	4.67	4.67	3.67
559	35.487	6.0	-3.0	-1.0	-4.0	0.0	-2.0	-3.0	-3.0	-1.0	1.0	-1.0	-1.0	-2.0	4.0	3.0	-3.0	3.0	-2.0	-1.0	3.0	1.0	-3.0	-1.0	-2.0	6.0	2.0	6.0
566	35.931	5.33	-0.33	-0.33	-1.33	1.67	0.67	-3.33	-4.33	4.67	3.67	-2.33	0.67	0.67	-0.33	-1.33	3.67	0.67	-4.33	-2.33	1.67	4.67	3.67	2.67	0.67	-0.33	-0.33	-0.33
573	36.375	4.33	-0.33	-1.33	0.67	6.67	0.67	3.67	-1.33	-0.33	1.67	-3.33	-0.33	3.67	-0.33	1.67	3.67	2.67	1.67	-1.33	-0.33	-1.33	-1.33	-1.33	-0.33	1.67	1.67	0.67
580	36.819	6.67	-4.67	-0.67	-1.67	-2.67	2.33	-4.67	-2.67	-0.67	-0.67	-0.67	-5.67	1.33	-0.67	1.33	-0.67	1.33	1.33	5.33	-0.67	0.33	1.33	-2.67	1.33	0.33	-1.67	-5.67
587	37.263	7.33	-1.33	0.67	-0.33	-2.33	-0.33	-4.33	1.67	-4.33	-5.33	-4.33	-2.33	-5.33	2.67	0.67	-0.33	-4.33	-1.33	-0.33	2.67	-0.33	-3.33	-0.33	-0.33	-3.33	-3.33	-4.33
594	37.707	5.0	-1.0	-1.0	-3.0	-2.0	0.0	0.0	5.0	4.0	0.0	-2.0	-1.0	-4.0	-3.0	-3.0	1.0	1.0	-1.0	1.0	2.0	-1.0	-2.0	4.0	1.0	-1.0	-2.0	0.0
601	38.152	4.67	2.33	4.33	-0.67	-3.67	1.33	4.33	-1.67	3.33	3.33	-1.67	-1.67	0.33	2.33	3.33	4.33	6.33	1.33	3.33	-1.67	-0.67	-2.67	0.33	-1.67	-1.67	1.33	4.33
608	38.596	6.67	-2.67	0.33	-0.67	-2.67	-3.67	4.33	-0.67	-1.67	-4.67	-5.67	-1.67	3.33	0.33	-2.67	-3.67	0.33	-5.67	-4.67	-2.67	-0.67	-3.67	-3.67	-1.67	3.33	-5.67	-0.67
615	39.04	8.0	-2.0	-1.0	-1.0	0.0	-2.0	1.0	0.0	-1.0	0.0	-3.0	0.0	0.0	-1.0	0.0	-4.0	-4.0	-4.0	-2.0	-3.0	-3.0	-2.0	-2.0	-5.0	-4.0	-2.0	-3.0
622	39.484	6.33	-3.33	-1.33	0.67	-0.33	-3.33	1.67	2.67	4.67	3.67	-1.33	-3.33	-4.33	-2.33	-3.33	-0.33	-4.33	-2.33	2.67	-2.33	5.67	3.67	-0.33	-2.33	-1.33	-0.33	-0.33
629	39.928	4.0	3.0	1.0	0.0	0.0	2.0	-1.0	2.0	0.0	5.0	6.0	1.0	5.0	-1.0	1.0	0.0	9.0	3.0	1.0	-1.0	3.0	1.0	0.0	5.0	5.0	3.0	-1.0
636	40.372	3.33	4.67	1.67	3.67	2.67	-1.33	-0.33	3.67	4.67	4.67	5.67	0.67	4.67	4.67	2.67	-1.33	2.67	5.67	-0.33	4.67	3.67	0.67	8.67	2.67	6.67	-2.33	-0.33
643	40.817	5.67	-1.67	-0.67	2.33	-1.67	0.33	-0.67	-3.67	-1.67	1.33	2.33	-0.67	-3.67	0.33	-2.67	1.33	-2.67	-1.67	2.33	-3.67	0.33	-1.67	4.33	-2.67	1.33	1.33	-1.67
650	41.261	4.33	1.67	-0.33	3.67	0.67	4.67	0.67	-0.33	-0.33	5.67	-0.33	3.67	4.67	3.67	-0.33	-2.33	1.67	5.67	1.67	4.67	-3.33	-0.33	-2.33	-1.33	0.67	0.67	-3.33
657	41.705	7.33	-2.33	-1.33	4.67	1.67	4.67	-1.33	-5.33	2.67	-1.33	-4.33	-4.33	-4.33	-3.33	-0.33	-1.33	1.67	0.67	1.67	3.67	-0.33	0.67	-0.33	-0.33	-2.33	2.67	-4.33
664	42.149	5.67	-2.67	0.33	0.33	5.33	1.33	0.33	1.33	0.33	-2.67	0.33	-0.67	1.33	4.33	2.33	-1.67	-0.67	-0.67	-2.67	-3.67	0.33	0.33	2.33	-3.67	1.33	7.33	-2.67
671	42.594	5.67	1.33	0.33	1.33	-0.67	1.33	0.33	4.33	1.33	0.33	-0.67	1.33	9.33	1.33	1.33	0.33	-0.67	1.33	5.33	3.33	-0.67	-0.67	0.33	-1.67	-2.67	4.33	-1.67
678	43.038	4.67	3.33	-1.67	8.33	2.33	4.33	7.33	-0.67	4.33	-0.67	1.33	6.33	-0.67	2.33	-2.67	1.33	2.33	1.33	0.33	-2.67	4.33	1.33	-0.67	1.33	7.33	3.33	1.33
685	43.482	4.67	-0.67	-0.67	3.33	-1.67	2.33	1.33	3.33	6.33	-1.67	-0.67	3.33	1.33	0.33	-1.67	2.33	0.33	1.33	1.33	0.33	-0.67	4.33	-0.67	1.33	3.33	-0.67	1.33
692	43.927	6.0	1.0	2.0	1.0	-4.0	3.0	0.0	5.0	4.0	-3.0	1.0	0.0	1.0	-2.0	1.0	4.0	0.0	-1.0	1.0	-1.0	-1.0	1.0	4.0	-1.0	7.0	1.0	3.0
699	44.371	5.67	-1.67	8.33	4.33	0.33	0.33	4.33	0.33	3.33	0.33	1.33	-2.67	-3.67	4.33	-0.67	0.33	-1.67	4.33	-0.67	1.33	4.33	-0.67	6.33	1.33	4.33	3.33	-1.67
706	44.815	7.33	-3.33	-2.33	-1.33	-1.33	-2.33	-0.33	-2.33	-4.33	-0.33	-5.33	-1.33	4.67	-2.33	1.67	2.67	-0.33	2.67	-4.33	3.67	2.67	-1.33	2.67	5.67	-1.33	1.67	-1.33
713	45.26	6.67	-1.67	-2.67	-2.67	1.33	3.33	1.33	4.33	1.33	-4.67	1.33	2.33	-2.67	0.33	-3.67	-1.67	2.33	-0.67	-0.67	-2.67	-4.67	3.33	1.33	6.33	0.33	-2.67	-2.67
720	45.704	8.0	-2.0	1.0	5.0	1.0	3.0	5.0	-6.0	5.0	0.0	2.0	3.0	0.0	-3.0	-1.0	-4.0	-2.0	-1.0	3.0	1.0	-1.0	-2.0	-1.0	-3.0	-3.0	-6.0	2.0
727	46.149	7.33	0.67	-1.33	-1.33	-2.33	3.67	-4.33	-4.33	2.67	0.67	-3.33	-0.33	1.67	-4.33	-1.33	1.67	-5.33	4.67	3.67	0.67	-3.33	-1.33	2.67	4.67	2.67	0.67	0.67
734	46.594	6.0	-2.0	3.0	3.0	1.0	6.0	4.0	-3.0	4.0	0.0	-1.0	3.0	5.0	1.0	5.0	0.0	1.0	1.0	4.0	2.0	0.0	-2.0	0.0	8.0	1.0	3.0	2.0
741	47.038	9.67	-1.67	-4.67	0.33	3.33	-0.67	-2.67	-3.67	-1.67	0.33	0.33	-2.67	-2.67	-2.67	1.33	-1.67	1.33	-0.67	-0.67	1.33	-4.67	-3.67	-1.67	-0.67	-1.67	-0.67	1.33
748	47.483	9.0	-4.0	4.0	2.0	-2.0	-4.0	0.0	-5.0	3.0	-3.0	-2.0	0.0	0.0	-1.0	0.0	-6.0	-3.0	-2.0	-1.0	-4.0	-1.0	-3.0	0.0	-1.0	-2.0	-3.0	-1.0
755	47.928	7.67	0.33	1.33	-2.67	-1.67	3.33	4.33	0.33	-0.67	-0.67	1.33	0.33	1.33	3.33	-1.67	-0.67	-3.67	-1.67	-0.67	3.33	-1.67	1.33	-0.67	-0.67	-0.67	1.33	-0.67
762	48.372	8.0	-2.0	-1.0	-3.0	4.0	-2.0	2.0	3.0	7.0	8.0	0.0	-1.0	0.0	0.0	1.0	0.0	4.0	-3.0	6.0	5.0	1.0	3.0	-4.0	-1.0	-3.0	-3.0	-1.0
769	48.817	6.67	-0.67	0.33	0.33	2.33	3.33	6.33	3.33	5.33	-2.67	1.33	1.33	1.33	0.33	1.33	5.33	4.33	3.33	5.33	1.33	-0.67	3.33	6.33	2.33	3.33	6.33	5.33
776	49.262	8.0	1.0	4.0	5.0	6.0	2.0	0.0	-1.0	6.0	-1.0	2.0	0.0	1.0	3.0	-2.0	1.0	1.0	3.0	-2.0	0.0	5.0	-1.0	-2.0	5.0	-1.0	-1.0	-1.0
783	49.707	6.33	4.67	3.67	3.67	3.67	3.67	0.67	0.67	4.67	2.67	3.67	-1.33	4.67	-0.33	1.67	5.67	8.67	-1.33	1.67	-0.33	8.67	0.67	7.67	7.67	7.67	-1.33	-0.33
790	50.152	6.67	3.33	4.33	4.33	3.33	2.33	6.33	7.33	2.33	6.33	0.33	0.33	-1.67	8.33	0.33	2.33	6.33	2.33	3.33	3.33	11.33	2.33	1.33	3.33	6.33	4.33	4.33
797	50.597	8.0	1.0	-1.0	-1.0	1.0	3.0	3.0	2.0	1.0	4.0	4.0	4.0	7.0	6.0	8.0	5.0	3.0	5.0	7.0	2.0	7.0	13.0	9.0	6.0	10.0	5.0	12.0
804	51.042	11.33	-4.33	-4.33	-3.33	-4.33	-7.33	0.67	-3.33	-0.33	-3.33	-3.33	-5.33	3.67	14.67	8.67	12.67	18.67	11.67	15.67	12.67	9.67	15.67	3.67	8.67	10.67	6.67	3.67
811	51.487	6.33	-0.33	6.67	5.67	6.67	2.67	3.67	0.67	4.67	4.67	14.67	7.67	17.67	20.67	27.67	32.67	31.67	40.67	20.67	37.67	21.67	23.67	25.67	40.67	35.67	21.67	26.67
818	51.932	8.33	-1.33	7.67	-4.33	1.67	5.67	6.67	2.67	2.67	3.67	-1.33	4.67	14.67	20.67	31.67	24.67	18.67	32.67	40.67	20.67	27.67	18.67	22.67	20.67	24.67	25.67	15.67
825	52.377	7.67	2.33	0.33	4.33	2.33	3.33	1.33	4.33	9.33	5.33	10.33	2.33	9.33	9.33	8.33	9.33	21.33	11.33	17.33	-0.67	12.33	14.33	9.33	15.33	7.33	12.33	14.33
832	52.823	9.33	7.67	8.67	6.67	2.67	-0.33	-0.33	0.67	2.67	2.67	17.67	-3.33	-1.33	-4.33	0.67	-0.33	14.67	-2.33	1.67	3.67	12.67	8.67	-0.33	1.67	3.67	4.67	1.67
839	53.268	8.67	-1.67	3.33	0.33	2.33	1.33	2.33	3.33	1.33	-0.67	0.33	10.33	0.33	5.33	2.33	0.33	1.33	4.33	2.33	2.33	4.33	7.33	0.33	1.33	5.33	2.33	2.33
846	53.713	8.67	0.33	1.33	-0.67	0.33	4.33	-1.67	7.33	2.33	4.33	3.33	1.33	6.33	1.33	7.33	7.33	7.33	4.33	-4.67	1.33	2.33	4.33	-0.67	9.33	1.33	3.33	4.33
853	54.159	11.67	-5.67	2.33	-1.67	-4.67	0.33	-3.67	1.33	0.33	2.33	-6.67	-1.67	-3.67	3.33	2.33	-0.67	-0.67	-0.67	-1.67	1.33	-2.67	6.33	8.33	-0.67	-1.67	5.33	-1.67
860	54.604	11.0	0.0	-3.0	-1.0	-2.0	-5.0	0.0	0.0	-2.0	-2.0	-3.0	3.0	1.0	0.0	3.0	4.0	2.0	-2.0	5.0	2.0	-1.0	-2.0	0.0	-3.0	4.0	2.0	2.0
867	55.05	8.67	4.33	6.33	3.33	2.33	3.33	1.33	-0.67	0.33	4.33	3.33	-1.67	3.33	1.33	4.33	2.33	-1.67	-0.67	7.33	-1.67	5.33	2.33	8.33	-1.67	4.33	6.33	2.33
874	55.496	9.0	4.0	5.0	-3.0	0.0	8.0	3.0	6.0	1.0	4.0	3.0	6.0	2.0	0.0	6.0	6.0	6.0	8.0	-4.0	4.0	7.0	9.0	-1.0	0.0	1.0	8.0	2.0
881	55.942	8.33	2.67	1.67	0.67	2.67	5.67	6.67	3.67	3.67	4.67	0.67	2.67	-0.33	1.67	4.67	0.67	-0.33	7.67	5.67	2.67	1.67	6.67	9.67	3.67	-3.33	3.67	4.67
888	56.387	9.33	-1.33	6.67	1.67	2.67	-0.33	-1.33	2.67	4.67	4.67	3.67	6.67	3.67	4.67	7.67	3.67	6.67	1.67	3.67	-2.33	0.67	9.67	-0.33	-2.33	-0.33	3.67	11.67
895	56.833	8.67	4.33	5.33	1.33	4.33	6.33	9.33	2.33	2.33	15.33	2.33	6.33	8.33	8.33	5.33	8.33	9.33	8.33	5.33	11.33	2.33	12.33	8.33	8.33	8.33	8.33	4.33
902	57.279	10.0	5.0	6.0	5.0	3.0	3.0	5.0	-1.0	1.0	0.0	6.0	9.0	3.0	-2.0	8.0	0.0	4.0	0.0	8.0	10.0	0.0	7.0	13.0	6.0	7.0	4.0	5.0
909	57.726	13.33	1.67	4.67	-3.33	0.67	-0.33	-0.33	0.67	0.67	-3.33	8.67	0.67	4.67	7.67	-2.33	-2.33	6.67	-0.33	-1.33	1.67	1.67	2.67	9.67	0.67	1.67	0.67	5.67
916	58.172	11.67	0.33	-0.67	10.33	-5.67	8.33	2.33	6.33	-1.67	2.33	6.33	3.33	14.33	5.33	3.33	9.33	1.33	8.33	2.33	7.33	-7.67	6.33	3.33	7.33	3.33	9.33	5.33
923	58.618	13.67	1.33	3.33	13.33	3.33	-3.67	0.33	-2.67	3.33	2.33	4.33	5.33	-5.67	1.33	0.33	10.33	-0.67	-1.67	9.33	-4.67	-1.67	0.33	-0.67	3.33	3.33	-1.67	-1.67
930	59.064	11.33	4.67	9.67	7.67	11.67	5.67	5.67	3.67	-0.33	2.67	8.67	9.67	3.67	7.67	14.67	2.67	14.67	4.67	6.67	8.67	-1.33	12.67	6.67	5.67	10.67	3.67	4.67
937	59.511	13.0	8.0	12.0	1.0	12.0	9.0	12.0	9.0	13.0	6.0	5.0	13.0	4.0	12.0	11.0	4.0	2.0	-3.0	11.0	-5.0	9.0	7.0	6.0	6.0	2.0	-1.0	4.0
944	59.957	9.33	-1.33	9.67	8.67	6.67	11.67	9.67	-1.33	12.67	3.67	2.67	-0.33	0.67	8.67	10.67	3.67	2.67	7.67	10.67	2.67	5.67	-1.33	8.67	1.67	5.67	1.67	3.67
951	60.404	6.33	3.67	22.67	9.67	8.67	7.67	7.67	9.67	11.67	2.67	4.67	12.67	8.67	5.67	8.67	9.67	7.67	5.67	12.67	8.67	7.67	14.67	11.67	13.67	4.67	3.67	13.67
958	60.851	11.0	1.0	-2.0	1.0	4.0	-3.0	0.0	0.0	1.0	2.0	6.0	-1.0	4.0	1.0	-3.0	-2.0	7.0	2.0	-2.0	-1.0	2.0	8.0	0.0	-2.0	-1.0	2.0	8.0
965	61.298	9.67	7.33	3.33	5.33	4.33	-1.67	1.33	7.33	8.33	-0.67	-1.67	4.33	1.33	6.33	1.33	7.33	10.33	-0.67	9.33	3.33	3.33	-1.67	-2.67	3.33	2.33	5.33	1.33
972	61.745	10.0	-4.0	-2.0	5.0	11.0	1.0	2.0	7.0	2.0	1.0	8.0	0.0	7.0	2.0	4.0	2.0	10.0	0.0	5.0	5.0	7.0	10.0	-2.0	2.0	2.0	4.0	3.0
979	62.192	9.0	-2.0	6.0	0.0	3.0	4.0	-1.0	1.0	-1.0	6.0	14.0	4.0	-1.0	6.0	5.0	9.0	2.0	1.0	9.0	1.0	10.0	8.0	3.0	1.0	9.0	-3.0	11.0
986	62.639	8.33	1.67	3.67	3.67	5.67	8.67	5.67	3.67	5.67	14.67	2.67	2.67	6.67	5.67	-1.33	7.67	6.67	5.67	6.67	6.67	-0.33	8.67	8.67	9.67	5.67	10.67	2.67
993	63.086	9.33	-0.33	8.67	3.67	8.67	-3.33	11.67	5.67	0.67	-0.33	1.67	7.67	-1.33	4.67	4.67	10.67	6.67	7.67	8.67	0.67	8.67	-2.33	7.67	4.67	2.67	6.67	6.67
1000	63.533	9.67	3.33	3.33	8.33	3.33	5.33	8.33	5.33	10.33	6.33	8.33	-0.67	0.33	2.33	15.33	1.33	9.33	5.33	10.33	1.33	4.33	4.33	6.33	6.33	3.33	12.33	17.33
1007	63.981	11.67	-3.67	2.33	10.33	4.33	0.33	9.33	2.33	6.33	-0.67	4.33	4.33	8.33	-1.67	8.33	5.33	8.33	2.33	0.33	2.33	2.33	5.33	0.33	4.33	6.33	4.33	1.33
1014	64.428	10.0	-7.0	8.0	4.0	5.0	9.0	5.0	-3.0	8.0	1.0	3.0	2.0	9.0	6.0	7.0	7.0	10.0	7.0	5.0	10.0	7.0	4.0	7.0	8.0	4.0	10.0	-2.0
1021	64.876	8.33	4.67	11.67	16.67	16.67	13.67	17.67	7.67	17.67	22.67	13.67	15.67	10.67	7.67	7.67	7.67	12.67	11.67	11.67	10.67	8.67	8.67	6.67	5.67	19.67	5.67	15.67
1028	65.324	9.0	18.0	32.0	21.0	20.0	33.0	29.0	30.0	23.0	25.0	37.0	13.0	20.0	21.0	13.0	15.0	17.0	20.0	10.0	17.0	33.0	25.0	21.0	9.0	15.0	11.0	26.0
1035	65.772	10.0	11.0	43.0	40.0	51.0	41.0	39.0	32.0	35.0	34.0	38.0	30.0	44.0	25.0	21.0	25.0	19.0	19.0	18.0	25.0	15.0	16.0	18.0	22.0	15.0	20.0	13.0
1042	66.22	12.67	-1.67	33.33	35.33	42.33	34.33	31.33	36.33	33.33	33.33	31.33	16.33	22.33	25.33	15.33	23.33	15.33	10.33	21.33	15.33	16.33	3.33	10.33	16.33	22.33	10.33	16.33
1049	66.668	12.0	16.0	16.0	19.0	24.0	16.0	15.0	17.0	15.0	18.0	5.0	11.0	11.0	4.0	5.0	7.0	19.0	1.0	7.0	11.0	14.0	7.0	9.0	11.0	7.0	14.0	16.0
1056	67.116	16.0	-5.0	10.0	7.0	4.0	3.0	14.0	4.0	2.0	0.0	7.0	1.0	4.0	7.0	2.0	8.0	-1.0	1.0	-1.0	7.0	8.0	5.0	-4.0	7.0	7.0	2.0	4.0
1063	67.564	10.33	13.67	7.67	14.67	5.67	5.67	1.67	5.67	12.67	7.67	4.67	8.67	6.67	10.67	10.67	5.67	8.67	8.67	3.67	7.67	11.67	0.67	8.67	9.67	9.67	8.67	4.67
1070	68.013	14.67	-2.67	3.33	0.33	-1.67	-0.67	1.33	-0.67	4.33	7.33	1.33	-1.67	1.33	0.33	5.33	1.33	3.33	-3.67	3.33	-0.67	7.33	2.33	11.33	0.33	8.33	-0.67	4.33
1077	68.462	12.33	1.67	-3.33	10.67	1.67	7.67	11.67	6.67	10.67	-2.33	8.67	4.67	1.67	-3.33	3.67	2.67	2.67	3.67	3.67	7.67	-3.33	5.67	-5.33	8.67	-0.33	4.67	0.67
1084	68.91	11.0	-2.0	1.0	7.0	10.0	1.0	7.0	0.0	-1.0	9.0	-3.0	10.0	7.0	7.0	5.0	5.0	2.0	9.0	7.0	4.0	2.0	10.0	7.0	3.0	7.0	11.0	9.0
1091	69.359	12.0	4.0	7.0	4.0	6.0	4.0	-1.0	6.0	9.0	11.0	12.0	11.0	-1.0	10.0	13.0	4.0	7.0	4.0	14.0	4.0	11.0	0.0	4.0	0.0	8.0	1.0	0.0
1098	69.808	12.67	6.33	9.33	10.33	1.33	3.33	2.33	-1.67	-4.67	4.33	6.33	7.33	5.33	2.33	6.33	-0.67	1.33	3.33	2.33	8.33	7.33	-0.67	5.33	0.33	7.33	0.33	2.33
1105	70.257	10.67	2.33	0.33	9.33	-2.67	6.33	8.33	4.33	4.33	3.33	15.33	5.33	8.33	2.33	9.33	19.33	5.33	3.33	14.33	-7.67	4.33	10.33	2.33	5.33	3.33	2.33	11.33
1112	70.707	11.0	2.0	4.0	5.0	6.0	6.0	11.0	5.0	11.0	2.0	3.0	8.0	6.0	5.0	9.0	7.0	3.0	0.0	4.0	12.0	6.0	4.0	17.0	3.0	1.0	4.0	1.0
1119	71.156	12.0	-7.0	5.0	9.0	6.0	2.0	16.0	15.0	3.0	0.0	0.0	2.0	5.0	7.0	-2.0	3.0	2.0	12.0	2.0	6.0	-2.0	16.0	-3.0	5.0	6.0	4.0	8.0
1126	71.606	11.33	-0.33	2.67	9.67	4.67	8.67	11.67	6.67	0.67	5.67	0.67	5.67	2.67	0.67	5.67	8.67	8.67	7.67	2.67	7.67	3.67	11.67	2.67	3.67	7.67	0.67	3.67
1133	72.055	14.33	0.67	5.67	1.67	-1.33	-0.33	-3.33	4.67	6.67	0.67	7.67	3.67	2.67	7.67	6.67	0.67	3.67	13.67	3.67	1.67	9.67	-1.33	-1.33	5.67	6.67	2.67	2.67
1140	72.505	14.33	-0.33	7.67	12.67	11.67	6.67	3.67	0.67	7.67	15.67	3.67	8.67	6.67	10.67	17.67	0.67	6.67	3.67	7.67	16.67	10.67	9.67	9.67	8.67	4.67	9.67	13.67
1147	72.955	20.0	6.0	14.0	7.0	10.0	17.0	16.0	7.0	16.0	19.0	11.0	12.0	-3.0	13.0	7.0	16.0	6.0	14.0	5.0	11.0	10.0	16.0	18.0	16.0	9.0	19.0	21.0
1154	73.405	19.33	0.67	13.67	2.67	-0.33	10.67	12.67	19.67	5.67	2.67	3.67	7.67	-1.33	5.67	4.67	-2.33	-5.33	6.67	12.67	8.67	1.67	2.67	15.67	7.67	4.67	10.67	7.67
1161	73.855	11.0	4.0	3.0	9.0	10.0	9.0	5.0	5.0	10.0	9.0	7.0	10.0	7.0	9.0	8.0	0.0	10.0	6.0	11.0	1.0	7.0	15.0	12.0	8.0	5.0	5.0	15.0
1168	74.306	13.33	-5.33	16.67	6.67	3.67	7.67	12.67	-0.33	6.67	8.67	6.67	11.67	4.67	4.67	8.67	5.67	6.67	3.67	4.67	4.67	3.67	7.67	3.67	0.67	16.67	12.67	7.67
1175	74.756	23.67	3.33	-0.67	4.33	2.33	-0.67	9.33	9.33	2.33	12.33	6.33	3.33	3.33	6.33	8.33	8.33	11.33	6.33	4.33	11.33	9.33	4.33	6.33	4.33	19.33	9.33	7.33
1182	75.207	37.0	-1.0	9.0	-5.0	19.0	12.0	9.0	2.0	12.0	12.0	12.0	9.0	3.0	-3.0	5.0	19.0	2.0	9.0	6.0	15.0	18.0	24.0	26.0	9.0	14.0	1.0	5.0
1189	75.658	22.33	6.67	11.67	7.67	4.67	2.67	4.67	3.67	19.67	8.67	7.67	2.67	5.67	11.67	7.67	16.67	14.67	9.67	9.67	0.67	13.67	4.67	16.67	14.67	12.67	5.67	8.67
1196	76.109	13.33	11.67	1.67	7.67	12.67	1.67	5.67	11.67	12.67	12.67	4.67	11.67	-5.33	5.67	8.67	9.67	2.67	8.67	4.67	5.67	9.67	8.67	10.67	3.67	5.67	14.67	2.67
1203	76.56	10.67	6.33	10.33	10.33	12.33	7.33	7.33	18.33	7.33	8.33	6.33	11.33	14.33	9.33	12.33	8.33	5.33	13.33	7.33	6.33	2.33	8.33	4.33	6.33	2.33	8.33	6.33
1210	77.011	12.0	9.0	3.0	6.0	-5.0	7.0	6.0	12.0	11.0	12.0	12.0	8.0	-1.0	7.0	7.0	10.0	4.0	5.0	4.0	6.0	4.0	0.0	0.0	13.0	0.0	7.0	9.0
1217	77.463	12.67	-1.67	13.33	3.33	6.33	12.33	5.33	-0.67	5.33	9.33	7.33	1.33	2.33	5.33	1.33	5.33	2.33	3.33	2.33	8.33	9.33	8.33	4.33	0.33	6.33	8.33	6.33
1224	77.915	12.0	3.0	1.0	5.0	12.0	7.0	10.0	2.0	7.0	14.0	14.0	4.0	9.0	10.0	3.0	6.0	6.0	8.0	12.0	14.0	6.0	10.0	11.0	12.0	6.0	1.0	5.0
1231	78.366	11.67	6.33	3.33	3.33	5.33	1.33	2.33	-3.67	7.33	12.33	3.33	2.33	10.33	3.33	7.33	17.33	7.33	5.33	4.33	7.33	4.33	14.33	12.33	12.33	3.33	2.33	11.33
1238	78.818	15.33	1.67	8.67	15.67	-1.33	1.67	11.67	-2.33	0.67	15.67	-0.33	3.67	2.67	7.67	3.67	3.67	2.67	4.67	2.67	1.67	4.67	2.67	2.67	4.67	11.67	2.67	2.67
1245	79.271	12.0	4.0	2.0	10.0	22.0	8.0	6.0	21.0	10.0	9.0	7.0	2.0	8.0	9.0	12.0	11.0	13.0	8.0	4.0	8.0	6.0	5.0	4.0	9.0	5.0	3.0	3.0
1252	79.723	13.67	0.33	10.33	11.33	-4.67	8.33	0.33	2.33	12.33	14.33	9.33	8.33	14.33	8.33	8.33	6.33	5.33	3.33	12.33	11.33	11.33	8.33	7.33	5.33	6.33	12.33	14.33
1259	80.175	12.67	2.33	9.33	3.33	0.33	7.33	10.33	4.33	10.33	2.33	10.33	9.33	6.33	9.33	8.33	2.33	8.33	8.33	9.33	6.33	13.33	16.33	5.33	6.33	2.33	20.33	16.33
1266	80.628	17.67	0.33	11.33	0.33	6.33	5.33	1.33	6.33	-0.67	5.33	6.33	9.33	1.33	9.33	2.33	3.33	-2.67	6.33	2.33	1.33	-0.67	6.33	-0.67	5.33	7.33	4.33	6.33
1273	81.081	19.33	-1.33	9.67	-2.33	4.67	7.67	0.67	-1.33	11.67	0.67	-2.33	1.67	9.67	4.67	11.67	9.67	7.67	9.67	3.67	1.67	-0.33	10.67	7.67	10.67	6.67	6.67	14.67
1280	81.534	13.67	10.33	9.33	7.33	8.33	12.33	11.33	0.33	11.33	17.33	8.33	13.33	25.33	13.33	16.33	14.33	12.33	22.33	9.33	27.33	15.33	12.33	12.33	15.33	21.33	13.33	16.33
1287	81.987	18.0	2.0	5.0	12.0	21.0	7.0	8.0	17.0	16.0	16.0	11.0	8.0	14.0	15.0	9.0	18.0	6.0	25.0	11.0	21.0	14.0	9.0	12.0	23.0	1.0	11.0	17.0
1294	82.441	16.0	11.0	44.0	34.0	31.0	44.0	43.0	27.0	44.0	36.0	35.0	28.0	31.0	19.0	22.0	32.0	34.0	20.0	18.0	31.0	26.0	30.0	20.0	18.0	22.0	28.0	30.0
1301	82.894	17.33	37.67	134.67	117.67	99.67	100.67	92.67	105.67	100.67	88.67	88.67	70.67	63.67	55.67	60.67	55.67	52.67	48.67	35.67	32.67	63.67	48.67	28.67	47.67	34.67	27.67	45.67
1308	83.348	16.67	112.33	242.33	223.33	191.33	178.33	155.33	175.33	201.33	166.33	161.33	146.33	146.33	147.33	106.33	88.33	86.33	92.33	75.33	85.33	79.33	81.33	68.33	85.33	70.33	85.33	80.33
1315	83.802	18.0	115.0	323.0	262.0	244.0	248.0	218.0	240.0	231.0	216.0	205.0	198.0	173.0	131.0	107.0	141.0	102.0	110.0	97.0	88.0	99.0	111.0	108.0	114.0	99.0	93.0	91.0
1322	84.256	16.67	134.33	277.33	247.33	224.33	207.33	195.33	191.33	183.33	195.33	189.33	186.33	167.33	108.33	116.33	90.33	130.33	115.33	123.33	104.33	100.33	86.33	93.33	96.33	80.33	83.33	100.33
1329	84.71	25.33	63.67	147.67	122.67	114.67	99.67	111.67	122.67	98.67	103.67	103.67	89.67	72.67	74.67	59.67	61.67	47.67	51.67	32.67	58.67	45.67	52.67	41.67	46.67	60.67	51.67	67.67
1336	85.165	30.0	11.0	49.0	36.0	35.0	33.0	29.0	32.0	25.0	29.0	22.0	38.0	28.0	9.0	26.0	18.0	19.0	20.0	23.0	23.0	30.0	13.0	31.0	-3.0	20.0	24.0	7.0
1343	85.619	27.33	11.67	14.67	8.67	26.67	11.67	13.67	17.67	14.67	8.67	9.67	4.67	12.67	12.67	14.67	3.67	10.67	0.67	12.67	21.67	11.67	2.67	6.67	-2.33	1.67	7.67	23.67
1350	86.074	25.67	-5.67	4.33	2.33	-2.67	-1.67	2.33	2.33	6.33	7.33	1.33	7.33	0.33	2.33	10.33	14.33	-2.67	-5.67	-1.67	10.33	-2.67	1.33	12.33	7.33	-3.67	5.33	9.33
1357	86.529	20.33	-1.33	3.67	4.67	-1.33	9.67	1.67	8.67	13.67	1.67	19.67	1.67	10.67	6.67	8.67	5.67	4.67	11.67	17.67	15.67	12.67	3.67	8.67	10.67	12.67	-1.33	4.67
1364	86.985	21.0	3.0	14.0	3.0	4.0	18.0	9.0	18.0	16.0	8.0	2.0	14.0	0.0	11.0	15.0	5.0	6.0	9.0	3.0	3.0	10.0	14.0	8.0	3.0	10.0	0.0	-3.0
1371	87.44	18.67	-0.67	9.33	7.33	5.33	15.33	12.33	10.33	18.33	7.33	12.33	15.33	14.33	17.33	12.33	9.33	20.33	11.33	17.33	7.33	16.33	10.33	3.33	15.33	10.33	22.33	9.33
1378	87.896	20.0	0.0	11.0	2.0	11.0	10.0	16.0	14.0	12.0	11.0	10.0	21.0	16.0	7.0	7.0	14.0	28.0	15.0	21.0	18.0	13.0	11.0	9.0	11.0	9.0	10.0	6.0
1385	88.352	27.67	-6.67	9.33	-8.67	-4.67	2.33	2.33	2.33	1.33	2.33	5.33	9.33	10.33	-3.67	3.33	-4.67	0.33	1.33	8.33	3.33	-0.67	3.33	5.33	6.33	0.33	3.33	-2.67
1392	88.808	19.0	2.0	3.0	1.0	9.0	15.0	12.0	15.0	6.0	8.0	14.0	13.0	12.0	16.0	0.0	13.0	7.0	2.0	4.0	8.0	20.0	14.0	6.0	17.0	13.0	15.0	6.0
1399	89.264	25.33	-5.33	11.67	-4.33	-1.33	16.67	7.67	4.67	11.67	0.67	-4.33	5.67	7.67	7.67	4.67	3.67	3.67	8.67	10.67	1.67	4.67	1.67	4.67	-3.33	1.67	7.67	-1.33
1406	89.72	18.33	11.67	9.67	11.67	7.67	13.67	3.67	10.67	4.67	16.67	15.67	14.67	14.67	9.67	13.67	13.67	8.67	11.67	7.67	12.67	14.67	15.67	14.67	8.67	11.67	9.67	12.67
1413	90.177	27.33	-5.33	3.67	-1.33	-11.33	5.67	-5.33	4.67	5.67	16.67	5.67	-0.33	6.67	8.67	5.67	6.67	1.67	1.67	10.67	-1.33	18.67	5.67	-0.33	2.67	5.67	1.67	18.67
1420	90.634	26.0	-5.0	9.0	2.0	3.0	-1.0	-1.0	-6.0	9.0	12.0	-7.0	12.0	-3.0	1.0	7.0	6.0	11.0	3.0	5.0	-1.0	15.0	8.0	10.0	-1.0	3.0	-2.0	15.0
1427	91.091	28.33	1.67	10.67	5.67	4.67	-1.33	2.67	-0.33	4.67	0.67	2.67	0.67	7.67	5.67	-0.33	4.67	2.67	6.67	-9.33	-4.33	0.67	4.67	1.67	-5.33	4.67	0.67	-3.33
1434	91.549	18.0	-3.0	7.0	16.0	9.0	7.0	18.0	10.0	12.0	17.0	18.0	8.0	21.0	1.0	21.0	20.0	16.0	9.0	13.0	8.0	8.0	8.0	6.0	14.0	26.0	11.0	15.0
1441	92.006	27.67	7.33	14.33	-3.67	-1.67	-2.67	-11.67	-0.67	1.33	7.33	3.33	-2.67	1.33	6.33	12.33	13.33	6.33	1.33	-3.67	9.33	10.33	2.33	1.33	7.33	0.33	7.33	6.33
1448	92.464	19.67	7.33	20.33	14.33	12.33	16.33	6.33	12.33	12.33	6.33	10.33	9.33	14.33	20.33	5.33	6.33	14.33	13.33	17.33	23.33	22.33	8.33	18.33	11.33	-0.67	12.33	20.33
1455	92.922	26.67	1.33	3.33	2.33	9.33	1.33	-5.67	2.33	-0.67	8.33	8.33	1.33	5.33	8.33	12.33	3.33	9.33	4.33	2.33	-0.67	9.33	-0.67	-5.67	1.33	10.33	11.33	1.33
1462	93.38	18.33	7.67	6.67	19.67	16.67	11.67	8.67	18.67	18.67	17.67	19.67	19.67	17.67	7.67	11.67	15.67	2.67	17.67	18.67	11.67	10.67	17.67	19.67	18.67	-1.33	15.67	6.67
1469	93.839	27.0	4.0	14.0	0.0	-5.0	3.0	7.0	2.0	7.0	1.0	-3.0	1.0	5.0	12.0	14.0	14.0	-1.0	-1.0	-1.0	4.0	1.0	1.0	2.0	-2.0	9.0	6.0	0.0
1476	94.297	24.33	5.67	-1.33	0.67	18.67	8.67	7.67	5.67	-4.33	6.67	0.67	10.67	14.67	5.67	-0.33	10.67	14.67	10.67	13.67	4.67	11.67	3.67	9.67	11.67	13.67	5.67	12.67
1483	94.756	26.67	0.33	6.33	10.33	20.33	2.33	6.33	8.33	11.33	1.33	10.33	6.33	-1.67	0.33	6.33	7.33	12.33	2.33	14.33	10.33	5.33	4.33	-4.67	10.33	3.33	2.33	6.33
1490	95.215	23.0	16.0	-4.0	13.0	13.0	18.0	7.0	10.0	15.0	12.0	10.0	13.0	17.0	11.0	8.0	16.0	14.0	20.0	16.0	2.0	23.0	17.0	16.0	17.0	2.0	18.0	18.0
1497	95.675	39.67	-1.67	-3.67	-12.67	-4.67	-4.67	-0.67	-6.67	-11.67	-18.67	-9.67	-7.67	-6.67	6.33	-7.67	-4.67	-3.67	6.33	-1.67	2.33	0.33	3.33	3.33	2.33	-13.67	-9.67	-5.67
1504	96.134	29.33	2.67	6.67	-4.33	3.67	1.67	6.67	1.67	-1.33	2.67	0.67	3.67	7.67	9.67	16.67	15.67	1.67	-7.33	27.67	12.67	9.67	24.67	6.67	16.67	7.67	17.67	10.67
1511	96.594	30.0	0.0	-3.0	-6.0	11.0	-13.0	-2.0	4.0	4.0	10.0	7.0	16.0	19.0	18.0	13.0	24.0	21.0	16.0	22.0	24.0	16.0	20.0	17.0	17.0	24.0	22.0	10.0
1518	97.054	30.33	1.67	2.67	8.67	1.67	-1.33	1.67	12.67	-0.33	-0.33	4.67	2.67	9.67	21.67	12.67	31.67	12.67	34.67	24.67	36.67	24.67	23.67	13.67	31.67	21.67	29.67	18.67
1525	97.514	33.0	5.0	-4.0	-1.0	0.0	-3.0	-10.0	4.0	4.0	-5.0	5.0	13.0	-2.0	16.0	11.0	19.0	21.0	18.0	33.0	18.0	15.0	30.0	29.0	24.0	46.0	28.0	27.0
1532	97.975	32.67	6.33	4.33	3.33	3.33	6.33	6.33	3.33	5.33	3.33	-0.67	2.33	9.33	11.33	6.33	18.33	29.33	27.33	18.33	18.33	15.33	19.33	29.33	13.33	20.33	24.33	29.33
1539	98.436	31.33	-7.33	-3.33	7.67	1.67	1.67	-6.33	4.67	4.67	3.67	3.67	5.67	11.67	2.67	10.67	3.67	18.67	14.67	9.67	14.67	18.67	13.67	8.67	9.67	22.67	20.67	3.67
1546	98.897	34.33	-5.33	-6.33	-8.33	-3.33	-1.33	-13.33	5.67	-0.33	-4.33	1.67	6.67	11.67	12.67	10.67	4.67	10.67	4.67	10.67	-0.33	4.67	-2.33	5.67	-0.33	7.67	-2.33	11.67
1553	99.358	31.0	-11.0	-7.0	2.0	3.0	8.0	1.0	-3.0	-2.0	2.0	5.0	-2.0	7.0	1.0	0.0	9.0	1.0	1.0	6.0	-9.0	2.0	0.0	-3.0	-3.0	8.0	7.0	17.0
1560	99.82	28.33	3.67	-0.33	7.67	11.67	6.67	3.67	1.67	-2.33	1.67	4.67	2.67	5.67	11.67	2.67	-2.33	-0.33	10.67	10.67	14.67	14.67	2.67	7.67	0.67	16.67	1.67	9.67
1567	100.281	29.67	2.33	5.33	-1.67	14.33	3.33	-2.67	1.33	10.33	7.33	1.33	4.33	7.33	9.33	3.33	-1.67	3.33	0.33	5.33	8.33	2.33	5.33	2.33	-1.67	9.33	9.33	2.33
1574	100.743	29.33	-7.33	-1.33	-2.33	9.67	-1.33	12.67	-0.33	-4.33	-5.33	-6.33	-1.33	6.67	5.67	8.67	4.67	8.67	8.67	11.67	2.67	-0.33	2.67	-5.33	8.67	8.67	1.67	11.67
1581	101.206	26.0	-4.0	0.0	12.0	1.0	14.0	15.0	23.0	13.0	-3.0	0.0	4.0	12.0	6.0	15.0	21.0	12.0	13.0	-1.0	8.0	9.0	11.0	3.0	5.0	11.0	7.0	0.0
1588	101.668	28.0	-2.0	6.0	2.0	15.0	-4.0	8.0	13.0	1.0	7.0	8.0	0.0	10.0	3.0	7.0	17.0	10.0	10.0	9.0	12.0	2.0	0.0	5.0	3.0	7.0	-9.0	14.0
1595	102.131	27.67	1.33	6.33	9.33	9.33	-3.67	14.33	9.33	12.33	16.33	7.33	11.33	9.33	8.33	-0.67	18.33	11.33	22.33	1.33	2.33	-1.67	14.33	8.33	12.33	20.33	-0.67	5.33
1602	102.594	25.0	-1.0	11.0	25.0	7.0	24.0	20.0	29.0	16.0	16.0	24.0	15.0	11.0	5.0	13.0	6.0	12.0	14.0	5.0	15.0	27.0	7.0	9.0	8.0	23.0	6.0	14.0
1609	103.057	20.67	16.33	21.33	8.33	9.33	16.33	22.33	13.33	25.33	17.33	23.33	11.33	10.33	3.33	3.33	20.33	14.33	22.33	9.33	20.33	21.33	13.33	18.33	17.33	12.33	8.33	8.33
1616	103.521	26.67	3.33	7.33	11.33	13.33	16.33	14.33	8.33	5.33	2.33	-6.67	15.33	-0.67	9.33	4.33	7.33	3.33	16.33	11.33	12.33	9.33	3.33	1.33	4.33	10.33	5.33	11.33
1623	103.985	26.33	8.67	-0.33	9.67	8.67	-4.33	3.67	9.67	1.67	16.67	-0.33	7.67	1.67	-1.33	13.67	-1.33	8.67	2.67	0.67	-7.33	3.67	0.67	2.67	4.67	1.67	-1.33	6.67
1630	104.449	29.0	-5.0	-2.0	12.0	-1.0	7.0	3.0	1.0	4.0	-5.0	-2.0	10.0	-9.0	-3.0	9.0	1.0	-6.0	2.0	7.0	2.0	3.0	-5.0	1.0	-10.0	10.0	-2.0	-2.0
1637	104.913	26.0	-6.0	6.0	-2.0	4.0	2.0	2.0	-1.0	14.0	-3.0	1.0	6.0	4.0	-6.0	11.0	5.0	10.0	0.0	3.0	5.0	-1.0	7.0	0.0	-1.0	6.0	2.0	10.0
1644	105.378	19.67	13.33	10.33	2.33	15.33	4.33	0.33	8.33	8.33	9.33	6.33	14.33	16.33	7.33	5.33	17.33	0.33	8.33	12.33	9.33	13.33	12.33	13.33	16.33	13.33	-0.67	16.33
1651	105.843	30.33	-5.33	2.67	0.67	-5.33	-0.33	-3.33	0.67	-10.33	-6.33	-3.33	-1.33	-7.33	-0.33	4.67	-9.33	1.67	2.67	3.67	-2.33	-7.33	9.67	-1.33	0.67	-0.33	0.67	5.67
1658	106.308	19.67	8.33	6.33	9.33	0.33	5.33	9.33	0.33	9.33	10.33	16.33	9.33	7.33	14.33	11.33	15.33	1.33	4.33	6.33	16.33	3.33	8.33	11.33	2.33	10.33	14.33	8.33
1665	106.773	22.33	-3.33	2.67	0.67	0.67	-1.33	8.67	9.67	-3.33	2.67	3.67	4.67	6.67	12.67	11.67	3.67	9.67	11.67	-0.33	5.67	-2.33	10.67	17.67	0.67	10.67	10.67	15.67
1672	107.239	25.0	1.0	1.0	12.0	4.0	-2.0	-4.0	-2.0	-5.0	7.0	5.0	4.0	-1.0	-3.0	-3.0	-3.0	-2.0	6.0	-4.0	1.0	-6.0	-2.0	6.0	5.0	2.0	8.0	-1.0
1679	107.705	27.33	-5.33	-2.33	-3.33	-10.33	-2.33	4.67	-8.33	-4.33	-9.33	0.67	-9.33	6.67	-3.33	-6.33	-8.33	6.67	2.67	-9.33	-0.33	-7.33	3.67	4.67	0.67	1.67	1.67	4.67
1686	108.171	24.0	1.0	7.0	-6.0	6.0	-8.0	2.0	2.0	-7.0	-3.0	-12.0	-4.0	8.0	2.0	-9.0	1.0	0.0	11.0	-1.0	2.0	3.0	0.0	1.0	10.0	4.0	7.0	4.0
1693	108.638	21.33	-0.33	1.67	2.67	8.67	7.67	5.67	-2.33	2.67	5.67	2.67	6.67	1.67	3.67	-3.33	-8.33	-2.33	11.67	2.67	4.67	11.67	1.67	0.67	2.67	20.67	8.67	1.67
1700	109.105	27.67	-8.67	-3.67	-2.67	-2.67	1.33	0.33	-3.67	2.33	-7.67	-4.67	2.33	-4.67	-5.67	-5.67	-3.67	0.33	9.33	-0.67	-2.67	-2.67	1.33	-2.67	0.33	1.33	-2.67	-5.67
1707	109.572	21.67	1.33	-5.67	-2.67	1.33	-0.67	11.33	4.33	-6.67	6.33	3.33	2.33	7.33	0.33	-1.67	-1.67	5.33	-0.67	3.33	-0.67	10.33	12.33	-0.67	6.33	2.33	1.33	12.33
1714	110.039	24.67	-5.67	5.33	-5.67	-4.67	-4.67	-2.67	4.33	-7.67	-2.67	-2.67	-5.67	-4.67	-6.67	7.33	-2.67	2.33	7.33	-8.67	0.33	0.33	-3.67	10.33	5.33	2.33	9.33	2.33
1721	110.507	23.67	-3.67	-3.67	-0.67	-7.67	-2.67	-3.67	-0.67	7.33	-0.67	6.33	2.33	-5.67	-8.67	-4.67	1.33	5.33	-3.67	-10.67	-3.67	0.33	0.33	0.33	-1.67	-0.67	-5.67	6.33
1728	110.975	25.67	-3.67	-0.67	7.33	-2.67	-6.67	1.33	-7.67	-2.67	-2.67	6.33	2.33	-4.67	4.33	-5.67	-6.67	-7.67	-4.67	-3.67	-0.67	-4.67	3.33	12.33	-8.67	-0.67	4.33	-0.67
1735	111.443	18.0	-3.0	5.0	15.0	10.0	3.0	8.0	11.0	13.0	3.0	7.0	30.0	8.0	16.0	7.0	6.0	10.0	18.0	10.0	21.0	8.0	5.0	8.0	0.0	7.0	8.0	10.0
1742	111.912	18.0	1.0	9.0	27.0	20.0	13.0	10.0	4.0	21.0	8.0	23.0	5.0	7.0	11.0	9.0	-2.0	8.0	7.0	5.0	5.0	6.0	5.0	9.0	7.0	9.0	13.0	18.0
1749	112.38	19.33	12.67	15.67	11.67	1.67	8.67	9.67	20.67	6.67	7.67	12.67	-1.33	6.67	11.67	16.67	16.67	-1.33	8.67	3.67	12.67	4.67	21.67	4.67	2.67	-0.33	10.67	14.67
1756	112.85	19.67	1.33	7.33	4.33	4.33	16.33	7.33	15.33	0.33	4.33	3.33	1.33	4.33	3.33	4.33	7.33	2.33	3.33	-0.67	0.33	4.33	14.33	8.33	5.33	4.33	11.33	8.33
1763	113.319	20.0	-5.0	14.0	4.0	-2.0	5.0	15.0	4.0	2.0	6.0	20.0	6.0	9.0	8.0	-7.0	11.0	3.0	-1.0	0.0	2.0	-5.0	2.0	10.0	1.0	1.0	2.0	0.0
1770	113.789	18.0	1.0	2.0	5.0	12.0	0.0	-2.0	2.0	8.0	21.0	0.0	-1.0	4.0	-4.0	0.0	8.0	6.0	1.0	10.0	2.0	8.0	11.0	8.0	7.0	4.0	3.0	5.0
1777	114.259	20.67	-2.67	-2.67	-3.67	2.33	1.33	-2.67	-11.67	-3.67	-1.67	1.33	-3.67	-4.67	-6.67	-7.67	4.33	-8.67	-5.67	8.33	-2.67	-4.67	-7.67	-1.67	-1.67	1.33	-4.67	-7.67
1784	114.729	18.0	4.0	-3.0	5.0	0.0	3.0	2.0	-1.0	-5.0	0.0	4.0	2.0	3.0	-8.0	-7.0	-2.0	7.0	2.0	2.0	1.0	0.0	7.0	0.0	4.0	-1.0	7.0	0.0
1791	115.2	16.67	-5.67	0.33	1.33	2.33	0.33	-1.67	5.33	-0.67	-0.67	1.33	4.33	0.33	-7.67	0.33	-4.67	0.33	6.33	7.33	4.33	6.33	-1.67	-1.67	10.33	5.33	0.33	-2.67
1798	115.671	15.0	-1.0	2.0	2.0	-5.0	-1.0	1.0	2.0	6.0	6.0	11.0	5.0	3.0	9.0	8.0	4.0	5.0	7.0	-2.0	9.0	5.0	0.0	2.0	4.0	8.0	2.0	0.0
1805	116.142	14.67	6.33	9.33	0.33	-0.67	2.33	5.33	5.33	-3.67	4.33	-7.67	4.33	8.33	-3.67	-0.67	2.33	3.33	1.33	-0.67	5.33	-1.67	-3.67	2.33	1.33	5.33	5.33	1.33
1812	116.614	15.0	0.0	2.0	7.0	4.0	1.0	-4.0	4.0	12.0	-5.0	5.0	6.0	1.0	-2.0	-7.0	-4.0	2.0	1.0	-3.0	3.0	-2.0	7.0	-3.0	5.0	0.0	9.0	2.0
1819	117.086	15.0	6.0	-5.0	2.0	10.0	1.0	-2.0	5.0	9.0	6.0	0.0	4.0	5.0	-2.0	-5.0	2.0	-2.0	8.0	-3.0	4.0	2.0	0.0	-1.0	6.0	4.0	7.0	15.0
1826	117.558	15.33	-5.33	0.67	-0.33	3.67	-4.33	1.67	1.67	0.67	-2.33	-0.33	0.67	3.67	8.67	0.67	4.67	11.67	1.67	10.67	-5.33	0.67	4.67	-0.33	1.67	-2.33	10.67	3.67
1833	118.03	12.33	-0.33	5.67	7.67	1.67	-3.33	2.67	-0.33	3.67	1.67	6.67	6.67	6.67	0.67	13.67	1.67	4.67	1.67	-0.33	6.67	0.67	2.67	1.67	-4.33	6.67	1.67	3.67
1840	118.503	16.0	5.0	-5.0	0.0	-3.0	2.0	-1.0	-7.0	-1.0	-2.0	-6.0	1.0	2.0	-3.0	-8.0	2.0	2.0	2.0	-5.0	0.0	-5.0	2.0	6.0	-5.0	1.0	-3.0	2.0
1847	118.976	11.67	3.33	10.33	-2.67	2.33	6.33	3.33	5.33	3.33	8.33	-1.67	8.33	-2.67	2.33	3.33	2.33	7.33	4.33	-0.67	-1.67	4.33	3.33	-3.67	-1.67	3.33	9.33	8.33
1854	119.45	13.33	-0.33	1.67	-2.33	6.67	9.67	7.67	6.67	-1.33	1.67	2.67	2.67	-3.33	5.67	10.67	-2.33	0.67	0.67	3.67	5.67	4.67	8.67	3.67	-4.33	-2.33	8.67	2.67
1861	119.924	14.0	0.0	5.0	-2.0	1.0	-2.0	3.0	-2.0	3.0	3.0	3.0	-6.0	4.0	-1.0	1.0	3.0	-1.0	3.0	2.0	5.0	0.0	3.0	-5.0	-5.0	9.0	-1.0	0.0
1868	120.398	14.0	0.0	0.0	-5.0	-3.0	-4.0	-3.0	2.0	-2.0	-2.0	0.0	-7.0	4.0	-5.0	7.0	5.0	3.0	-3.0	-2.0	-3.0	-1.0	-5.0	4.0	-1.0	2.0	0.0	0.0
1875	120.872	11.0	-2.0	2.0	1.0	9.0	6.0	-5.0	5.0	8.0	3.0	-3.0	6.0	1.0	3.0	5.0	3.0	9.0	2.0	9.0	3.0	4.0	7.0	1.0	3.0	3.0	6.0	2.0
1882	121.347	10.0	1.0	4.0	6.0	2.0	1.0	4.0	0.0	8.0	12.0	8.0	3.0	1.0	3.0	4.0	-3.0	7.0	0.0	6.0	4.0	16.0	-1.0	4.0	5.0	5.0	4.0	4.0
1889	121.822	8.0	6.0	8.0	1.0	12.0	5.0	13.0	7.0	3.0	0.0	11.0	11.0	8.0	2.0	2.0	1.0	9.0	5.0	9.0	3.0	7.0	5.0	5.0	0.0	9.0	3.0	13.0
1896	122.298	12.67	-1.67	7.33	3.33	0.33	2.33	-2.67	16.33	6.33	8.33	6.33	5.33	-5.67	-0.67	3.33	1.33	-2.67	0.33	2.33	6.33	10.33	1.33	4.33	3.33	-4.67	-5.67	-0.67
1903	122.773	9.0	4.0	10.0	14.0	7.0	3.0	8.0	5.0	9.0	10.0	7.0	12.0	7.0	10.0	7.0	1.0	6.0	11.0	11.0	10.0	9.0	5.0	4.0	3.0	6.0	11.0	8.0
1910	123.25	10.0	3.0	12.0	0.0	9.0	-3.0	0.0	14.0	3.0	6.0	5.0	6.0	9.0	7.0	0.0	4.0	5.0	5.0	5.0	0.0	7.0	11.0	-2.0	5.0	7.0	7.0	1.0
1917	123.726	11.0	-5.0	2.0	7.0	3.0	5.0	8.0	4.0	4.0	11.0	1.0	3.0	1.0	-4.0	8.0	-1.0	9.0	9.0	1.0	10.0	-3.0	4.0	2.0	-2.0	6.0	3.0	-3.0
1924	124.203	9.0	2.0	-2.0	11.0	3.0	1.0	9.0	7.0	4.0	17.0	3.0	6.0	12.0	5.0	4.0	12.0	-1.0	8.0	9.0	4.0	8.0	4.0	1.0	4.0	1.0	12.0	6.0
1931	124.68	9.67	-2.67	10.33	1.33	1.33	-5.67	0.33	1.33	0.33	6.33	8.33	1.33	9.33	7.33	-5.67	3.33	2.33	2.33	3.33	7.33	-1.67	-0.67	6.33	1.33	3.33	3.33	2.33
1938	125.158	9.0	-1.0	0.0	-1.0	-2.0	-2.0	-2.0	0.0	1.0	8.0	3.0	11.0	1.0	5.0	1.0	4.0	6.0	3.0	-1.0	3.0	0.0	5.0	-2.0	2.0	1.0	3.0	3.0
1945	125.635	9.33	0.67	2.67	-0.33	6.67	7.67	-0.33	0.67	3.67	5.67	-0.33	8.67	9.67	2.67	2.67	-2.33	5.67	4.67	2.67	0.67	6.67	5.67	8.67	-3.33	4.67	1.67	6.67
1952	126.114	12.67	-8.67	-0.67	-8.67	3.33	3.33	-4.67	-1.67	-4.67	-0.67	-2.67	-3.67	0.33	-2.67	-1.67	0.33	-2.67	0.33	0.33	1.33	-2.67	-2.67	-1.67	1.33	1.33	1.33	-0.67
1959	126.592	11.0	1.0	0.0	0.0	0.0	-1.0	-4.0	4.0	-4.0	-2.0	-1.0	-1.0	-1.0	4.0	5.0	-5.0	5.0	-2.0	3.0	-8.0	0.0	-1.0	-2.0	5.0	0.0	-4.0	2.0
1966	127.071	10.0	1.0	-2.0	0.0	5.0	0.0	3.0	-2.0	0.0	3.0	4.0	4.0	2.0	-6.0	3.0	1.0	-1.0	2.0	1.0	-4.0	9.0	1.0	5.0	7.0	-1.0	5.0	6.0
1973	127.55	12.0	-6.0	-2.0	0.0	0.0	-2.0	-1.0	-3.0	-3.0	-4.0	-6.0	5.0	3.0	-3.0	-3.0	-1.0	-9.0	2.0	0.0	0.0	2.0	-5.0	-2.0	0.0	2.0	5.0	-4.0
1980	128.03	5.33	6.67	2.67	4.67	-0.33	6.67	3.67	3.67	1.67	-4.33	5.67	7.67	11.67	1.67	2.67	2.67	0.67	1.67	1.67	1.67	6.67	4.67	4.67	4.67	5.67	8.67	4.67
1987	128.51	4.33	0.67	6.67	5.67	2.67	5.67	7.67	6.67	7.67	9.67	3.67	5.67	1.67	6.67	3.67	2.67	1.67	7.67	5.67	2.67	8.67	5.67	1.67	7.67	9.67	1.67	6.67
1994	128.99	9.33	3.67	-3.33	-1.33	1.67	0.67	1.67	-1.33	2.67	5.67	1.67	4.67	1.67	0.67	4.67	-2.33	-0.33	-3.33	-0.33	0.67	1.67	-3.33	2.67	-1.33	-1.33	-0.33	3.67
2001	129.471	9.33	-4.33	2.67	-0.33	5.67	-2.33	0.67	3.67	1.67	-1.33	-2.33	-0.33	5.67	4.67	-0.33	3.67	-0.33	2.67	-1.33	-1.33	0.67	-4.33	3.67	-4.33	-1.33	-5.33	5.67
2008	129.952	8.0	0.0	6.0	6.0	3.0	0.0	3.0	0.0	4.0	0.0	2.0	1.0	4.0	2.0	-2.0	-2.0	2.0	-1.0	0.0	0.0	-1.0	1.0	1.0	2.0	10.0	5.0	8.0
2015	130.433	7.33	11.67	0.67	0.67	6.67	-0.33	6.67	1.67	8.67	-2.33	2.67	0.67	2.67	4.67	5.67	4.67	1.67	-0.33	4.67	4.67	5.67	4.67	4.67	4.67	5.67	0.67	-0.33
2022	130.915	7.33	-2.33	1.67	0.67	1.67	-0.33	1.67	6.67	-1.33	7.67	2.67	3.67	3.67	3.67	-1.33	2.67	-4.33	-1.33	7.67	4.67	-0.33	2.67	-0.33	1.67	-0.33	1.67	-2.33
2029	131.397	7.67	3.33	5.33	2.33	-2.67	3.33	2.33	2.33	2.33	1.33	-2.67	3.33	5.33	-2.67	8.33	2.33	2.33	2.33	0.33	8.33	6.33	0.33	1.33	0.33	5.33	2.33	4.33
2036	131.879	11.67	-2.67	-4.67	-2.67	-3.67	-1.67	-2.67	-1.67	-3.67	-5.67	-6.67	-4.67	-4.67	-0.67	-4.67	0.33	0.33	-2.67	-4.67	-1.67	-6.67	-2.67	1.33	-2.67	-0.67	-3.67	-2.67
2043	132.362	7.0	4.0	-2.0	0.0	-2.0	-1.0	7.0	1.0	6.0	-1.0	-3.0	5.0	6.0	0.0	0.0	-3.0	1.0	6.0	5.0	5.0	2.0	4.0	1.0	8.0	-1.0	3.0	2.0
2047	132.638	11.67	-6.67	-7.67	-2.67	-3.67	-2.67	-2.67	1.33	-4.67	-1.67	-1.67	-3.67	-4.67	-3.67	-5.67	-0.67	-5.67	-8.67	-4.67	-4.67	-4.67	-3.67	-5.67	0.33	0.33	-6.67	-1.67