File: EDX Back Ups and Old Files/EDX Processed Data/High pH SF 60C 2d.txt
Name: High pH SF 60C 2d
Number of Scans: 29
Positions: [-13.0, -12.75, -12.5, -12.25, -12.0, -11.75, -11.5, -11.25, -11.0, -10.75, -10.5, -10.25, -10.0, -9.75, -9.5, -9.25, -9.0, -8.75, -8.5, -8.25, -8.0, -7.75, -7.5, -7.25, -7.0, -6.75, -6.5, -6.25, -6.0]
Points per Scan: 2048
Sample Edge: 3
Scans Off Sample: [0, 1, 2]
Conversion Features: [(275, 17444.3), (309, 19608.3), (913, 57981.7), (934, 59318.24), (1058, 67244.3)]
Degree of Fit: 3
Fit Coeffecients: [ 8.59183e-07 -0.001482  64.3003 -144.207]
pH: High
Steel Fiber: True
Aging Temp.: 60
Aging Atm.: 100% CO2
Aging Humidity: None
Aging Time: 2

*********
#Bins	Energy [keV]	Avg. Background	-12.25	-12.0	-11.75	-11.5	-11.25	-11.0	-10.75	-10.5	-10.25	-10.0	-9.75	-9.5	-9.25	-9.0	-8.75	-8.5	-8.25	-8.0	-7.75	-7.5	-7.25	-7.0	-6.75	-6.5	-6.25	-6.0
6	0.242	1818.33	35.67	-13.33	53.67	55.67	116.67	94.67	122.67	51.67	122.67	27.67	61.67	43.67	10.67	7.67	57.67	30.67	49.67	-0.33	25.67	122.67	74.67	77.67	48.67	103.67	89.67	55.67
13	0.691	1314.33	-32.33	-10.33	-44.33	-70.33	-84.33	-96.33	-54.33	-52.33	2.67	34.67	-91.33	-45.33	-74.33	-63.33	29.67	-20.33	-23.33	-92.33	-44.33	-26.33	-26.33	-64.33	-102.33	-113.33	-129.33	-28.33
20	1.141	323.67	6.33	7.33	0.33	29.33	27.33	-10.67	9.33	-5.67	4.33	5.33	15.33	-39.67	22.33	-7.67	29.33	-10.67	9.33	-0.67	16.33	-2.67	-25.67	17.33	-23.67	-3.67	-23.67	8.33
27	1.591	49.0	8.0	-1.0	-10.0	13.0	1.0	-1.0	10.0	10.0	2.0	15.0	3.0	-1.0	1.0	7.0	11.0	2.0	-7.0	2.0	5.0	11.0	0.0	7.0	5.0	9.0	22.0	13.0
34	2.04	6.33	-1.33	-1.33	1.67	2.67	3.67	0.67	1.67	-1.33	-0.33	2.67	0.67	5.67	-1.33	-1.33	-0.33	5.67	0.67	3.67	0.67	-0.33	1.67	-5.33	0.67	2.67	3.67	-0.33
41	2.49	1.0	1.0	1.0	1.0	0.0	0.0	-1.0	-1.0	0.0	-1.0	-1.0	0.0	-1.0	1.0	0.0	0.0	-1.0	2.0	0.0	-1.0	2.0	0.0	0.0	-1.0	-1.0	0.0	0.0
48	2.939	1.0	-1.0	0.0	-1.0	0.0	1.0	0.0	-1.0	1.0	-1.0	0.0	-1.0	-1.0	-1.0	-1.0	-1.0	-1.0	-1.0	-1.0	-1.0	1.0	-1.0	0.0	-1.0	1.0	-1.0	-1.0
55	3.388	0.67	-0.67	0.33	-0.67	1.33	0.33	0.33	-0.67	-0.67	-0.67	-0.67	-0.67	-0.67	-0.67	-0.67	0.33	-0.67	-0.67	0.33	-0.67	-0.67	-0.67	-0.67	0.33	-0.67	-0.67	-0.67
62	3.837	0.33	-0.33	-0.33	-0.33	-0.33	-0.33	-0.33	-0.33	-0.33	-0.33	1.67	-0.33	0.67	-0.33	-0.33	0.67	-0.33	1.67	0.67	1.67	-0.33	0.67	-0.33	-0.33	0.67	-0.33	0.67
69	4.286	0.0	0.0	0.0	0.0	0.0	1.0	0.0	0.0	0.0	1.0	0.0	0.0	0.0	0.0	0.0	0.0	1.0	0.0	3.0	1.0	0.0	0.0	0.0	0.0	0.0	0.0	0.0
76	4.734	0.33	1.67	-0.33	0.67	-0.33	1.67	-0.33	-0.33	0.67	-0.33	0.67	1.67	-0.33	-0.33	-0.33	0.67	-0.33	1.67	-0.33	0.67	-0.33	-0.33	0.67	-0.33	-0.33	-0.33	-0.33
83	5.183	0.67	0.33	-0.67	0.33	-0.67	0.33	0.33	0.33	-0.67	-0.67	-0.67	0.33	0.33	-0.67	1.33	-0.67	-0.67	0.33	-0.67	1.33	-0.67	0.33	0.33	-0.67	0.33	-0.67	0.33
90	5.631	0.33	0.67	-0.33	1.67	0.67	-0.33	0.67	-0.33	1.67	0.67	-0.33	-0.33	-0.33	-0.33	0.67	-0.33	-0.33	-0.33	-0.33	0.67	0.67	-0.33	-0.33	-0.33	-0.33	0.67	0.67
97	6.08	1.0	0.0	1.0	0.0	1.0	-1.0	0.0	1.0	-1.0	-1.0	0.0	0.0	0.0	0.0	-1.0	2.0	-1.0	1.0	-1.0	1.0	0.0	-1.0	-1.0	-1.0	0.0	1.0	-1.0
104	6.528	1.33	-1.33	0.67	-1.33	0.67	0.67	0.67	-1.33	-1.33	-0.33	-1.33	0.67	-1.33	-0.33	-0.33	0.67	0.67	0.67	0.67	-0.33	2.67	0.67	0.67	-0.33	1.67	1.67	1.67
111	6.976	1.67	0.33	-0.67	-0.67	0.33	1.33	1.33	3.33	1.33	1.33	2.33	4.33	-1.67	1.33	1.33	1.33	-0.67	3.33	0.33	0.33	-0.67	0.33	-0.67	1.33	2.33	0.33	4.33
118	7.424	3.0	3.0	2.0	-2.0	0.0	-2.0	0.0	-1.0	0.0	-1.0	-2.0	0.0	0.0	0.0	0.0	4.0	0.0	3.0	6.0	2.0	1.0	-2.0	2.0	6.0	-1.0	4.0	-1.0
125	7.872	6.0	-4.0	1.0	-1.0	-2.0	2.0	2.0	0.0	1.0	3.0	-1.0	-1.0	1.0	3.0	3.0	-4.0	-3.0	2.0	-3.0	-2.0	-1.0	-5.0	5.0	3.0	-1.0	0.0	1.0
132	8.32	10.0	-1.0	-6.0	-1.0	-3.0	-3.0	1.0	-4.0	-3.0	-3.0	-5.0	-9.0	-2.0	2.0	-5.0	-8.0	-4.0	-2.0	-2.0	5.0	-4.0	0.0	-2.0	-5.0	-1.0	0.0	-2.0
139	8.767	9.33	-3.33	-1.33	-3.33	-2.33	0.67	-1.33	1.67	-2.33	-2.33	-3.33	-4.33	-3.33	-0.33	-3.33	-0.33	2.67	1.67	1.67	-5.33	4.67	3.67	2.67	2.67	1.67	4.67	3.67
146	9.215	6.33	-3.33	0.67	2.67	6.67	8.67	5.67	2.67	3.67	6.67	3.67	2.67	1.67	1.67	-1.33	2.67	13.67	2.67	1.67	2.67	4.67	7.67	4.67	4.67	4.67	11.67	9.67
153	9.662	10.0	5.0	-2.0	0.0	3.0	2.0	-1.0	-1.0	2.0	2.0	0.0	-1.0	-3.0	-3.0	7.0	0.0	1.0	-2.0	-3.0	4.0	2.0	5.0	5.0	-2.0	0.0	0.0	6.0
160	10.109	9.33	-2.33	2.67	6.67	-1.33	1.67	4.67	2.67	7.67	6.67	4.67	-1.33	8.67	1.67	2.67	9.67	2.67	2.67	2.67	1.67	5.67	-0.33	0.67	4.67	3.67	-2.33	5.67
167	10.557	10.67	1.33	-2.67	-3.67	-0.67	-6.67	2.33	-2.67	1.33	2.33	3.33	-1.67	0.33	5.33	3.33	0.33	8.33	-0.67	-3.67	3.33	1.33	0.33	-2.67	5.33	3.33	4.33	3.33
174	11.004	9.67	4.33	-2.67	-0.67	-7.67	0.33	-2.67	0.33	3.33	5.33	4.33	3.33	6.33	1.33	6.33	0.33	0.33	1.33	6.33	1.33	-2.67	3.33	11.33	12.33	6.33	4.33	4.33
181	11.451	12.0	2.0	-3.0	-1.0	2.0	4.0	3.0	3.0	2.0	-3.0	6.0	-2.0	-3.0	0.0	-1.0	8.0	3.0	7.0	-1.0	1.0	-3.0	3.0	0.0	-5.0	6.0	-3.0	-5.0
188	11.898	8.67	-3.67	0.33	4.33	1.33	5.33	3.33	2.33	1.33	4.33	10.33	1.33	3.33	0.33	8.33	1.33	4.33	6.33	0.33	3.33	5.33	-0.67	0.33	0.33	-0.67	3.33	6.33
195	12.344	9.33	-1.33	-1.33	1.67	5.67	1.67	-3.33	4.67	3.67	6.67	-0.33	3.67	3.67	10.67	-4.33	5.67	1.67	4.67	6.67	3.67	3.67	8.67	0.67	-0.33	9.67	7.67	4.67
202	12.791	14.0	-6.0	3.0	3.0	0.0	-6.0	2.0	-3.0	-2.0	-4.0	-5.0	-2.0	-7.0	-5.0	0.0	-2.0	1.0	-2.0	-2.0	-7.0	-2.0	5.0	-1.0	-3.0	2.0	-2.0	-6.0
209	13.238	12.0	-3.0	-5.0	-1.0	-4.0	-1.0	-3.0	-1.0	1.0	1.0	1.0	4.0	6.0	9.0	6.0	0.0	-4.0	-2.0	1.0	-2.0	-2.0	0.0	4.0	-2.0	1.0	5.0	6.0
216	13.684	11.67	-3.67	-3.67	-1.67	3.33	0.33	5.33	10.33	-2.67	6.33	1.33	-0.67	1.33	-5.67	3.33	-1.67	5.33	7.33	3.33	-6.67	-0.67	0.33	5.33	9.33	2.33	6.33	3.33
223	14.131	8.67	2.33	6.33	-1.67	4.33	8.33	1.33	11.33	4.33	0.33	2.33	2.33	2.33	6.33	-1.67	1.33	3.33	4.33	13.33	4.33	8.33	9.33	0.33	4.33	-0.67	2.33	7.33
230	14.577	8.67	2.33	4.33	-0.67	-4.67	6.33	0.33	1.33	3.33	3.33	3.33	4.33	2.33	5.33	1.33	5.33	8.33	0.33	2.33	9.33	5.33	2.33	7.33	9.33	4.33	7.33	4.33
237	15.023	12.0	0.0	-4.0	-4.0	2.0	-2.0	0.0	1.0	-3.0	0.0	2.0	3.0	8.0	3.0	-1.0	4.0	2.0	0.0	4.0	0.0	-1.0	-4.0	3.0	3.0	-3.0	-4.0	3.0
244	15.469	12.67	-4.67	3.33	-1.67	-2.67	2.33	-2.67	2.33	-6.67	0.33	-2.67	1.33	-2.67	-5.67	2.33	-1.67	-6.67	-8.67	0.33	3.33	2.33	2.33	1.33	-1.67	-3.67	4.33	6.33
251	15.915	10.0	3.0	-1.0	12.0	-4.0	-6.0	-3.0	2.0	-6.0	2.0	4.0	-3.0	1.0	4.0	-3.0	-1.0	-3.0	-3.0	-1.0	0.0	7.0	3.0	3.0	6.0	4.0	5.0	2.0
258	16.361	8.67	5.33	2.33	6.33	6.33	5.33	7.33	9.33	4.33	0.33	3.33	8.33	1.33	-0.67	3.33	0.33	0.33	-1.67	1.33	0.33	9.33	2.33	2.33	0.33	11.33	5.33	-0.67
265	16.807	9.67	-2.67	-0.67	2.33	7.33	0.33	-1.67	-1.67	3.33	6.33	4.33	8.33	5.33	4.33	-0.67	3.33	6.33	2.33	6.33	-1.67	2.33	2.33	-2.67	3.33	4.33	1.33	-1.67
272	17.253	10.67	-1.67	-1.67	1.33	0.33	-0.67	-4.67	1.33	-1.67	1.33	6.33	1.33	-0.67	-0.67	1.33	3.33	4.33	-0.67	-1.67	5.33	2.33	0.33	2.33	-1.67	4.33	-0.67	6.33
279	17.699	10.0	2.0	5.0	1.0	0.0	4.0	8.0	2.0	0.0	-3.0	4.0	2.0	1.0	4.0	1.0	0.0	0.0	3.0	0.0	-6.0	6.0	1.0	7.0	0.0	-2.0	2.0	1.0
286	18.145	10.67	-1.67	1.33	0.33	-2.67	6.33	16.33	1.33	-0.67	3.33	1.33	5.33	4.33	0.33	-0.67	-0.67	-1.67	6.33	2.33	2.33	1.33	0.33	12.33	-1.67	-0.67	6.33	3.33
293	18.59	11.33	-1.33	-2.33	6.67	4.67	-1.33	-0.33	1.67	6.67	0.67	-1.33	0.67	-1.33	-2.33	3.67	0.67	6.67	4.67	-2.33	-1.33	1.67	2.67	10.67	6.67	0.67	-1.33	-1.33
300	19.036	10.0	-2.0	4.0	-1.0	9.0	4.0	1.0	1.0	-1.0	8.0	2.0	12.0	-5.0	0.0	2.0	3.0	3.0	6.0	3.0	4.0	3.0	6.0	1.0	1.0	3.0	1.0	1.0
307	19.481	10.33	-2.33	4.67	7.67	4.67	-0.33	-2.33	0.67	-0.33	-2.33	1.67	3.67	5.67	-3.33	8.67	4.67	-2.33	4.67	4.67	-4.33	-2.33	2.67	9.67	6.67	1.67	6.67	4.67
314	19.927	10.0	-4.0	-1.0	-3.0	1.0	-2.0	-1.0	-3.0	7.0	-3.0	5.0	4.0	-6.0	1.0	-2.0	6.0	4.0	0.0	3.0	1.0	5.0	3.0	1.0	3.0	-1.0	2.0	5.0
321	20.372	9.0	3.0	4.0	1.0	2.0	5.0	0.0	3.0	2.0	7.0	0.0	2.0	-4.0	2.0	14.0	2.0	4.0	6.0	6.0	-2.0	0.0	2.0	-1.0	6.0	8.0	4.0	3.0
328	20.817	10.0	-4.0	1.0	2.0	2.0	-1.0	5.0	-1.0	1.0	-3.0	0.0	-6.0	4.0	0.0	-1.0	0.0	3.0	0.0	15.0	6.0	1.0	4.0	4.0	4.0	3.0	-1.0	6.0
335	21.262	7.67	1.33	-0.67	2.33	0.33	-0.67	4.33	7.33	4.33	1.33	4.33	1.33	4.33	1.33	-0.67	0.33	1.33	6.33	5.33	2.33	3.33	1.33	1.33	5.33	6.33	5.33	0.33
342	21.708	9.33	-2.33	5.67	3.67	0.67	-1.33	6.67	-2.33	-0.33	-1.33	-0.33	-3.33	-3.33	7.67	9.67	4.67	-2.33	0.67	-5.33	2.67	0.67	4.67	1.67	-0.33	0.67	-0.33	2.67
349	22.153	9.0	0.0	1.0	2.0	0.0	-2.0	4.0	4.0	-1.0	2.0	2.0	3.0	12.0	2.0	4.0	-2.0	0.0	1.0	-1.0	0.0	5.0	8.0	-1.0	8.0	4.0	4.0	3.0
356	22.598	10.0	1.0	-6.0	-5.0	6.0	2.0	2.0	2.0	0.0	7.0	8.0	5.0	2.0	-1.0	-3.0	-3.0	0.0	0.0	2.0	-2.0	-4.0	-3.0	1.0	-2.0	1.0	5.0	-1.0
363	23.043	10.0	-7.0	-4.0	1.0	2.0	5.0	4.0	-2.0	-2.0	-1.0	2.0	5.0	11.0	2.0	-5.0	1.0	-3.0	5.0	10.0	7.0	4.0	1.0	0.0	6.0	-1.0	1.0	7.0
370	23.488	7.33	7.67	0.67	0.67	1.67	4.67	-0.33	1.67	3.67	4.67	-0.33	3.67	4.67	1.67	-1.33	-1.33	0.67	1.67	11.67	2.67	3.67	12.67	1.67	1.67	-0.33	4.67	4.67
377	23.932	4.33	4.67	7.67	7.67	6.67	4.67	-0.33	6.67	9.67	11.67	7.67	3.67	4.67	10.67	9.67	9.67	5.67	4.67	4.67	5.67	10.67	15.67	5.67	6.67	3.67	8.67	1.67
384	24.377	13.67	-10.67	-6.67	-2.67	-5.67	-3.67	0.33	-1.67	-5.67	-4.67	-5.67	-3.67	-2.67	-6.67	-0.67	-7.67	0.33	2.33	-4.67	-5.67	-5.67	-1.67	1.33	-11.67	-2.67	-8.67	-2.67
391	24.822	10.67	-2.67	0.33	-3.67	2.33	0.33	3.33	0.33	-0.67	-1.67	2.33	-1.67	0.33	-2.67	4.33	-4.67	-1.67	2.33	-3.67	-2.67	1.33	-4.67	2.33	-1.67	0.33	-3.67	-6.67
398	25.267	8.0	0.0	-1.0	4.0	1.0	1.0	7.0	2.0	9.0	0.0	-1.0	-2.0	-5.0	0.0	-3.0	6.0	3.0	1.0	7.0	2.0	2.0	-1.0	3.0	1.0	8.0	4.0	5.0
405	25.711	6.0	0.0	-2.0	3.0	2.0	4.0	1.0	6.0	6.0	2.0	7.0	6.0	-1.0	2.0	3.0	10.0	7.0	3.0	0.0	0.0	8.0	9.0	6.0	9.0	1.0	5.0	8.0
412	26.156	6.33	3.67	2.67	0.67	-2.33	1.67	1.67	5.67	2.67	10.67	3.67	1.67	0.67	6.67	0.67	0.67	11.67	-3.33	3.67	2.67	5.67	2.67	5.67	0.67	6.67	9.67	0.67
419	26.601	6.33	4.67	6.67	2.67	10.67	1.67	2.67	1.67	9.67	-3.33	7.67	6.67	-1.33	3.67	-1.33	3.67	9.67	6.67	5.67	0.67	4.67	9.67	5.67	-1.33	13.67	5.67	1.67
426	27.045	9.33	1.67	-3.33	-3.33	-2.33	4.67	2.67	-0.33	-2.33	-3.33	-6.33	-0.33	0.67	-3.33	-0.33	-1.33	-1.33	1.67	-0.33	-0.33	7.67	-1.33	-3.33	0.67	0.67	3.67	-2.33
433	27.49	6.0	0.0	3.0	-1.0	2.0	6.0	-2.0	4.0	-3.0	-2.0	3.0	2.0	-3.0	-1.0	4.0	1.0	1.0	8.0	5.0	0.0	2.0	1.0	3.0	12.0	0.0	4.0	5.0
440	27.934	8.0	0.0	3.0	0.0	-2.0	0.0	-4.0	1.0	0.0	-5.0	1.0	2.0	2.0	-3.0	-3.0	2.0	5.0	0.0	3.0	2.0	-1.0	4.0	3.0	-2.0	3.0	5.0	4.0
447	28.379	10.33	0.67	-1.33	-0.33	0.67	-0.33	0.67	-5.33	-4.33	-3.33	-7.33	-4.33	-7.33	-6.33	-4.33	-2.33	-7.33	-0.33	0.67	-1.33	-1.33	1.67	-3.33	-2.33	-0.33	-2.33	0.67
454	28.823	5.33	3.67	5.67	-0.33	2.67	0.67	5.67	3.67	2.67	6.67	-0.33	3.67	2.67	2.67	4.67	9.67	2.67	2.67	2.67	1.67	-0.33	4.67	5.67	-0.33	1.67	2.67	6.67
461	29.267	8.0	-1.0	-4.0	-2.0	-4.0	-2.0	1.0	-2.0	-4.0	-2.0	-3.0	0.0	0.0	5.0	1.0	1.0	-4.0	-2.0	-1.0	3.0	-4.0	-4.0	-2.0	2.0	-3.0	2.0	0.0
468	29.712	5.0	1.0	5.0	4.0	2.0	-1.0	8.0	-2.0	1.0	0.0	0.0	7.0	1.0	4.0	-2.0	4.0	-1.0	5.0	1.0	-2.0	2.0	0.0	3.0	6.0	9.0	3.0	10.0
475	30.156	5.33	0.67	2.67	1.67	0.67	-1.33	3.67	-0.33	0.67	2.67	0.67	3.67	-0.33	2.67	-1.33	-0.33	6.67	1.67	4.67	2.67	4.67	3.67	9.67	10.67	-0.33	8.67	-1.33
482	30.6	4.0	-1.0	1.0	4.0	1.0	11.0	1.0	3.0	-2.0	4.0	1.0	3.0	1.0	0.0	3.0	7.0	1.0	2.0	4.0	3.0	4.0	7.0	3.0	3.0	3.0	7.0	0.0
489	31.045	6.0	3.0	-3.0	5.0	-2.0	8.0	-2.0	0.0	-2.0	1.0	3.0	11.0	4.0	-1.0	-1.0	1.0	2.0	-1.0	-2.0	2.0	0.0	-2.0	3.0	5.0	-1.0	3.0	-4.0
496	31.489	6.0	5.0	1.0	1.0	2.0	-2.0	-1.0	2.0	-1.0	2.0	1.0	1.0	1.0	-1.0	-3.0	2.0	1.0	2.0	3.0	1.0	3.0	0.0	5.0	5.0	3.0	1.0	-4.0
503	31.933	7.67	-4.67	-2.67	-0.67	0.33	1.33	1.33	-3.67	-0.67	-2.67	2.33	-2.67	-2.67	-3.67	-2.67	2.33	2.33	-2.67	0.33	0.33	4.33	0.33	-2.67	1.33	1.33	-0.67	-1.67
510	32.377	5.33	3.67	-2.33	2.67	2.67	6.67	-1.33	1.67	-0.33	0.67	0.67	0.67	-1.33	0.67	3.67	0.67	1.67	-0.33	2.67	4.67	7.67	0.67	-1.33	3.67	2.67	0.67	5.67
517	32.822	4.67	-1.67	0.33	-1.67	-0.67	3.33	2.33	-0.67	2.33	-1.67	1.33	1.33	4.33	1.33	-2.67	0.33	1.33	1.33	4.33	1.33	7.33	4.33	2.33	1.33	6.33	4.33	5.33
524	33.266	6.33	0.67	-1.33	-4.33	-0.33	-0.33	1.67	1.67	-0.33	0.67	0.67	5.67	-4.33	-1.33	2.67	-2.33	0.67	5.67	1.67	-3.33	-1.33	-2.33	-1.33	3.67	-0.33	-0.33	-0.33
531	33.71	5.67	2.33	0.33	-0.67	1.33	-1.67	0.33	-0.67	1.33	0.33	3.33	5.33	0.33	4.33	2.33	-0.67	-4.67	-1.67	2.33	-2.67	-2.67	6.33	2.33	2.33	-3.67	6.33	-0.67
538	34.154	5.67	1.33	0.33	0.33	0.33	-1.67	1.33	0.33	3.33	-0.67	0.33	0.33	-0.67	-1.67	-1.67	-0.67	-0.67	1.33	1.33	0.33	-0.67	1.33	-0.67	0.33	2.33	-1.67	-1.67
545	34.598	4.0	4.0	0.0	0.0	-1.0	3.0	0.0	0.0	0.0	3.0	4.0	3.0	2.0	2.0	2.0	5.0	-3.0	1.0	8.0	3.0	3.0	0.0	0.0	1.0	2.0	3.0	1.0
552	35.043	5.33	1.67	-0.33	-3.33	-1.33	2.67	0.67	0.67	-2.33	2.67	-2.33	-0.33	0.67	2.67	0.67	-0.33	5.67	-1.33	-1.33	4.67	0.67	1.67	-4.33	-2.33	-2.33	4.67	2.67
559	35.487	3.33	3.67	2.67	3.67	1.67	6.67	0.67	0.67	0.67	3.67	5.67	2.67	5.67	2.67	2.67	-1.33	3.67	0.67	5.67	-0.33	0.67	1.67	1.67	2.67	-0.33	7.67	1.67
566	35.931	8.67	-4.67	-5.67	-2.67	0.33	-1.67	4.33	-1.67	-2.67	-5.67	-2.67	-1.67	-3.67	-5.67	-4.67	-0.67	-5.67	-0.67	-5.67	-3.67	-2.67	-4.67	1.33	-0.67	-3.67	0.33	-2.67
573	36.375	4.0	1.0	3.0	3.0	-2.0	1.0	2.0	5.0	5.0	-2.0	0.0	3.0	2.0	4.0	3.0	2.0	4.0	4.0	0.0	7.0	0.0	0.0	3.0	1.0	-2.0	5.0	2.0
580	36.819	5.0	0.0	-1.0	4.0	-1.0	-1.0	2.0	1.0	0.0	1.0	-3.0	-3.0	-2.0	-1.0	3.0	-1.0	1.0	-3.0	6.0	0.0	-1.0	-2.0	3.0	-1.0	-1.0	1.0	1.0
587	37.263	5.0	-3.0	0.0	1.0	-1.0	1.0	-1.0	-2.0	-3.0	-2.0	3.0	3.0	2.0	0.0	-2.0	1.0	-1.0	1.0	0.0	0.0	0.0	0.0	-4.0	0.0	-1.0	2.0	3.0
594	37.707	5.67	2.33	-0.67	-1.67	5.33	0.33	-3.67	-1.67	1.33	-0.67	0.33	0.33	-2.67	-2.67	-0.67	-2.67	2.33	-0.67	-2.67	2.33	-0.67	5.33	-0.67	0.33	-1.67	-1.67	2.33
601	38.152	5.0	-1.0	3.0	-1.0	0.0	1.0	3.0	-2.0	2.0	3.0	0.0	-3.0	1.0	0.0	1.0	0.0	-3.0	2.0	0.0	2.0	2.0	2.0	-1.0	2.0	-2.0	4.0	2.0
608	38.596	5.0	2.0	-2.0	-1.0	0.0	0.0	2.0	1.0	0.0	-2.0	4.0	0.0	0.0	-2.0	2.0	0.0	2.0	1.0	2.0	-2.0	0.0	-4.0	-3.0	0.0	-2.0	5.0	1.0
615	39.04	7.0	-3.0	1.0	1.0	-4.0	-4.0	-5.0	3.0	-5.0	1.0	-2.0	0.0	1.0	-3.0	-1.0	0.0	0.0	0.0	3.0	2.0	-2.0	-4.0	3.0	5.0	-3.0	-1.0	1.0
622	39.484	4.33	3.67	1.67	-1.33	0.67	-1.33	3.67	-0.33	-3.33	0.67	2.67	0.67	1.67	1.67	1.67	4.67	1.67	-1.33	1.67	2.67	0.67	-1.33	0.67	4.67	0.67	4.67	3.67
629	39.928	5.67	2.33	-3.67	-2.67	2.33	2.33	0.33	2.33	-2.67	-0.67	1.33	2.33	2.33	1.33	-0.67	4.33	1.33	0.33	-0.67	-1.67	0.33	-0.67	-1.67	-0.67	3.33	-2.67	-0.67
636	40.372	5.67	0.33	4.33	-1.67	-0.67	-0.67	-1.67	6.33	1.33	1.33	-3.67	-3.67	0.33	-1.67	1.33	0.33	-3.67	-0.67	-1.67	-0.67	-0.67	-1.67	-3.67	-2.67	-1.67	3.33	-2.67
643	40.817	6.67	-3.67	-1.67	-2.67	1.33	-2.67	-0.67	-1.67	0.33	1.33	0.33	-1.67	-3.67	-3.67	0.33	5.33	0.33	-5.67	-3.67	-3.67	0.33	2.33	2.33	1.33	-3.67	2.33	0.33
650	41.261	8.0	-4.0	-4.0	-5.0	-5.0	-1.0	-2.0	4.0	-1.0	-5.0	-6.0	-4.0	-2.0	4.0	-2.0	-2.0	2.0	-5.0	-2.0	-2.0	-1.0	0.0	-2.0	-1.0	1.0	-5.0	4.0
657	41.705	7.33	-1.33	0.67	-2.33	-1.33	-5.33	-2.33	-1.33	-1.33	-3.33	-1.33	-0.33	-1.33	-1.33	-3.33	1.67	-0.33	-4.33	-4.33	2.67	-1.33	-1.33	-2.33	-4.33	-1.33	-0.33	-3.33
664	42.149	5.33	-0.33	-0.33	-2.33	1.67	-1.33	-1.33	-3.33	-2.33	2.67	-3.33	-0.33	-2.33	-4.33	-0.33	0.67	1.67	0.67	-0.33	0.67	4.67	1.67	2.67	2.67	0.67	4.67	0.67
671	42.594	5.0	-2.0	1.0	0.0	5.0	-2.0	5.0	-2.0	5.0	4.0	0.0	0.0	1.0	3.0	6.0	0.0	-1.0	1.0	5.0	4.0	-1.0	-1.0	1.0	1.0	-1.0	0.0	2.0
678	43.038	7.67	1.33	-0.67	-6.67	-0.67	-1.67	1.33	0.33	-3.67	-1.67	-4.67	-0.67	0.33	-2.67	2.33	3.33	0.33	0.33	-2.67	2.33	-5.67	-3.67	-2.67	-3.67	-4.67	-3.67	-1.67
685	43.482	9.0	4.0	-7.0	-4.0	-1.0	-1.0	-9.0	-1.0	-5.0	-4.0	-4.0	-2.0	-2.0	-3.0	-2.0	-2.0	-5.0	-4.0	0.0	-3.0	-6.0	1.0	-6.0	-5.0	-2.0	-1.0	-4.0
692	43.927	9.0	-1.0	0.0	-3.0	-6.0	-3.0	-5.0	-7.0	-2.0	-6.0	-4.0	-6.0	-3.0	-4.0	-5.0	-6.0	-3.0	-5.0	-1.0	1.0	1.0	-3.0	3.0	-5.0	-1.0	-5.0	-3.0
699	44.371	11.67	0.33	-2.67	-5.67	-1.67	-4.67	-2.67	-2.67	-8.67	-6.67	-6.67	-3.67	-5.67	-1.67	-4.67	-4.67	-3.67	-2.67	-2.67	-3.67	-4.67	-1.67	-6.67	-0.67	-0.67	-3.67	-5.67
706	44.815	8.0	6.0	-3.0	0.0	-1.0	-3.0	-1.0	3.0	-1.0	-1.0	-1.0	-4.0	-4.0	-4.0	3.0	-5.0	-2.0	1.0	-4.0	-3.0	-1.0	-3.0	-3.0	-2.0	0.0	0.0	1.0
713	45.26	7.0	0.0	-2.0	-4.0	5.0	-1.0	0.0	3.0	3.0	-4.0	0.0	3.0	-2.0	-4.0	3.0	0.0	2.0	0.0	0.0	2.0	0.0	5.0	0.0	3.0	-4.0	-2.0	1.0
720	45.704	9.33	-3.33	-3.33	-7.33	-2.33	-4.33	-0.33	-1.33	1.67	-0.33	-4.33	5.67	0.67	-2.33	2.67	-5.33	0.67	-0.33	0.67	2.67	-4.33	-3.33	0.67	-3.33	0.67	-2.33	4.67
727	46.149	9.0	1.0	4.0	4.0	-3.0	-2.0	-3.0	-2.0	-1.0	5.0	-5.0	-2.0	-5.0	-6.0	0.0	4.0	3.0	-2.0	2.0	-2.0	-1.0	-4.0	-5.0	-4.0	0.0	1.0	-3.0
734	46.594	9.33	0.67	-1.33	0.67	-5.33	-3.33	1.67	1.67	4.67	-2.33	4.67	3.67	-3.33	-3.33	-4.33	-0.33	-2.33	-0.33	2.67	-0.33	2.67	-6.33	-4.33	-3.33	-3.33	2.67	-2.33
741	47.038	10.33	-3.33	-0.33	-2.33	-3.33	-3.33	-2.33	-1.33	0.67	-3.33	1.67	-0.33	-1.33	-0.33	-6.33	-5.33	-2.33	-3.33	-2.33	-4.33	-6.33	-1.33	-2.33	-0.33	-6.33	-5.33	-5.33
748	47.483	6.67	5.33	7.33	5.33	6.33	1.33	1.33	1.33	-0.67	-1.67	1.33	1.33	2.33	-1.67	2.33	-1.67	1.33	1.33	-0.67	0.33	0.33	-4.67	2.33	2.33	5.33	-2.67	5.33
755	47.928	12.33	0.67	-4.33	-8.33	-6.33	-4.33	-0.33	-4.33	-7.33	-9.33	-8.33	-6.33	-8.33	-2.33	4.67	-9.33	-9.33	-3.33	-6.33	-5.33	-4.33	-4.33	-4.33	-3.33	0.67	-4.33	-5.33
762	48.372	8.67	3.33	1.33	-3.67	2.33	-3.67	0.33	-2.67	-3.67	1.33	2.33	3.33	6.33	-0.67	1.33	-0.67	2.33	-1.67	-6.67	4.33	-5.67	-1.67	-2.67	-1.67	-1.67	2.33	-0.67
769	48.817	10.67	-1.67	-2.67	-0.67	3.33	-0.67	-7.67	-3.67	-0.67	-5.67	0.33	-4.67	-0.67	-1.67	2.33	-0.67	-1.67	0.33	6.33	-0.67	-2.67	3.33	-2.67	-3.67	-4.67	-4.67	0.33
776	49.262	9.0	4.0	0.0	2.0	-3.0	4.0	-1.0	-1.0	1.0	3.0	0.0	-2.0	-3.0	-3.0	5.0	1.0	7.0	1.0	-2.0	2.0	3.0	6.0	0.0	3.0	-1.0	0.0	1.0
783	49.707	12.33	-5.33	-4.33	-8.33	-3.33	-5.33	1.67	-3.33	-4.33	-0.33	-0.33	-5.33	-2.33	2.67	-3.33	-6.33	-1.33	-1.33	4.67	4.67	1.67	-1.33	-2.33	-3.33	0.67	-1.33	-2.33
790	50.152	13.67	-6.67	-0.67	-6.67	-2.67	2.33	-3.67	-8.67	4.33	1.33	5.33	3.33	-3.67	-2.67	-1.67	-1.67	-0.67	-7.67	-9.67	-4.67	-1.67	-6.67	9.33	-6.67	-1.67	1.33	-6.67
797	50.597	12.33	0.67	-0.33	-7.33	-8.33	3.67	-1.33	8.67	-2.33	4.67	7.67	-2.33	8.67	3.67	5.67	2.67	-0.33	3.67	-3.33	-3.33	6.67	4.67	7.67	-0.33	1.67	2.67	1.67
804	51.042	15.33	-1.33	-4.33	-6.33	-6.33	-4.33	0.67	16.67	19.67	21.67	21.67	16.67	23.67	17.67	13.67	8.67	12.67	4.67	10.67	1.67	14.67	9.67	3.67	7.67	2.67	9.67	-0.33
811	51.487	10.67	7.33	0.33	0.33	-4.67	2.33	8.33	28.33	43.33	39.33	27.33	36.33	40.33	34.33	29.33	28.33	21.33	30.33	28.33	20.33	23.33	27.33	27.33	21.33	20.33	17.33	22.33
818	51.932	15.33	3.67	-0.33	0.67	0.67	0.67	10.67	28.67	18.67	36.67	21.67	14.67	32.67	16.67	16.67	18.67	8.67	17.67	14.67	21.67	8.67	15.67	3.67	23.67	9.67	13.67	13.67
825	52.377	10.67	1.33	-1.67	-0.67	-2.67	-1.67	4.33	10.33	7.33	9.33	18.33	17.33	18.33	9.33	6.33	3.33	11.33	6.33	5.33	13.33	12.33	7.33	9.33	2.33	6.33	1.33	13.33
832	52.823	12.0	-3.0	9.0	-2.0	5.0	-4.0	2.0	1.0	0.0	-3.0	7.0	5.0	0.0	1.0	0.0	-1.0	11.0	-1.0	-2.0	0.0	4.0	3.0	5.0	3.0	1.0	8.0	-6.0
839	53.268	14.0	-4.0	-7.0	-9.0	-3.0	-4.0	5.0	-2.0	-4.0	2.0	3.0	-2.0	-3.0	-5.0	5.0	1.0	1.0	3.0	6.0	-3.0	-1.0	-1.0	2.0	3.0	0.0	4.0	-6.0
846	53.713	10.0	5.0	3.0	5.0	0.0	9.0	9.0	-3.0	-1.0	6.0	7.0	2.0	4.0	-3.0	0.0	-2.0	5.0	3.0	5.0	9.0	5.0	3.0	3.0	-2.0	0.0	16.0	4.0
853	54.159	11.0	6.0	4.0	0.0	-1.0	6.0	-1.0	1.0	5.0	8.0	3.0	11.0	6.0	0.0	1.0	-1.0	7.0	6.0	2.0	3.0	0.0	-2.0	-2.0	5.0	-3.0	4.0	-3.0
860	54.604	15.67	-8.67	-3.67	-1.67	-5.67	-1.67	3.33	-1.67	-2.67	2.33	-5.67	-9.67	-3.67	1.33	-1.67	-1.67	1.33	-9.67	-1.67	-2.67	-2.67	-0.67	-3.67	-5.67	-8.67	-5.67	-5.67
867	55.05	16.0	-6.0	0.0	-7.0	-11.0	-7.0	-7.0	-7.0	2.0	-2.0	-5.0	-8.0	2.0	-4.0	1.0	3.0	-4.0	-6.0	7.0	0.0	-4.0	-4.0	-7.0	-3.0	-2.0	-2.0	-3.0
874	55.496	18.0	-10.0	3.0	-3.0	-4.0	-5.0	-7.0	0.0	-7.0	-3.0	-7.0	-4.0	-1.0	-9.0	-7.0	1.0	2.0	-4.0	-10.0	-15.0	-12.0	-4.0	-6.0	-8.0	-3.0	-9.0	-7.0
881	55.942	13.67	-3.67	-4.67	1.33	-1.67	4.33	-3.67	1.33	-7.67	4.33	-3.67	0.33	-1.67	-5.67	3.33	-0.67	1.33	-2.67	-1.67	2.33	3.33	-0.67	-0.67	-3.67	-3.67	0.33	-0.67
888	56.387	15.67	-9.67	1.33	-4.67	-1.67	1.33	-2.67	1.33	2.33	-3.67	0.33	-3.67	-7.67	0.33	-1.67	-0.67	-1.67	-3.67	-6.67	-4.67	-4.67	6.33	-7.67	-3.67	0.33	0.33	-0.67
895	56.833	19.67	-6.67	2.33	2.33	-7.67	-4.67	-3.67	-5.67	-5.67	-5.67	-4.67	-11.67	-4.67	-2.67	-11.67	-9.67	-8.67	-13.67	-11.67	-11.67	-6.67	-1.67	-6.67	-7.67	-7.67	-10.67	-5.67
902	57.279	16.33	-5.33	2.67	5.67	-6.33	-5.33	0.67	3.67	-5.33	-2.33	4.67	4.67	2.67	-3.33	-5.33	1.67	0.67	3.67	-5.33	5.67	-4.33	1.67	-1.33	-11.33	-4.33	-6.33	-6.33
909	57.726	18.67	-2.67	1.33	-3.67	6.33	-10.67	0.33	0.33	-11.67	-1.67	-0.67	-5.67	-0.67	-3.67	-0.67	-4.67	-2.67	-1.67	-3.67	-9.67	-4.67	-3.67	-5.67	-3.67	-2.67	-4.67	-1.67
916	58.172	16.33	5.67	2.67	11.67	5.67	-0.33	4.67	2.67	3.67	0.67	-5.33	-1.33	2.67	-2.33	-2.33	-0.33	-0.33	-5.33	-1.33	6.67	3.67	-8.33	-7.33	-3.33	-4.33	2.67	-5.33
923	58.618	18.0	1.0	-4.0	0.0	-6.0	5.0	-5.0	-6.0	-9.0	-3.0	2.0	-4.0	3.0	-1.0	-6.0	-4.0	-9.0	9.0	1.0	-7.0	6.0	-4.0	-7.0	-3.0	-9.0	-7.0	-5.0
930	59.064	22.67	-1.67	-0.67	-5.67	4.33	-6.67	-5.67	5.33	-3.67	1.33	1.33	2.33	-8.67	-4.67	5.33	-6.67	-7.67	-3.67	-1.67	-7.67	-4.67	-2.67	-11.67	-7.67	-8.67	1.33	-10.67
937	59.511	19.0	1.0	4.0	-1.0	7.0	5.0	-1.0	14.0	-8.0	0.0	4.0	5.0	-1.0	-3.0	-1.0	2.0	1.0	2.0	1.0	0.0	1.0	5.0	-3.0	-6.0	-7.0	-1.0	6.0
944	59.957	17.33	-3.33	-1.33	-10.33	3.67	1.67	-3.33	-3.33	-7.33	-4.33	-4.33	-4.33	-2.33	-1.33	1.67	-2.33	1.67	-7.33	4.67	-7.33	-6.33	1.67	-4.33	5.67	-6.33	-1.33	1.67
951	60.404	15.67	-1.67	-5.67	5.33	1.33	-1.67	-4.67	5.33	0.33	4.33	-3.67	1.33	2.33	1.33	-3.67	-5.67	4.33	-3.67	-5.67	-3.67	-4.67	1.33	-5.67	-7.67	-1.67	2.33	-5.67
958	60.851	15.0	3.0	-5.0	-1.0	-5.0	8.0	-7.0	1.0	-4.0	-2.0	-5.0	0.0	2.0	-3.0	1.0	-3.0	3.0	2.0	3.0	-5.0	3.0	6.0	-4.0	2.0	-5.0	-6.0	-3.0
965	61.298	13.0	1.0	4.0	-1.0	4.0	-4.0	9.0	-2.0	0.0	10.0	0.0	1.0	6.0	-2.0	-3.0	3.0	-1.0	-1.0	10.0	-1.0	-6.0	-1.0	2.0	7.0	-1.0	7.0	8.0
972	61.745	17.33	0.67	1.67	-0.33	1.67	2.67	-5.33	-0.33	-1.33	-5.33	-11.33	1.67	-3.33	-3.33	-2.33	1.67	4.67	-0.33	-5.33	-4.33	-7.33	-9.33	-2.33	2.67	-10.33	-7.33	-4.33
979	62.192	15.33	-4.33	-4.33	5.67	3.67	-2.33	-1.33	8.67	-1.33	-2.33	5.67	1.67	2.67	2.67	2.67	-2.33	-2.33	-2.33	-4.33	-2.33	-1.33	-6.33	-3.33	2.67	-1.33	-3.33	-0.33
986	62.639	18.0	-9.0	0.0	-6.0	-6.0	3.0	-5.0	4.0	-4.0	1.0	0.0	0.0	-5.0	-1.0	-3.0	3.0	-3.0	0.0	-1.0	0.0	-3.0	-4.0	-8.0	-11.0	-1.0	-9.0	2.0
993	63.086	21.33	-0.33	-2.33	-11.33	2.67	-3.33	-2.33	-6.33	0.67	-3.33	-14.33	-1.33	-3.33	-9.33	-4.33	-5.33	-10.33	-5.33	-5.33	-5.33	1.67	-6.33	-4.33	-0.33	-8.33	-11.33	-1.33
1000	63.533	15.33	-4.33	-4.33	-2.33	8.67	-4.33	-1.33	1.67	4.67	-4.33	-2.33	1.67	1.67	-1.33	-4.33	-1.33	0.67	-2.33	-2.33	-6.33	0.67	0.67	0.67	-1.33	5.67	-3.33	0.67
1007	63.981	14.33	5.67	9.67	2.67	-5.33	2.67	1.67	7.67	4.67	-0.33	2.67	2.67	2.67	0.67	1.67	6.67	0.67	2.67	0.67	8.67	0.67	5.67	-3.33	0.67	-0.33	4.67	2.67
1014	64.428	14.0	13.0	7.0	4.0	5.0	1.0	-3.0	7.0	3.0	6.0	1.0	8.0	-2.0	6.0	4.0	4.0	1.0	0.0	8.0	3.0	5.0	5.0	-1.0	7.0	3.0	-1.0	1.0
1021	64.876	20.67	3.33	-4.67	13.33	5.33	6.33	8.33	3.33	3.33	6.33	1.33	-1.67	0.33	-1.67	-0.67	4.33	-4.67	-3.67	0.33	-1.67	-1.67	2.33	1.33	4.33	-4.67	0.33	-3.67
1028	65.324	18.67	17.33	8.33	20.33	17.33	6.33	23.33	5.33	14.33	5.33	16.33	14.33	9.33	17.33	5.33	10.33	10.33	6.33	19.33	3.33	6.33	9.33	9.33	20.33	2.33	3.33	8.33
1035	65.772	20.0	20.0	24.0	38.0	32.0	37.0	20.0	16.0	19.0	25.0	21.0	15.0	14.0	16.0	11.0	13.0	11.0	19.0	9.0	16.0	8.0	-1.0	19.0	16.0	8.0	14.0	8.0
1042	66.22	19.33	4.67	26.67	38.67	24.67	17.67	23.67	16.67	15.67	6.67	11.67	12.67	11.67	8.67	9.67	9.67	10.67	5.67	3.67	14.67	8.67	11.67	0.67	12.67	2.67	10.67	12.67
1049	66.668	19.33	1.67	2.67	9.67	15.67	6.67	6.67	2.67	2.67	5.67	8.67	-2.33	7.67	7.67	-2.33	7.67	5.67	-2.33	10.67	-0.33	0.67	-6.33	2.67	2.67	13.67	2.67	2.67
1056	67.116	16.0	-2.0	13.0	17.0	3.0	7.0	6.0	11.0	-2.0	0.0	7.0	6.0	8.0	5.0	8.0	5.0	8.0	11.0	15.0	4.0	9.0	-6.0	5.0	7.0	12.0	4.0	-5.0
1063	67.564	19.33	2.67	11.67	5.67	6.67	0.67	4.67	-2.33	2.67	5.67	-3.33	-6.33	-1.33	1.67	6.67	-1.33	3.67	0.67	-4.33	4.67	-1.33	-2.33	0.67	3.67	-1.33	5.67	-0.33
1070	68.013	16.0	0.0	5.0	7.0	5.0	4.0	0.0	7.0	-5.0	-1.0	4.0	4.0	7.0	2.0	8.0	10.0	3.0	7.0	-2.0	3.0	-1.0	3.0	-1.0	1.0	-5.0	5.0	-5.0
1077	68.462	15.33	5.67	4.67	-0.33	6.67	2.67	1.67	1.67	-3.33	8.67	3.67	-4.33	-1.33	6.67	-6.33	1.67	4.67	0.67	-1.33	0.67	11.67	-5.33	12.67	-1.33	4.67	1.67	2.67
1084	68.91	17.0	-4.0	0.0	5.0	1.0	-5.0	0.0	7.0	1.0	3.0	0.0	-4.0	-1.0	-1.0	3.0	5.0	-7.0	-5.0	6.0	8.0	-3.0	8.0	3.0	-7.0	1.0	8.0	4.0
1091	69.359	15.67	-2.67	2.33	10.33	0.33	5.33	1.33	0.33	-1.67	4.33	0.33	3.33	6.33	5.33	6.33	5.33	4.33	2.33	1.33	6.33	-0.67	-0.67	4.33	6.33	10.33	-3.67	3.33
1098	69.808	15.33	-3.33	8.67	9.67	2.67	8.67	2.67	-4.33	0.67	11.67	1.67	8.67	1.67	7.67	1.67	9.67	3.67	8.67	2.67	5.67	8.67	-0.33	5.67	-6.33	9.67	-3.33	7.67
1105	70.257	15.0	4.0	8.0	1.0	4.0	-7.0	7.0	3.0	1.0	3.0	2.0	4.0	4.0	0.0	4.0	1.0	5.0	-1.0	2.0	0.0	6.0	2.0	12.0	0.0	7.0	-1.0	4.0
1112	70.707	16.67	-5.67	-0.67	0.33	1.33	2.33	4.33	6.33	7.33	-2.67	8.33	1.33	1.33	7.33	9.33	-1.67	0.33	8.33	-3.67	-4.67	4.33	5.33	-1.67	0.33	-3.67	-0.67	-4.67
1119	71.156	13.33	13.67	5.67	7.67	3.67	6.67	10.67	7.67	2.67	5.67	4.67	10.67	8.67	-3.33	7.67	11.67	6.67	2.67	1.67	11.67	1.67	1.67	3.67	7.67	8.67	6.67	8.67
1126	71.606	11.33	0.67	6.67	2.67	2.67	3.67	8.67	6.67	4.67	8.67	6.67	18.67	5.67	6.67	2.67	8.67	13.67	7.67	11.67	8.67	10.67	14.67	7.67	9.67	6.67	14.67	5.67
1133	72.055	13.33	2.67	9.67	13.67	11.67	18.67	16.67	1.67	4.67	-0.33	8.67	4.67	9.67	9.67	-0.33	5.67	9.67	1.67	9.67	8.67	12.67	3.67	9.67	10.67	7.67	4.67	13.67
1140	72.505	20.0	-5.0	8.0	2.0	9.0	-2.0	8.0	2.0	-4.0	10.0	14.0	-4.0	8.0	11.0	-4.0	-5.0	-1.0	4.0	10.0	13.0	4.0	2.0	-2.0	3.0	9.0	8.0	1.0
1147	72.955	30.67	0.33	12.33	7.33	11.33	-0.67	2.33	3.33	8.33	4.33	1.33	1.33	5.33	5.33	1.33	9.33	-7.67	-3.67	8.33	14.33	-1.67	3.33	10.33	1.33	3.33	10.33	3.33
1154	73.405	26.0	-1.0	2.0	-3.0	8.0	4.0	9.0	0.0	9.0	8.0	0.0	2.0	2.0	-1.0	0.0	17.0	6.0	5.0	-2.0	10.0	11.0	-1.0	6.0	3.0	8.0	11.0	7.0
1161	73.855	16.0	2.0	7.0	16.0	6.0	13.0	1.0	15.0	10.0	9.0	3.0	9.0	4.0	6.0	5.0	12.0	6.0	6.0	2.0	8.0	12.0	11.0	6.0	8.0	11.0	8.0	13.0
1168	74.306	15.0	1.0	-2.0	13.0	5.0	2.0	9.0	7.0	9.0	3.0	12.0	10.0	11.0	2.0	10.0	4.0	8.0	4.0	2.0	10.0	4.0	9.0	10.0	10.0	6.0	9.0	8.0
1175	74.756	26.67	1.33	9.33	3.33	1.33	9.33	4.33	3.33	13.33	1.33	10.33	11.33	1.33	-0.67	-10.67	12.33	1.33	13.33	4.33	10.33	13.33	-0.67	8.33	4.33	-0.67	12.33	-0.67
1182	75.207	51.0	7.0	-5.0	5.0	1.0	7.0	-1.0	-1.0	-2.0	4.0	-2.0	-2.0	9.0	3.0	-6.0	6.0	3.0	-1.0	-1.0	-5.0	7.0	-6.0	-5.0	0.0	14.0	-10.0	19.0
1189	75.658	24.33	6.67	9.67	9.67	25.67	5.67	13.67	8.67	6.67	11.67	3.67	12.67	5.67	4.67	2.67	6.67	4.67	7.67	7.67	4.67	9.67	4.67	10.67	16.67	16.67	9.67	5.67
1196	76.109	15.0	-1.0	-2.0	9.0	2.0	10.0	8.0	8.0	10.0	5.0	10.0	15.0	3.0	5.0	15.0	6.0	18.0	9.0	16.0	10.0	23.0	7.0	1.0	1.0	6.0	15.0	5.0
1203	76.56	15.67	6.33	7.33	10.33	1.33	10.33	5.33	6.33	9.33	7.33	9.33	-1.67	6.33	5.33	7.33	4.33	-0.67	1.33	1.33	5.33	6.33	9.33	0.33	1.33	8.33	4.33	7.33
1210	77.011	19.67	-3.67	4.33	3.33	6.33	3.33	-0.67	-0.67	5.33	5.33	-0.67	1.33	0.33	-3.67	9.33	-3.67	5.33	-2.67	0.33	6.33	-3.67	4.33	0.33	-0.67	1.33	-1.67	-2.67
1217	77.463	15.67	5.33	6.33	6.33	0.33	2.33	13.33	0.33	17.33	2.33	4.33	-2.67	10.33	3.33	11.33	12.33	8.33	16.33	11.33	8.33	1.33	11.33	7.33	3.33	-0.67	0.33	13.33
1224	77.915	13.67	0.33	11.33	10.33	7.33	11.33	10.33	0.33	1.33	9.33	14.33	8.33	15.33	7.33	8.33	7.33	7.33	6.33	4.33	3.33	8.33	7.33	7.33	17.33	6.33	1.33	2.33
1231	78.366	15.33	4.67	11.67	4.67	4.67	9.67	9.67	6.67	7.67	6.67	4.67	5.67	9.67	18.67	8.67	11.67	3.67	7.67	11.67	5.67	9.67	6.67	14.67	8.67	11.67	4.67	1.67
1238	78.818	17.33	-4.33	6.67	7.67	-2.33	1.67	12.67	5.67	11.67	3.67	10.67	2.67	15.67	2.67	9.67	6.67	2.67	-1.33	2.67	-1.33	4.67	-1.33	6.67	5.67	9.67	5.67	5.67
1245	79.271	15.67	1.33	7.33	16.33	9.33	10.33	3.33	1.33	11.33	6.33	7.33	11.33	13.33	12.33	7.33	18.33	6.33	13.33	13.33	4.33	6.33	8.33	2.33	1.33	4.33	3.33	8.33
1252	79.723	15.33	-2.33	13.67	-1.33	7.67	0.67	2.67	7.67	9.67	4.67	18.67	3.67	6.67	8.67	8.67	2.67	7.67	5.67	12.67	9.67	6.67	7.67	12.67	3.67	14.67	5.67	10.67
1259	80.175	16.33	3.67	8.67	5.67	7.67	16.67	3.67	20.67	1.67	4.67	10.67	5.67	3.67	9.67	5.67	10.67	3.67	14.67	5.67	0.67	2.67	7.67	0.67	7.67	7.67	-2.33	3.67
1266	80.628	17.0	6.0	0.0	9.0	14.0	18.0	11.0	17.0	7.0	8.0	10.0	10.0	9.0	24.0	6.0	4.0	4.0	11.0	13.0	10.0	10.0	12.0	15.0	6.0	8.0	2.0	11.0
1273	81.081	16.33	1.67	11.67	13.67	9.67	10.67	10.67	12.67	24.67	18.67	5.67	17.67	17.67	8.67	11.67	17.67	15.67	9.67	14.67	11.67	12.67	24.67	26.67	10.67	9.67	8.67	10.67
1280	81.534	17.33	9.67	8.67	15.67	12.67	5.67	20.67	13.67	22.67	16.67	21.67	16.67	8.67	23.67	7.67	10.67	30.67	12.67	32.67	17.67	12.67	22.67	17.67	15.67	22.67	22.67	7.67
1287	81.987	19.0	7.0	12.0	16.0	22.0	22.0	18.0	16.0	29.0	21.0	17.0	24.0	17.0	19.0	15.0	14.0	16.0	9.0	18.0	11.0	24.0	21.0	24.0	25.0	16.0	13.0	11.0
1294	82.441	21.33	12.67	23.67	24.67	47.67	33.67	31.67	20.67	18.67	32.67	23.67	27.67	21.67	19.67	12.67	28.67	27.67	36.67	14.67	7.67	20.67	19.67	24.67	22.67	26.67	22.67	19.67
1301	82.894	18.33	41.67	111.67	77.67	109.67	73.67	86.67	45.67	54.67	49.67	48.67	48.67	53.67	41.67	55.67	46.67	52.67	45.67	49.67	23.67	45.67	41.67	44.67	47.67	37.67	30.67	41.67
1308	83.348	20.0	93.0	227.0	195.0	211.0	195.0	156.0	99.0	105.0	92.0	89.0	98.0	77.0	67.0	60.0	70.0	78.0	74.0	75.0	84.0	74.0	67.0	51.0	61.0	65.0	76.0	76.0
1315	83.802	17.67	139.33	299.33	288.33	282.33	269.33	217.33	173.33	150.33	120.33	119.33	108.33	127.33	129.33	103.33	98.33	87.33	91.33	97.33	92.33	95.33	102.33	105.33	97.33	80.33	88.33	88.33
1322	84.256	19.67	146.33	312.33	237.33	233.33	216.33	200.33	144.33	138.33	123.33	100.33	96.33	96.33	91.33	108.33	85.33	92.33	91.33	86.33	75.33	102.33	85.33	79.33	87.33	105.33	104.33	98.33
1329	84.71	27.67	68.33	186.33	134.33	132.33	102.33	89.33	73.33	80.33	55.33	53.33	68.33	56.33	56.33	62.33	51.33	54.33	60.33	39.33	44.33	35.33	53.33	52.33	72.33	42.33	35.33	69.33
1336	85.165	37.67	21.33	53.33	31.33	26.33	23.33	31.33	20.33	28.33	13.33	13.33	16.33	13.33	11.33	16.33	18.33	18.33	15.33	2.33	27.33	6.33	22.33	15.33	17.33	24.33	12.33	21.33
1343	85.619	35.0	1.0	19.0	5.0	12.0	18.0	17.0	5.0	5.0	-3.0	5.0	5.0	17.0	4.0	11.0	11.0	-8.0	8.0	14.0	-1.0	5.0	17.0	8.0	6.0	6.0	1.0	7.0
1350	86.074	23.0	9.0	9.0	12.0	5.0	18.0	20.0	19.0	19.0	6.0	13.0	8.0	8.0	12.0	12.0	-2.0	11.0	2.0	8.0	15.0	1.0	14.0	9.0	15.0	6.0	6.0	16.0
1357	86.529	24.67	7.33	6.33	7.33	14.33	8.33	4.33	8.33	8.33	14.33	2.33	0.33	7.33	3.33	11.33	5.33	2.33	8.33	2.33	-4.67	-4.67	7.33	5.33	3.33	3.33	7.33	3.33
1364	86.985	28.67	-7.67	-4.67	2.33	14.33	2.33	-3.67	-7.67	9.33	-1.67	-0.67	5.33	0.33	1.33	8.33	2.33	1.33	-7.67	-3.67	-7.67	-5.67	-7.67	-1.67	-3.67	3.33	11.33	0.33
1371	87.44	28.67	-1.67	-3.67	14.33	0.33	8.33	4.33	-0.67	-1.67	18.33	2.33	12.33	2.33	7.33	-0.67	-2.67	9.33	0.33	10.33	3.33	16.33	1.33	-0.67	-3.67	4.33	7.33	1.33
1378	87.896	28.33	2.67	19.67	5.67	3.67	-0.33	11.67	22.67	5.67	20.67	2.67	14.67	19.67	10.67	5.67	9.67	3.67	8.67	22.67	17.67	14.67	13.67	0.67	15.67	12.67	16.67	19.67
1385	88.352	27.0	8.0	0.0	8.0	14.0	1.0	6.0	5.0	8.0	1.0	10.0	7.0	3.0	13.0	11.0	10.0	16.0	8.0	12.0	7.0	1.0	11.0	19.0	5.0	12.0	7.0	12.0
1392	88.808	28.0	4.0	6.0	18.0	7.0	-2.0	5.0	-4.0	8.0	5.0	8.0	12.0	3.0	8.0	4.0	10.0	11.0	2.0	5.0	7.0	19.0	4.0	11.0	13.0	8.0	5.0	9.0
1399	89.264	24.0	8.0	13.0	20.0	17.0	8.0	11.0	13.0	10.0	2.0	7.0	1.0	20.0	0.0	14.0	11.0	3.0	4.0	4.0	-1.0	8.0	5.0	22.0	0.0	8.0	18.0	9.0
1406	89.72	23.33	6.67	12.67	8.67	13.67	9.67	8.67	8.67	15.67	4.67	10.67	14.67	11.67	11.67	10.67	8.67	1.67	1.67	19.67	9.67	12.67	10.67	19.67	12.67	9.67	-3.33	17.67
1413	90.177	26.67	0.33	13.33	8.33	1.33	5.33	6.33	3.33	17.33	19.33	3.33	6.33	1.33	18.33	7.33	4.33	3.33	0.33	-2.67	-2.67	10.33	10.33	16.33	9.33	3.33	11.33	-0.67
1420	90.634	24.0	5.0	3.0	8.0	12.0	8.0	1.0	3.0	8.0	3.0	7.0	24.0	7.0	6.0	9.0	17.0	13.0	15.0	14.0	14.0	20.0	6.0	9.0	11.0	8.0	16.0	-1.0
1427	91.091	31.33	-1.33	9.67	-0.33	-6.33	12.67	-6.33	3.67	3.67	1.67	5.67	12.67	9.67	3.67	-1.33	8.67	2.67	-3.33	-1.33	0.67	2.67	-5.33	-5.33	2.67	7.67	16.67	-3.33
1434	91.549	28.33	-5.33	2.67	12.67	14.67	11.67	12.67	3.67	19.67	0.67	23.67	1.67	9.67	4.67	3.67	6.67	6.67	3.67	8.67	14.67	8.67	18.67	17.67	11.67	9.67	5.67	14.67
1441	92.006	30.33	-2.33	12.67	1.67	14.67	-3.33	10.67	4.67	12.67	11.67	7.67	0.67	9.67	2.67	4.67	11.67	5.67	13.67	5.67	4.67	7.67	5.67	10.67	3.67	2.67	1.67	1.67
1448	92.464	29.67	-2.67	8.33	12.33	11.33	9.33	2.33	-2.67	-0.67	7.33	6.33	7.33	8.33	-0.67	9.33	8.33	11.33	5.33	11.33	5.33	7.33	12.33	6.33	11.33	8.33	6.33	8.33
1455	92.922	29.67	4.33	1.33	0.33	4.33	11.33	7.33	9.33	5.33	2.33	7.33	8.33	0.33	16.33	17.33	8.33	12.33	7.33	-3.67	1.33	10.33	10.33	2.33	9.33	4.33	-1.67	4.33
1462	93.38	28.0	4.0	5.0	5.0	7.0	10.0	-2.0	13.0	23.0	9.0	8.0	14.0	17.0	16.0	2.0	5.0	17.0	-2.0	8.0	2.0	15.0	8.0	4.0	-2.0	7.0	8.0	0.0
1469	93.839	31.67	-0.67	-8.67	9.33	-2.67	6.33	3.33	9.33	9.33	8.33	2.33	5.33	10.33	5.33	7.33	5.33	-0.67	6.33	-2.67	2.33	9.33	9.33	8.33	13.33	1.33	-3.67	1.33
1476	94.297	28.0	-5.0	8.0	0.0	4.0	15.0	7.0	24.0	-6.0	11.0	4.0	16.0	17.0	21.0	8.0	14.0	13.0	15.0	4.0	23.0	20.0	6.0	9.0	11.0	4.0	15.0	4.0
1483	94.756	37.33	1.67	3.67	-2.33	-2.33	-4.33	-13.33	2.67	-14.33	3.67	-1.33	-2.33	4.67	3.67	-9.33	2.67	7.67	-7.33	4.67	15.67	-2.33	5.67	-2.33	-0.33	-8.33	-6.33	-10.33
1490	95.215	29.33	12.67	7.67	-3.33	-9.33	2.67	23.67	8.67	-3.33	11.67	1.67	10.67	14.67	5.67	22.67	17.67	8.67	8.67	9.67	5.67	3.67	5.67	-1.33	10.67	17.67	9.67	12.67
1497	95.675	35.33	-1.33	-0.33	8.67	2.67	5.67	24.67	4.67	8.67	10.67	2.67	-1.33	15.67	12.67	3.67	8.67	17.67	-1.33	7.67	3.67	7.67	12.67	12.67	26.67	-1.33	7.67	-0.33
1504	96.134	34.33	-1.33	11.67	-0.33	3.67	11.67	10.67	4.67	12.67	12.67	18.67	22.67	19.67	10.67	34.67	18.67	14.67	7.67	2.67	8.67	13.67	20.67	19.67	12.67	21.67	3.67	11.67
1511	96.594	32.33	3.67	10.67	6.67	15.67	-1.33	10.67	26.67	17.67	22.67	33.67	28.67	33.67	11.67	24.67	30.67	22.67	25.67	23.67	35.67	25.67	20.67	19.67	36.67	14.67	28.67	27.67
1518	97.054	31.67	4.33	10.33	0.33	7.33	-3.67	-5.67	27.33	30.33	34.33	42.33	34.33	29.33	20.33	31.33	34.33	25.33	29.33	19.33	12.33	21.33	25.33	32.33	36.33	26.33	37.33	28.33
1525	97.514	39.33	-7.33	-7.33	2.67	0.67	-4.33	1.67	23.67	32.67	18.67	14.67	29.67	31.67	24.67	16.67	20.67	23.67	37.67	23.67	15.67	19.67	18.67	14.67	7.67	16.67	21.67	27.67
1532	97.975	30.67	1.33	4.33	9.33	4.33	15.33	4.33	29.33	37.33	31.33	35.33	23.33	23.33	26.33	18.33	26.33	37.33	29.33	27.33	20.33	21.33	23.33	14.33	16.33	33.33	16.33	21.33
1539	98.436	33.0	10.0	8.0	7.0	5.0	6.0	4.0	6.0	19.0	16.0	6.0	18.0	18.0	7.0	18.0	4.0	13.0	16.0	11.0	9.0	15.0	27.0	9.0	30.0	14.0	15.0	11.0
1546	98.897	31.0	14.0	6.0	9.0	1.0	8.0	6.0	5.0	15.0	15.0	0.0	7.0	15.0	14.0	10.0	18.0	5.0	20.0	2.0	7.0	1.0	-3.0	8.0	11.0	7.0	20.0	11.0
1553	99.358	36.0	-11.0	8.0	-9.0	7.0	9.0	5.0	3.0	16.0	1.0	0.0	1.0	2.0	2.0	7.0	2.0	-9.0	21.0	0.0	1.0	13.0	4.0	9.0	-3.0	-2.0	9.0	8.0
1560	99.82	34.67	-1.67	-5.67	4.33	9.33	11.33	11.33	-0.67	0.33	8.33	-4.67	-0.67	1.33	3.33	-1.67	18.33	5.33	7.33	7.33	4.33	5.33	4.33	7.33	9.33	14.33	5.33	-4.67
1567	100.281	37.0	-12.0	-3.0	-1.0	-3.0	9.0	0.0	15.0	4.0	3.0	3.0	-2.0	-3.0	8.0	3.0	-1.0	-3.0	1.0	5.0	1.0	4.0	-3.0	5.0	-9.0	-5.0	-9.0	11.0
1574	100.743	34.33	13.67	-4.33	-10.33	9.67	-0.33	6.67	3.67	0.67	-2.33	10.67	-2.33	13.67	-0.33	11.67	6.67	3.67	11.67	12.67	1.67	12.67	2.67	5.67	0.67	5.67	9.67	-4.33
1581	101.206	34.67	8.33	-2.67	5.33	5.33	6.33	5.33	-4.67	-2.67	-2.67	5.33	-1.67	-4.67	9.33	-0.67	-4.67	10.33	-0.67	-2.67	-0.67	10.33	3.33	4.33	9.33	-5.67	2.33	2.33
1588	101.668	35.67	4.33	5.33	-2.67	-3.67	-0.67	5.33	-6.67	2.33	18.33	3.33	3.33	1.33	-3.67	5.33	-5.67	2.33	-1.67	-5.67	0.33	13.33	4.33	13.33	12.33	0.33	7.33	9.33
1595	102.131	31.67	10.33	7.33	11.33	13.33	9.33	1.33	7.33	-2.67	8.33	-0.67	17.33	0.33	6.33	-2.67	7.33	21.33	1.33	7.33	0.33	7.33	10.33	23.33	8.33	15.33	5.33	-5.67
1602	102.594	38.0	-2.0	-7.0	2.0	5.0	7.0	7.0	9.0	1.0	4.0	-1.0	3.0	3.0	-1.0	14.0	5.0	3.0	3.0	14.0	0.0	-2.0	0.0	7.0	-13.0	-6.0	6.0	-2.0
1609	103.057	32.67	0.33	6.33	13.33	20.33	6.33	-5.67	5.33	-6.67	1.33	-6.67	10.33	0.33	8.33	8.33	10.33	15.33	2.33	19.33	10.33	6.33	-0.67	4.33	9.33	6.33	-1.67	3.33
1616	103.521	28.0	0.0	3.0	14.0	10.0	2.0	0.0	10.0	6.0	15.0	15.0	10.0	9.0	12.0	7.0	5.0	16.0	-2.0	20.0	11.0	9.0	27.0	6.0	6.0	17.0	18.0	7.0
1623	103.985	32.33	0.67	-1.33	-2.33	-2.33	6.67	8.67	8.67	-1.33	2.67	8.67	13.67	10.67	6.67	-2.33	6.67	-3.33	8.67	-0.33	0.67	3.67	18.67	3.67	9.67	4.67	-2.33	1.67
1630	104.449	29.33	5.67	3.67	19.67	-1.33	14.67	1.67	4.67	3.67	-2.33	-2.33	3.67	-2.33	6.67	-1.33	8.67	10.67	19.67	4.67	-1.33	4.67	21.67	13.67	3.67	2.67	7.67	4.67
1637	104.913	32.67	-1.67	3.33	-1.67	7.33	3.33	0.33	-1.67	-1.67	-3.67	-1.67	0.33	-6.67	1.33	5.33	-2.67	-2.67	2.33	4.33	12.33	4.33	7.33	-0.67	3.33	2.33	-1.67	-2.67
1644	105.378	29.67	-9.67	-2.67	0.33	6.33	10.33	5.33	-5.67	11.33	-3.67	6.33	9.33	3.33	8.33	12.33	3.33	10.33	6.33	8.33	5.33	-2.67	-2.67	8.33	-0.67	-2.67	-2.67	11.33
1651	105.843	30.67	3.33	16.33	6.33	-2.67	3.33	1.33	9.33	8.33	-8.67	0.33	-2.67	7.33	8.33	-1.67	-12.67	10.33	5.33	-5.67	0.33	1.33	0.33	9.33	6.33	-2.67	1.33	6.33
1658	106.308	30.0	-12.0	4.0	-1.0	-10.0	0.0	12.0	-1.0	13.0	-1.0	5.0	1.0	-1.0	8.0	-8.0	-7.0	8.0	-6.0	-1.0	-1.0	2.0	-10.0	2.0	-2.0	-4.0	-1.0	2.0
1665	106.773	26.33	-0.33	9.67	10.67	3.67	6.67	5.67	8.67	-8.33	0.67	-1.33	4.67	11.67	2.67	7.67	3.67	5.67	2.67	10.67	11.67	3.67	-3.33	-2.33	-0.33	9.67	0.67	6.67
1672	107.239	27.0	3.0	2.0	-1.0	11.0	3.0	5.0	13.0	-2.0	7.0	6.0	-9.0	-7.0	6.0	7.0	6.0	2.0	3.0	9.0	1.0	6.0	0.0	7.0	3.0	9.0	3.0	8.0
1679	107.705	26.67	5.33	5.33	6.33	-4.67	5.33	5.33	-0.67	3.33	1.33	0.33	-6.67	-4.67	6.33	-5.67	4.33	0.33	2.33	2.33	5.33	11.33	10.33	-3.67	2.33	6.33	8.33	-0.67
1686	108.171	23.67	4.33	12.33	5.33	1.33	9.33	11.33	-2.67	3.33	12.33	-3.67	4.33	7.33	1.33	-2.67	1.33	17.33	2.33	9.33	6.33	13.33	10.33	-1.67	8.33	8.33	12.33	8.33
1693	108.638	29.0	-4.0	-11.0	1.0	0.0	7.0	2.0	5.0	2.0	9.0	-7.0	-1.0	0.0	0.0	1.0	-2.0	-5.0	-2.0	2.0	0.0	3.0	-6.0	-6.0	-1.0	11.0	8.0	7.0
1700	109.105	23.33	-1.33	12.67	8.67	7.67	9.67	5.67	8.67	11.67	5.67	-1.33	0.67	2.67	8.67	4.67	9.67	0.67	0.67	7.67	8.67	2.67	11.67	1.67	9.67	4.67	3.67	0.67
1707	109.572	25.33	1.67	-1.33	6.67	-1.33	11.67	3.67	-2.33	2.67	-3.33	0.67	7.67	7.67	-1.33	-0.33	1.67	-1.33	-0.33	-0.33	3.67	-1.33	-1.33	6.67	10.67	6.67	14.67	2.67
1714	110.039	21.0	13.0	10.0	-1.0	0.0	1.0	10.0	-4.0	5.0	7.0	5.0	-1.0	9.0	3.0	4.0	8.0	4.0	19.0	6.0	8.0	5.0	14.0	6.0	8.0	15.0	2.0	10.0
1721	110.507	22.67	5.33	5.33	-1.67	13.33	0.33	1.33	9.33	8.33	6.33	1.33	-0.67	8.33	4.33	10.33	10.33	4.33	-0.67	1.33	-6.67	-11.67	3.33	9.33	-5.67	2.33	-2.67	0.33
1728	110.975	21.33	4.67	4.67	1.67	3.67	9.67	-4.33	12.67	-2.33	8.67	15.67	7.67	0.67	-0.33	5.67	4.67	5.67	3.67	7.67	1.67	10.67	-1.33	2.67	1.67	6.67	-5.33	2.67
1735	111.443	25.0	4.0	0.0	5.0	9.0	5.0	-6.0	1.0	3.0	9.0	3.0	2.0	14.0	-4.0	3.0	5.0	7.0	6.0	-3.0	7.0	2.0	2.0	1.0	-4.0	-4.0	2.0	-2.0
1742	111.912	26.0	-2.0	0.0	-2.0	0.0	-3.0	-2.0	-2.0	-2.0	3.0	0.0	-4.0	8.0	7.0	2.0	2.0	7.0	-6.0	2.0	1.0	-4.0	7.0	-3.0	-8.0	-6.0	-4.0	-1.0
1749	112.38	24.33	5.67	2.67	5.67	4.67	8.67	7.67	6.67	3.67	-3.33	9.67	4.67	7.67	3.67	8.67	1.67	1.67	-0.33	3.67	0.67	4.67	0.67	1.67	1.67	-4.33	5.67	11.67
1756	112.85	23.67	-2.67	14.33	9.33	0.33	8.33	-0.67	10.33	14.33	4.33	4.33	4.33	5.33	-3.67	6.33	-1.67	1.33	0.33	-0.67	1.33	7.33	2.33	-1.67	-1.67	3.33	-0.67	-0.67
1763	113.319	22.33	10.67	12.67	5.67	10.67	7.67	-9.33	0.67	0.67	0.67	4.67	-0.33	-1.33	-0.33	-3.33	3.67	4.67	14.67	4.67	9.67	-7.33	-1.33	3.67	2.67	-5.33	3.67	0.67
1770	113.789	22.33	1.67	1.67	-8.33	-4.33	2.67	6.67	-11.33	-1.33	2.67	-2.33	-3.33	3.67	-6.33	5.67	-0.33	0.67	-0.33	1.67	1.67	1.67	0.67	1.67	2.67	0.67	-7.33	-1.33
1777	114.259	23.33	-5.33	-2.33	1.67	-2.33	3.67	-5.33	2.67	-8.33	-0.33	-2.33	-5.33	4.67	4.67	3.67	5.67	1.67	-2.33	-2.33	-5.33	-1.33	-4.33	-1.33	0.67	-1.33	-3.33	-1.33
1784	114.729	15.0	10.0	0.0	6.0	7.0	6.0	17.0	10.0	4.0	-6.0	6.0	12.0	2.0	2.0	5.0	7.0	8.0	4.0	4.0	6.0	5.0	9.0	8.0	-2.0	9.0	7.0	-2.0
1791	115.2	21.33	-1.33	1.67	-15.33	-1.33	0.67	-8.33	-3.33	-6.33	-9.33	-5.33	11.67	-7.33	-0.33	-10.33	-2.33	-3.33	-5.33	-4.33	-6.33	-2.33	3.67	-2.33	1.67	9.67	-4.33	-5.33
1798	115.671	21.67	-2.67	-3.67	0.33	2.33	-7.67	-4.67	4.33	-5.67	-2.67	-4.67	-5.67	1.33	5.33	1.33	-2.67	-2.67	4.33	-9.67	-1.67	3.33	16.33	8.33	-4.67	-3.67	1.33	-5.67
1805	116.142	16.67	-2.67	-2.67	8.33	1.33	8.33	10.33	8.33	-1.67	-2.67	3.33	-4.67	2.33	6.33	2.33	-0.67	3.33	8.33	7.33	3.33	-0.67	3.33	-7.67	0.33	2.33	4.33	6.33
1812	116.614	14.33	-1.33	14.67	7.67	4.67	7.67	-1.33	2.67	-5.33	6.67	0.67	6.67	7.67	4.67	8.67	7.67	3.67	6.67	6.67	5.67	0.67	7.67	1.67	0.67	0.67	7.67	-0.33
1819	117.086	13.67	6.33	4.33	3.33	4.33	2.33	7.33	4.33	2.33	4.33	5.33	3.33	6.33	5.33	1.33	10.33	-0.67	2.33	8.33	4.33	2.33	6.33	12.33	6.33	4.33	0.33	1.33
1826	117.558	17.0	-6.0	1.0	5.0	5.0	-1.0	1.0	-1.0	-1.0	-1.0	0.0	2.0	-6.0	-9.0	-2.0	-1.0	13.0	-5.0	2.0	-5.0	-1.0	4.0	-2.0	-3.0	3.0	1.0	3.0
1833	118.03	17.67	-4.67	4.33	-8.67	6.33	-5.67	-6.67	4.33	3.33	14.33	2.33	4.33	-2.67	-1.67	-4.67	-3.67	-2.67	9.33	1.33	2.33	-1.67	-5.67	-3.67	-3.67	1.33	-2.67	2.33
1840	118.503	15.0	1.0	-4.0	4.0	-2.0	6.0	2.0	0.0	0.0	2.0	7.0	4.0	0.0	1.0	5.0	-6.0	7.0	-3.0	0.0	3.0	1.0	1.0	-1.0	-3.0	4.0	3.0	2.0
1847	118.976	15.0	0.0	3.0	-5.0	1.0	-2.0	3.0	5.0	9.0	1.0	0.0	9.0	-2.0	-2.0	5.0	-3.0	3.0	-7.0	-8.0	4.0	0.0	4.0	8.0	1.0	0.0	1.0	-3.0
1854	119.45	14.67	-0.67	2.33	-7.67	-2.67	6.33	2.33	-4.67	-1.67	2.33	5.33	6.33	2.33	-4.67	3.33	2.33	4.33	3.33	-1.67	4.33	5.33	-0.67	2.33	4.33	1.33	5.33	2.33
1861	119.924	12.0	1.0	2.0	7.0	-1.0	2.0	10.0	6.0	8.0	3.0	5.0	1.0	6.0	-1.0	1.0	1.0	4.0	4.0	6.0	5.0	1.0	1.0	12.0	1.0	5.0	3.0	9.0
1868	120.398	11.33	1.67	4.67	1.67	3.67	2.67	6.67	7.67	4.67	-0.33	2.67	12.67	2.67	9.67	1.67	-3.33	0.67	5.67	8.67	3.67	2.67	-1.33	8.67	5.67	10.67	5.67	1.67
1875	120.872	13.33	4.67	1.67	-0.33	1.67	1.67	0.67	-1.33	1.67	0.67	4.67	7.67	5.67	1.67	-1.33	4.67	4.67	-0.33	-3.33	9.67	2.67	11.67	-5.33	2.67	-3.33	-2.33	11.67
1882	121.347	14.67	-1.67	-5.67	-5.67	-2.67	5.33	0.33	-4.67	3.33	5.33	6.33	4.33	0.33	-1.67	-4.67	8.33	3.33	2.33	-0.67	4.33	-3.67	-0.67	2.33	2.33	-5.67	1.33	-0.67
1889	121.822	11.67	3.33	9.33	2.33	5.33	0.33	6.33	-2.67	3.33	6.33	-1.67	7.33	-7.67	8.33	-1.67	-4.67	4.33	-1.67	3.33	-0.67	3.33	4.33	11.33	3.33	6.33	10.33	1.33
1896	122.298	9.67	4.33	16.33	9.33	7.33	10.33	9.33	2.33	6.33	11.33	3.33	1.33	12.33	7.33	2.33	1.33	10.33	5.33	6.33	5.33	7.33	1.33	3.33	7.33	11.33	3.33	7.33
1903	122.773	15.67	-1.67	5.33	1.33	4.33	-4.67	8.33	2.33	-0.67	-3.67	-1.67	3.33	2.33	10.33	-0.67	-4.67	-4.67	1.33	1.33	1.33	-6.67	-7.67	2.33	3.33	1.33	0.33	-1.67
1910	123.25	13.0	-2.0	8.0	-4.0	15.0	8.0	-1.0	1.0	1.0	11.0	-1.0	3.0	13.0	7.0	5.0	7.0	4.0	2.0	2.0	6.0	3.0	4.0	0.0	-5.0	-2.0	4.0	-5.0
1917	123.726	14.0	-2.0	-2.0	2.0	3.0	1.0	0.0	0.0	2.0	0.0	4.0	0.0	3.0	5.0	3.0	3.0	-1.0	-1.0	6.0	6.0	-1.0	-7.0	-5.0	-8.0	-4.0	0.0	6.0
1924	124.203	14.0	-4.0	-3.0	1.0	1.0	-1.0	-2.0	3.0	5.0	0.0	4.0	-4.0	2.0	-5.0	9.0	3.0	-3.0	-9.0	2.0	-3.0	5.0	4.0	-2.0	-2.0	3.0	1.0	0.0
1931	124.68	11.67	1.33	-0.67	1.33	6.33	1.33	3.33	2.33	-5.67	6.33	-4.67	6.33	3.33	-0.67	-1.67	2.33	4.33	-0.67	3.33	-1.67	6.33	1.33	3.33	-0.67	6.33	-0.67	2.33
1938	125.158	12.67	-0.67	2.33	3.33	-1.67	-1.67	-4.67	1.33	-1.67	-1.67	-4.67	0.33	1.33	4.33	3.33	-0.67	-4.67	5.33	-1.67	-3.67	6.33	-1.67	-6.67	-1.67	-0.67	-0.67	2.33
1945	125.635	11.33	0.67	-0.33	3.67	5.67	7.67	0.67	-0.33	-5.33	2.67	1.67	-4.33	-4.33	3.67	0.67	-0.33	5.67	4.67	2.67	4.67	-4.33	0.67	0.67	0.67	-1.33	2.67	1.67
1952	126.114	10.67	1.33	3.33	-0.67	-2.67	-1.67	2.33	1.33	3.33	-1.67	-5.67	-2.67	8.33	5.33	-0.67	3.33	2.33	0.33	5.33	2.33	-3.67	4.33	2.33	2.33	-0.67	-1.67	4.33
1959	126.592	10.33	3.67	-0.33	1.67	-6.33	-3.33	6.67	2.67	-2.33	-1.33	2.67	-2.33	3.67	-0.33	1.67	1.67	-3.33	1.67	7.67	2.67	-1.33	-3.33	-3.33	4.67	-2.33	-0.33	-0.33
1966	127.071	12.33	0.67	-3.33	0.67	2.67	-2.33	5.67	-0.33	-4.33	3.67	-5.33	-4.33	-5.33	-1.33	4.67	3.67	-4.33	0.67	2.67	-2.33	-2.33	2.67	-2.33	-0.33	1.67	-3.33	-4.33
1973	127.55	13.33	-2.33	-2.33	-2.33	-3.33	-4.33	-6.33	-8.33	3.67	3.67	-3.33	-4.33	-5.33	1.67	-3.33	0.67	-2.33	-6.33	3.67	-6.33	-2.33	0.67	-3.33	-4.33	-3.33	-6.33	-0.33
1980	128.03	7.67	6.33	7.33	5.33	-1.67	-0.67	4.33	0.33	-0.67	-1.67	5.33	6.33	6.33	10.33	-0.67	6.33	1.33	14.33	4.33	-0.67	1.33	3.33	3.33	-0.67	4.33	5.33	-1.67
1987	128.51	12.33	-0.33	-1.33	-3.33	-6.33	-1.33	-4.33	4.67	5.67	-2.33	-5.33	-2.33	-1.33	-8.33	-2.33	-5.33	-1.33	0.67	-1.33	0.67	-2.33	-2.33	0.67	-0.33	-3.33	1.67	-3.33
1994	128.99	11.67	-3.67	-7.67	-2.67	-4.67	-3.67	-2.67	2.33	-4.67	-5.67	2.33	-2.67	1.33	3.33	-1.67	-1.67	-1.67	0.33	-4.67	4.33	-1.67	-1.67	3.33	-3.67	-2.67	-0.67	-6.67
2001	129.471	7.0	6.0	1.0	-3.0	3.0	-2.0	0.0	-3.0	6.0	4.0	4.0	3.0	1.0	8.0	3.0	8.0	0.0	-3.0	4.0	5.0	7.0	3.0	6.0	2.0	3.0	7.0	4.0
2008	129.952	9.33	0.67	0.67	-3.33	2.67	4.67	2.67	-2.33	1.67	1.67	2.67	-3.33	-2.33	1.67	3.67	-0.33	0.67	0.67	-3.33	5.67	1.67	-1.33	-0.33	3.67	5.67	-1.33	2.67
2015	130.433	5.0	6.0	1.0	-1.0	4.0	3.0	6.0	8.0	3.0	3.0	2.0	3.0	6.0	4.0	3.0	4.0	13.0	6.0	2.0	6.0	2.0	2.0	6.0	2.0	0.0	7.0	2.0
2022	130.915	10.0	-3.0	3.0	-3.0	1.0	-6.0	-2.0	-1.0	3.0	-6.0	0.0	-1.0	-4.0	-4.0	-7.0	3.0	-4.0	-3.0	1.0	-2.0	-1.0	-1.0	5.0	-2.0	5.0	3.0	-3.0
2029	131.397	12.33	-2.33	-0.33	-4.33	-2.33	-5.33	-6.33	-3.33	-1.33	-5.33	-5.33	-4.33	-7.33	-4.33	-2.33	-0.33	-3.33	-6.33	-6.33	-6.33	-3.33	-0.33	-5.33	-5.33	0.67	-3.33	-3.33
2036	131.879	7.33	-0.33	1.67	4.67	0.67	-1.33	-0.33	-1.33	4.67	-0.33	0.67	0.67	4.67	0.67	-0.33	-0.33	-1.33	0.67	1.67	1.67	3.67	9.67	2.67	0.67	6.67	1.67	-2.33
2043	132.362	6.33	1.67	5.67	3.67	-2.33	-2.33	0.67	2.67	1.67	4.67	1.67	7.67	1.67	6.67	3.67	7.67	7.67	4.67	0.67	2.67	5.67	7.67	4.67	0.67	-1.33	2.67	4.67
2047	132.638	6.33	4.67	-0.33	5.67	4.67	0.67	2.67	0.67	0.67	1.67	1.67	6.67	0.67	-3.33	0.67	6.67	2.67	7.67	0.67	5.67	0.67	3.67	2.67	-0.33	0.67	2.67	-4.33