File: EDX Back Ups and Old Files/EDX Processed Data/High pH SF 60C 4d.txt
Name: High pH SF 60C 4d
Number of Scans: 29
Positions: [-13.0, -12.75, -12.5, -12.25, -12.0, -11.75, -11.5, -11.25, -11.0, -10.75, -10.5, -10.25, -10.0, -9.75, -9.5, -9.25, -9.0, -8.75, -8.5, -8.25, -8.0, -7.75, -7.5, -7.25, -7.0, -6.75, -6.5, -6.25, -6.0]
Points per Scan: 2048
Sample Edge: 3
Scans Off Sample: [0, 1, 2]
Conversion Features: [(275, 17444.3), (309, 19608.3), (913, 57981.7), (934, 59318.24), (1058, 67244.3)]
Degree of Fit: 3
Fit Coeffecients: [ 8.59183e-07 -0.001482  64.3003 -144.207]
pH: High
Steel Fiber: True
Aging Temp.: 60
Aging Atm.: 100% CO2
Aging Humidity: None
Aging Time: 4

*********
#Bins	Energy [keV]	Avg. Background	-12.25	-12.0	-11.75	-11.5	-11.25	-11.0	-10.75	-10.5	-10.25	-10.0	-9.75	-9.5	-9.25	-9.0	-8.75	-8.5	-8.25	-8.0	-7.75	-7.5	-7.25	-7.0	-6.75	-6.5	-6.25	-6.0
6	0.242	1820.33	69.67	-31.33	70.67	90.67	56.67	124.67	56.67	72.67	72.67	-44.33	88.67	87.67	46.67	4.67	81.67	98.67	103.67	79.67	81.67	19.67	31.67	91.67	117.67	10.67	1.67	36.67
13	0.691	1276.33	53.67	-75.33	-33.33	-133.33	35.67	-8.33	58.67	1.67	-63.33	-21.33	4.67	50.67	10.67	-6.33	-57.33	-97.33	-68.33	0.67	30.67	-0.33	-41.33	2.67	-8.33	5.67	-32.33	-81.33
20	1.141	314.0	9.0	-31.0	9.0	4.0	3.0	20.0	-32.0	-13.0	3.0	-21.0	24.0	11.0	10.0	10.0	28.0	10.0	18.0	29.0	-2.0	4.0	6.0	-24.0	-3.0	30.0	14.0	10.0
27	1.591	52.0	0.0	8.0	0.0	-1.0	-3.0	2.0	-2.0	1.0	-7.0	-5.0	5.0	10.0	4.0	-4.0	-15.0	1.0	-1.0	12.0	-7.0	-1.0	2.0	8.0	0.0	10.0	6.0	-3.0
34	2.04	7.67	1.33	0.33	-2.67	-0.67	-1.67	0.33	-1.67	1.33	-1.67	-2.67	2.33	-1.67	0.33	0.33	-0.67	-1.67	-0.67	1.33	-3.67	-1.67	-5.67	-0.67	3.33	-4.67	-1.67	2.33
41	2.49	1.0	0.0	-1.0	-1.0	-1.0	0.0	3.0	-1.0	1.0	-1.0	-1.0	-1.0	0.0	0.0	0.0	-1.0	-1.0	-1.0	0.0	1.0	1.0	-1.0	0.0	0.0	-1.0	0.0	1.0
48	2.939	0.67	-0.67	0.33	-0.67	-0.67	-0.67	0.33	-0.67	0.33	-0.67	-0.67	0.33	-0.67	0.33	-0.67	0.33	0.33	0.33	1.33	-0.67	-0.67	0.33	0.33	-0.67	-0.67	-0.67	-0.67
55	3.388	0.33	-0.33	-0.33	0.67	-0.33	-0.33	0.67	-0.33	0.67	-0.33	-0.33	-0.33	-0.33	-0.33	2.67	0.67	-0.33	-0.33	-0.33	0.67	-0.33	-0.33	0.67	-0.33	0.67	0.67	-0.33
62	3.837	0.33	1.67	-0.33	-0.33	0.67	-0.33	0.67	0.67	-0.33	0.67	-0.33	-0.33	0.67	0.67	0.67	-0.33	0.67	-0.33	1.67	0.67	-0.33	1.67	-0.33	-0.33	-0.33	0.67	-0.33
69	4.286	0.67	0.33	-0.67	-0.67	-0.67	0.33	-0.67	-0.67	-0.67	1.33	-0.67	-0.67	-0.67	0.33	0.33	-0.67	-0.67	0.33	-0.67	-0.67	-0.67	-0.67	-0.67	-0.67	0.33	-0.67	-0.67
76	4.734	0.33	-0.33	-0.33	-0.33	0.67	0.67	0.67	1.67	-0.33	-0.33	1.67	-0.33	-0.33	-0.33	-0.33	-0.33	-0.33	0.67	-0.33	-0.33	0.67	-0.33	-0.33	-0.33	1.67	-0.33	-0.33
83	5.183	0.33	-0.33	-0.33	-0.33	-0.33	1.67	-0.33	-0.33	0.67	0.67	-0.33	0.67	-0.33	0.67	0.67	-0.33	-0.33	0.67	0.67	-0.33	0.67	1.67	-0.33	1.67	-0.33	0.67	-0.33
90	5.631	0.33	0.67	-0.33	0.67	-0.33	-0.33	-0.33	0.67	-0.33	0.67	0.67	-0.33	-0.33	-0.33	1.67	-0.33	1.67	-0.33	-0.33	-0.33	1.67	2.67	0.67	-0.33	0.67	1.67	-0.33
97	6.08	1.67	-0.67	-0.67	-0.67	-0.67	-1.67	0.33	0.33	-0.67	1.33	1.33	-0.67	0.33	0.33	-0.67	-1.67	-0.67	-1.67	-0.67	-0.67	-0.67	0.33	-0.67	0.33	-0.67	-1.67	-0.67
104	6.528	0.33	0.67	0.67	-0.33	0.67	0.67	1.67	-0.33	1.67	0.67	-0.33	-0.33	0.67	1.67	0.67	0.67	2.67	2.67	-0.33	1.67	-0.33	-0.33	0.67	2.67	1.67	1.67	1.67
111	6.976	4.0	-2.0	-2.0	-3.0	-1.0	0.0	-3.0	-2.0	-1.0	0.0	-3.0	-3.0	0.0	-2.0	-2.0	-2.0	-4.0	-1.0	-1.0	-1.0	-3.0	-2.0	-1.0	-2.0	-4.0	-2.0	-3.0
118	7.424	3.67	3.33	-0.67	-0.67	-2.67	-0.67	1.33	2.33	0.33	-1.67	-1.67	-1.67	2.33	0.33	-0.67	-0.67	-1.67	-0.67	-2.67	1.33	1.33	-0.67	0.33	-1.67	-2.67	1.33	-1.67
125	7.872	6.0	0.0	0.0	1.0	-1.0	-2.0	-1.0	1.0	-2.0	-4.0	0.0	-3.0	3.0	-1.0	-2.0	-3.0	-1.0	-1.0	3.0	-2.0	3.0	1.0	-3.0	-3.0	0.0	-1.0	3.0
132	8.32	6.0	3.0	4.0	3.0	1.0	2.0	6.0	2.0	1.0	-1.0	1.0	-2.0	1.0	-1.0	-2.0	1.0	1.0	0.0	0.0	-4.0	4.0	7.0	-1.0	2.0	1.0	0.0	1.0
139	8.767	8.0	-4.0	-2.0	-1.0	-4.0	-3.0	0.0	0.0	3.0	-3.0	-2.0	1.0	3.0	-4.0	-1.0	-2.0	-1.0	6.0	9.0	-1.0	1.0	2.0	-2.0	-1.0	4.0	3.0	3.0
146	9.215	10.33	0.67	1.67	-2.33	-7.33	-0.33	3.67	-5.33	-4.33	-0.33	-5.33	0.67	4.67	-1.33	2.67	-0.33	3.67	2.67	-2.33	2.67	-2.33	1.67	0.67	-1.33	0.67	3.67	-2.33
153	9.662	8.33	1.67	0.67	-0.33	2.67	-0.33	5.67	-0.33	8.67	1.67	-0.33	1.67	1.67	5.67	3.67	1.67	7.67	7.67	5.67	4.67	2.67	-1.33	3.67	1.67	4.67	1.67	6.67
160	10.109	10.67	0.33	-3.67	1.33	-1.67	3.33	-0.67	-1.67	-4.67	4.33	3.33	1.33	-0.67	-1.67	7.33	8.33	-4.67	-1.67	0.33	-4.67	1.33	-3.67	3.33	-0.67	-2.67	3.33	6.33
167	10.557	12.67	-3.67	-4.67	-2.67	2.33	0.33	1.33	-6.67	-4.67	-3.67	-1.67	0.33	2.33	6.33	-5.67	1.33	-3.67	-2.67	-3.67	-2.67	-1.67	3.33	-1.67	-5.67	-2.67	1.33	-1.67
174	11.004	14.33	-8.33	0.67	-1.33	2.67	-4.33	-4.33	-4.33	-3.33	-7.33	-4.33	-0.33	-3.33	-3.33	-4.33	0.67	-0.33	-6.33	-2.33	-2.33	2.67	-4.33	-2.33	-5.33	-2.33	2.67	1.67
181	11.451	9.67	2.33	0.33	6.33	-1.67	1.33	-2.67	-1.67	3.33	-3.67	-0.67	0.33	8.33	5.33	2.33	5.33	3.33	13.33	8.33	-1.67	2.33	3.33	3.33	2.33	5.33	1.33	0.33
188	11.898	12.67	6.33	-6.67	-3.67	-5.67	1.33	-8.67	-6.67	0.33	0.33	0.33	-7.67	-3.67	0.33	2.33	-1.67	-2.67	-3.67	-6.67	1.33	-3.67	-1.67	6.33	-0.67	1.33	3.33	-3.67
195	12.344	10.0	-2.0	0.0	0.0	-6.0	1.0	0.0	0.0	0.0	-1.0	5.0	6.0	-1.0	-1.0	3.0	-7.0	-2.0	0.0	7.0	0.0	-1.0	1.0	-2.0	-4.0	2.0	6.0	-2.0
202	12.791	10.33	0.67	7.67	4.67	1.67	2.67	0.67	1.67	-3.33	-1.33	-3.33	3.67	-0.33	5.67	2.67	-2.33	-1.33	5.67	-0.33	0.67	1.67	-4.33	-0.33	0.67	1.67	6.67	-3.33
209	13.238	9.0	8.0	4.0	4.0	6.0	-1.0	-3.0	6.0	-4.0	-5.0	1.0	1.0	9.0	6.0	6.0	3.0	4.0	2.0	3.0	3.0	1.0	2.0	1.0	7.0	4.0	4.0	11.0
216	13.684	10.33	0.67	-2.33	-4.33	2.67	4.67	3.67	0.67	0.67	2.67	3.67	9.67	-3.33	-0.33	-1.33	-1.33	2.67	1.67	0.67	5.67	8.67	-5.33	-0.33	-2.33	2.67	6.67	5.67
223	14.131	8.33	2.67	11.67	1.67	3.67	1.67	7.67	2.67	-0.33	1.67	6.67	0.67	2.67	3.67	7.67	7.67	3.67	3.67	12.67	-0.33	4.67	0.67	5.67	8.67	-1.33	-1.33	4.67
230	14.577	10.67	3.33	1.33	2.33	-1.67	3.33	2.33	-0.67	-2.67	-1.67	2.33	-2.67	-0.67	-3.67	1.33	-2.67	2.33	5.33	1.33	8.33	1.33	-1.67	0.33	-1.67	5.33	-4.67	3.33
237	15.023	6.67	7.33	8.33	4.33	4.33	0.33	12.33	0.33	6.33	4.33	6.33	9.33	3.33	5.33	6.33	3.33	7.33	-2.67	2.33	5.33	4.33	10.33	5.33	1.33	9.33	3.33	2.33
244	15.469	10.0	0.0	1.0	2.0	-6.0	1.0	4.0	1.0	-2.0	4.0	2.0	5.0	1.0	-1.0	2.0	0.0	2.0	3.0	0.0	6.0	-1.0	2.0	5.0	1.0	1.0	1.0	0.0
251	15.915	14.67	4.33	-3.67	-3.67	0.33	-3.67	0.33	-2.67	-3.67	-5.67	-7.67	-3.67	-4.67	-0.67	-1.67	0.33	4.33	-5.67	-5.67	-0.67	-4.67	-4.67	-1.67	0.33	2.33	1.33	-3.67
258	16.361	11.0	-1.0	5.0	-4.0	2.0	-2.0	-1.0	5.0	-8.0	-3.0	1.0	2.0	0.0	-1.0	0.0	6.0	2.0	2.0	2.0	3.0	10.0	-1.0	-1.0	-7.0	5.0	0.0	-7.0
265	16.807	9.33	2.67	2.67	3.67	3.67	-1.33	-2.33	-4.33	7.67	1.67	0.67	-1.33	2.67	-1.33	6.67	3.67	3.67	-0.33	2.67	7.67	5.67	2.67	10.67	0.67	6.67	6.67	0.67
272	17.253	14.67	-4.67	-5.67	-0.67	-7.67	-0.67	-4.67	-2.67	-2.67	1.33	-2.67	-2.67	-5.67	-3.67	-1.67	3.33	-0.67	-6.67	-5.67	-5.67	-6.67	0.33	0.33	-1.67	-1.67	-5.67	-7.67
279	17.699	13.0	0.0	-5.0	0.0	-2.0	-3.0	-2.0	-6.0	0.0	-4.0	0.0	-5.0	0.0	-1.0	-5.0	-2.0	-5.0	-1.0	7.0	-6.0	4.0	-1.0	2.0	-4.0	1.0	-1.0	-3.0
286	18.145	12.0	-8.0	2.0	-2.0	0.0	-2.0	0.0	-4.0	5.0	-3.0	-6.0	-1.0	-1.0	0.0	-2.0	0.0	8.0	5.0	-1.0	-3.0	0.0	4.0	1.0	-5.0	-4.0	0.0	1.0
293	18.59	6.33	-2.33	0.67	4.67	4.67	5.67	0.67	4.67	7.67	4.67	1.67	7.67	4.67	9.67	0.67	6.67	10.67	15.67	0.67	4.67	5.67	6.67	8.67	4.67	3.67	1.67	18.67
300	19.036	11.33	0.67	4.67	-2.33	5.67	3.67	0.67	6.67	3.67	-2.33	2.67	2.67	0.67	-1.33	-3.33	0.67	-3.33	-8.33	-5.33	0.67	0.67	-0.33	-3.33	-6.33	3.67	-2.33	4.67
307	19.481	9.0	-2.0	-1.0	-2.0	-4.0	9.0	2.0	0.0	2.0	3.0	7.0	4.0	3.0	1.0	0.0	3.0	8.0	10.0	1.0	0.0	1.0	1.0	1.0	3.0	7.0	3.0	2.0
314	19.927	10.0	-3.0	7.0	-1.0	-1.0	5.0	-2.0	-5.0	4.0	0.0	3.0	0.0	4.0	-4.0	2.0	2.0	2.0	0.0	6.0	-3.0	3.0	3.0	6.0	3.0	-1.0	-2.0	3.0
321	20.372	7.33	0.67	0.67	-1.33	2.67	6.67	-4.33	-1.33	10.67	5.67	4.67	6.67	4.67	4.67	3.67	7.67	12.67	0.67	1.67	-2.33	1.67	16.67	5.67	7.67	3.67	1.67	-3.33
328	20.817	9.0	3.0	1.0	0.0	-2.0	1.0	1.0	-3.0	4.0	-5.0	2.0	2.0	2.0	0.0	5.0	-1.0	4.0	3.0	4.0	5.0	2.0	2.0	2.0	-3.0	5.0	1.0	-5.0
335	21.262	10.0	-4.0	-2.0	3.0	-4.0	4.0	-1.0	2.0	-4.0	-6.0	3.0	0.0	-2.0	-7.0	-4.0	4.0	2.0	2.0	-7.0	1.0	0.0	2.0	-3.0	-1.0	-3.0	0.0	0.0
342	21.708	11.67	-2.67	-2.67	-0.67	0.33	1.33	-1.67	3.33	4.33	-1.67	-0.67	-2.67	3.33	-1.67	-0.67	-2.67	2.33	-4.67	-6.67	-0.67	-2.67	2.33	-5.67	-3.67	-7.67	-3.67	3.33
349	22.153	10.33	-2.33	0.67	-0.33	4.67	-3.33	-1.33	-2.33	-3.33	2.67	-1.33	2.67	1.67	8.67	1.67	-0.33	3.67	-1.33	-0.33	-4.33	-0.33	3.67	0.67	-0.33	2.67	0.67	7.67
356	22.598	13.0	-3.0	-1.0	-1.0	-3.0	-5.0	-4.0	-5.0	2.0	-6.0	-6.0	-6.0	1.0	5.0	-5.0	-1.0	-1.0	-4.0	-3.0	3.0	-8.0	-4.0	3.0	2.0	0.0	-6.0	0.0
363	23.043	11.0	2.0	6.0	0.0	-5.0	-1.0	1.0	-2.0	-2.0	-1.0	-5.0	3.0	-2.0	-3.0	0.0	-8.0	-8.0	-5.0	-3.0	2.0	-3.0	6.0	5.0	0.0	0.0	-2.0	-2.0
370	23.488	8.67	3.33	1.33	4.33	-2.67	-0.67	-0.67	0.33	-1.67	-0.67	-2.67	-0.67	1.33	5.33	-3.67	2.33	5.33	1.33	3.33	3.33	3.33	-1.67	-6.67	0.33	3.33	0.33	5.33
377	23.932	8.0	-1.0	0.0	-4.0	0.0	8.0	2.0	1.0	3.0	8.0	8.0	6.0	2.0	0.0	5.0	-2.0	2.0	-4.0	-3.0	2.0	-1.0	3.0	-1.0	0.0	-1.0	5.0	6.0
384	24.377	7.67	1.33	-0.67	4.33	0.33	7.33	7.33	2.33	1.33	6.33	2.33	3.33	-1.67	1.33	4.33	-6.67	5.33	-0.67	0.33	-0.67	10.33	4.33	1.33	4.33	2.33	-2.67	1.33
391	24.822	8.33	2.67	3.67	-5.33	-4.33	0.67	-3.33	0.67	3.67	0.67	0.67	-2.33	3.67	-1.33	-0.33	3.67	5.67	0.67	8.67	3.67	-2.33	1.67	2.67	-1.33	2.67	3.67	-1.33
398	25.267	8.33	-3.33	2.67	-3.33	0.67	-0.33	1.67	4.67	3.67	4.67	2.67	-0.33	-2.33	1.67	-2.33	-0.33	2.67	1.67	6.67	1.67	-4.33	5.67	2.67	2.67	10.67	4.67	5.67
405	25.711	7.67	0.33	2.33	3.33	0.33	3.33	-4.67	3.33	1.33	-0.67	2.33	5.33	5.33	-2.67	1.33	0.33	0.33	1.33	3.33	6.33	7.33	-0.67	-0.67	4.33	2.33	6.33	-0.67
412	26.156	7.33	3.67	-0.33	2.67	-0.33	4.67	-1.33	-1.33	-2.33	-3.33	0.67	0.67	2.67	-0.33	-0.33	0.67	-1.33	-2.33	-2.33	4.67	2.67	0.67	-3.33	-6.33	1.67	2.67	-0.33
419	26.601	4.67	4.33	0.33	6.33	2.33	4.33	4.33	2.33	1.33	4.33	6.33	2.33	11.33	10.33	5.33	4.33	4.33	4.33	3.33	9.33	6.33	4.33	4.33	6.33	1.33	2.33	2.33
426	27.045	7.0	-2.0	-1.0	7.0	1.0	3.0	2.0	0.0	8.0	2.0	2.0	3.0	-1.0	3.0	3.0	-2.0	2.0	7.0	0.0	7.0	2.0	1.0	4.0	5.0	2.0	7.0	2.0
433	27.49	7.0	-3.0	-1.0	8.0	1.0	-2.0	1.0	-1.0	-4.0	-1.0	2.0	-1.0	0.0	-2.0	0.0	5.0	4.0	9.0	0.0	2.0	-1.0	3.0	5.0	2.0	-1.0	2.0	-4.0
440	27.934	3.33	-2.33	5.67	3.67	6.67	1.67	3.67	7.67	5.67	1.67	3.67	2.67	7.67	4.67	-0.33	6.67	2.67	5.67	2.67	3.67	1.67	2.67	5.67	1.67	4.67	5.67	4.67
447	28.379	7.0	1.0	1.0	1.0	-1.0	-5.0	-1.0	2.0	1.0	1.0	-1.0	2.0	-3.0	3.0	1.0	5.0	1.0	-3.0	1.0	-3.0	1.0	4.0	3.0	1.0	0.0	2.0	0.0
454	28.823	7.67	0.33	0.33	3.33	0.33	2.33	2.33	-3.67	0.33	0.33	1.33	-3.67	6.33	1.33	5.33	-1.67	2.33	-6.67	-0.67	-1.67	2.33	-0.67	-2.67	1.33	0.33	-2.67	0.33
461	29.267	6.33	-3.33	-3.33	-2.33	-2.33	0.67	5.67	-1.33	5.67	0.67	0.67	3.67	0.67	-0.33	4.67	-1.33	1.67	0.67	-2.33	4.67	1.67	-1.33	2.67	2.67	1.67	1.67	-2.33
468	29.712	6.0	-3.0	-1.0	6.0	3.0	-3.0	0.0	1.0	4.0	-2.0	0.0	5.0	-1.0	4.0	0.0	0.0	-1.0	6.0	3.0	6.0	-1.0	1.0	1.0	-2.0	0.0	0.0	-1.0
475	30.156	7.0	3.0	-3.0	2.0	0.0	3.0	1.0	-3.0	-3.0	4.0	-2.0	1.0	1.0	-5.0	-4.0	0.0	-2.0	0.0	-1.0	-1.0	-5.0	0.0	2.0	-1.0	0.0	1.0	3.0
482	30.6	8.33	-3.33	-2.33	-4.33	-1.33	3.67	-1.33	-0.33	-2.33	0.67	-3.33	-2.33	-7.33	-1.33	-3.33	-3.33	-7.33	-4.33	-2.33	-4.33	0.67	4.67	0.67	-0.33	-0.33	0.67	-5.33
489	31.045	8.0	1.0	-2.0	-4.0	-3.0	1.0	-4.0	0.0	-6.0	-1.0	-1.0	-3.0	-3.0	-3.0	-4.0	1.0	2.0	-4.0	-2.0	-3.0	-3.0	-5.0	-2.0	-4.0	-5.0	4.0	-1.0
496	31.489	6.0	2.0	-1.0	-1.0	2.0	0.0	-3.0	0.0	-1.0	4.0	3.0	0.0	-1.0	0.0	1.0	1.0	2.0	-2.0	0.0	2.0	1.0	1.0	2.0	2.0	0.0	-3.0	-2.0
503	31.933	7.0	0.0	3.0	-5.0	-4.0	1.0	4.0	4.0	0.0	0.0	-1.0	1.0	-4.0	-3.0	-3.0	0.0	1.0	-2.0	2.0	-4.0	1.0	2.0	2.0	2.0	-1.0	-2.0	-2.0
510	32.377	7.67	-3.67	-3.67	-1.67	-5.67	-5.67	-1.67	-3.67	-1.67	1.33	0.33	-1.67	5.33	1.33	-4.67	-3.67	0.33	-1.67	-1.67	1.33	-5.67	2.33	2.33	2.33	1.33	3.33	-4.67
517	32.822	5.33	-0.33	1.67	-5.33	-0.33	-0.33	1.67	1.67	1.67	6.67	0.67	2.67	-3.33	0.67	-1.33	1.67	-3.33	4.67	-0.33	-0.33	1.67	3.67	3.67	2.67	1.67	-2.33	0.67
524	33.266	3.67	1.33	3.33	2.33	2.33	-1.67	4.33	4.33	3.33	-0.67	3.33	0.33	0.33	-0.67	-0.67	-0.67	0.33	8.33	2.33	0.33	2.33	-0.67	3.33	2.33	7.33	5.33	5.33
531	33.71	5.33	-0.33	2.67	-2.33	-0.33	-2.33	-0.33	-0.33	1.67	0.67	6.67	-2.33	-1.33	-0.33	-2.33	3.67	2.67	0.67	1.67	-1.33	3.67	4.67	5.67	0.67	2.67	1.67	-0.33
538	34.154	8.0	-1.0	0.0	1.0	1.0	-2.0	-5.0	-1.0	-5.0	-3.0	-1.0	0.0	1.0	0.0	-2.0	1.0	-2.0	-3.0	-5.0	-2.0	-1.0	-2.0	-4.0	-4.0	-6.0	-3.0	-4.0
545	34.598	6.33	-3.33	-3.33	0.67	-1.33	4.67	-2.33	-2.33	-0.33	0.67	3.67	-2.33	-3.33	-3.33	-3.33	-1.33	-0.33	-1.33	0.67	-4.33	-3.33	5.67	-5.33	0.67	4.67	-4.33	4.67
552	35.043	4.67	1.33	0.33	0.33	2.33	3.33	-0.67	3.33	3.33	4.33	-0.67	2.33	5.33	0.33	8.33	2.33	2.33	4.33	3.33	1.33	0.33	-3.67	2.33	4.33	1.33	0.33	4.33
559	35.487	3.0	0.0	1.0	3.0	1.0	1.0	3.0	0.0	2.0	6.0	3.0	1.0	0.0	0.0	0.0	8.0	1.0	4.0	6.0	3.0	1.0	4.0	1.0	7.0	2.0	4.0	-1.0
566	35.931	5.0	-2.0	2.0	4.0	-1.0	-1.0	0.0	2.0	3.0	6.0	1.0	2.0	1.0	-3.0	-1.0	1.0	1.0	-1.0	5.0	-4.0	-1.0	1.0	5.0	1.0	1.0	-2.0	3.0
573	36.375	4.33	2.67	-0.33	4.67	-1.33	2.67	2.67	-1.33	4.67	6.67	3.67	2.67	2.67	2.67	4.67	0.67	4.67	2.67	-0.33	-0.33	0.67	3.67	2.67	1.67	3.67	2.67	-1.33
580	36.819	5.0	0.0	-1.0	-4.0	-1.0	1.0	2.0	0.0	2.0	0.0	0.0	3.0	2.0	-2.0	4.0	3.0	1.0	4.0	-2.0	1.0	0.0	2.0	1.0	4.0	2.0	0.0	1.0
587	37.263	7.33	0.67	-3.33	-1.33	-1.33	-0.33	-1.33	-4.33	0.67	-0.33	-1.33	-1.33	-3.33	1.67	1.67	-2.33	-2.33	-0.33	-1.33	-5.33	-1.33	5.67	-1.33	-3.33	0.67	-1.33	-5.33
594	37.707	5.67	-1.67	-0.67	1.33	-0.67	3.33	-2.67	1.33	-2.67	-0.67	-3.67	3.33	0.33	-1.67	-2.67	-2.67	4.33	-0.67	-0.67	-1.67	2.33	2.33	3.33	3.33	-0.67	1.33	4.33
601	38.152	6.0	-1.0	1.0	-2.0	1.0	1.0	0.0	4.0	-4.0	-1.0	-1.0	-1.0	2.0	-4.0	-3.0	-4.0	2.0	3.0	-2.0	-4.0	4.0	-2.0	1.0	1.0	3.0	-1.0	2.0
608	38.596	7.67	-6.67	-0.67	-1.67	-1.67	-4.67	-2.67	-0.67	-1.67	-1.67	-0.67	-2.67	-2.67	-2.67	-2.67	1.33	-2.67	3.33	3.33	-3.67	2.33	-1.67	-3.67	0.33	-1.67	-0.67	-4.67
615	39.04	6.33	-1.33	-2.33	-1.33	3.67	-2.33	0.67	-2.33	0.67	3.67	3.67	1.67	-2.33	-3.33	-1.33	1.67	0.67	0.67	0.67	-1.33	-0.33	-2.33	-0.33	-1.33	-2.33	1.67	-0.33
622	39.484	5.33	-2.33	1.67	1.67	0.67	0.67	0.67	-2.33	0.67	-2.33	1.67	0.67	-0.33	4.67	2.67	-1.33	3.67	-1.33	-1.33	-1.33	2.67	1.67	-1.33	3.67	-1.33	-0.33	3.67
629	39.928	8.33	-4.33	-4.33	0.67	-5.33	-1.33	-1.33	-0.33	0.67	-1.33	-1.33	-4.33	-0.33	-5.33	-1.33	-3.33	1.67	-2.33	-2.33	-5.33	-2.33	7.67	-2.33	-4.33	-3.33	-4.33	-4.33
636	40.372	6.67	-1.67	7.33	0.33	-0.67	-2.67	-0.67	-0.67	1.33	-2.67	-2.67	-2.67	-1.67	-4.67	1.33	-2.67	-0.67	-4.67	-3.67	-4.67	0.33	2.33	-3.67	-1.67	2.33	1.33	-0.67
643	40.817	7.67	0.33	-2.67	-0.67	1.33	-0.67	-5.67	-3.67	-2.67	-2.67	-0.67	-3.67	-0.67	-1.67	1.33	-2.67	-4.67	0.33	-0.67	-3.67	-0.67	2.33	-2.67	-2.67	0.33	-2.67	-5.67
650	41.261	7.67	-4.67	2.33	-3.67	-2.67	-5.67	1.33	1.33	-3.67	-0.67	-4.67	2.33	-3.67	-4.67	-6.67	-1.67	-3.67	0.33	-2.67	2.33	1.33	-3.67	-1.67	1.33	-0.67	-4.67	-4.67
657	41.705	7.67	1.33	-3.67	-1.67	-1.67	-3.67	-1.67	-2.67	-4.67	-0.67	0.33	1.33	-1.67	-2.67	-3.67	-0.67	-2.67	-3.67	-2.67	4.33	0.33	1.33	0.33	-3.67	-0.67	-3.67	-3.67
664	42.149	10.0	-5.0	-2.0	-8.0	0.0	-8.0	-4.0	-6.0	-4.0	-6.0	-5.0	1.0	-6.0	3.0	-6.0	-3.0	-1.0	-5.0	-5.0	0.0	-3.0	-9.0	-8.0	-2.0	-3.0	-6.0	-4.0
671	42.594	12.0	-8.0	-8.0	-11.0	-6.0	-7.0	-9.0	-2.0	-8.0	-5.0	-3.0	-9.0	-8.0	-4.0	-4.0	-6.0	-7.0	-6.0	-8.0	-5.0	-9.0	-5.0	-7.0	-6.0	-3.0	-7.0	-9.0
678	43.038	7.33	-2.33	7.67	-0.33	-0.33	-3.33	-0.33	1.67	-4.33	-2.33	-2.33	0.67	-0.33	3.67	-4.33	0.67	-2.33	-0.33	1.67	-0.33	-2.33	3.67	1.67	-1.33	-1.33	-0.33	0.67
685	43.482	8.33	-0.33	-4.33	-3.33	-5.33	-2.33	-3.33	0.67	-0.33	-5.33	-3.33	-0.33	-1.33	-5.33	-2.33	-2.33	-3.33	1.67	-0.33	-1.33	-2.33	-3.33	-0.33	-2.33	0.67	1.67	-3.33
692	43.927	10.0	-3.0	-4.0	0.0	-1.0	-3.0	0.0	-4.0	-3.0	-8.0	-7.0	-6.0	-2.0	-3.0	-2.0	-4.0	2.0	0.0	-5.0	-6.0	-3.0	-3.0	-2.0	0.0	-4.0	-1.0	-7.0
699	44.371	10.33	-1.33	-3.33	-5.33	-0.33	-4.33	-5.33	-2.33	-2.33	-5.33	-9.33	-4.33	-2.33	-4.33	-4.33	-2.33	-4.33	-3.33	-7.33	-5.33	-8.33	-5.33	-8.33	-5.33	-4.33	-6.33	-4.33
706	44.815	9.33	-1.33	-5.33	-0.33	-2.33	0.67	-1.33	0.67	-6.33	-2.33	-5.33	-3.33	0.67	-7.33	5.67	-3.33	-1.33	-1.33	-6.33	-1.33	-7.33	0.67	-4.33	-3.33	-2.33	-5.33	-0.33
713	45.26	11.0	-1.0	-6.0	-3.0	-7.0	-3.0	1.0	-3.0	-2.0	-1.0	-2.0	-2.0	-6.0	-4.0	0.0	-3.0	0.0	-6.0	-4.0	-3.0	-5.0	-2.0	-1.0	-4.0	-7.0	-2.0	-7.0
720	45.704	10.0	0.0	0.0	-2.0	-3.0	-4.0	-8.0	-2.0	0.0	-3.0	-1.0	2.0	-5.0	-6.0	-6.0	-1.0	-7.0	-1.0	4.0	-4.0	-1.0	-6.0	-5.0	2.0	-5.0	4.0	-1.0
727	46.149	13.33	-8.33	-6.33	-6.33	-2.33	-2.33	-9.33	-7.33	-9.33	-5.33	-6.33	-7.33	-5.33	-5.33	-7.33	-8.33	-9.33	-8.33	-7.33	-5.33	-2.33	-5.33	-6.33	-4.33	-3.33	-8.33	-11.33
734	46.594	15.0	-12.0	-7.0	-10.0	-1.0	-8.0	-12.0	-7.0	-9.0	-8.0	-8.0	-4.0	-7.0	-8.0	-7.0	-7.0	-8.0	-9.0	-11.0	-8.0	-11.0	-12.0	-7.0	-8.0	-7.0	-8.0	-4.0
741	47.038	15.67	-11.67	-9.67	-8.67	-11.67	-5.67	-4.67	-9.67	-7.67	-10.67	-8.67	-12.67	-10.67	-8.67	-4.67	-9.67	-4.67	-8.67	-9.67	-10.67	-8.67	-7.67	-9.67	-6.67	-7.67	-9.67	-9.67
748	47.483	16.0	-9.0	-7.0	-10.0	-13.0	-7.0	-3.0	-8.0	-8.0	0.0	-9.0	-8.0	-6.0	-8.0	-8.0	-12.0	-9.0	-11.0	-12.0	-5.0	-8.0	-11.0	-2.0	-8.0	-10.0	-10.0	-7.0
755	47.928	12.33	-8.33	-1.33	-5.33	-5.33	-6.33	-2.33	-2.33	-1.33	-0.33	-3.33	-5.33	2.67	-7.33	-3.33	-3.33	-6.33	0.67	-7.33	-1.33	-2.33	4.67	-5.33	-4.33	-3.33	-4.33	-7.33
762	48.372	12.33	-4.33	-6.33	3.67	-3.33	-1.33	-7.33	3.67	-6.33	-6.33	-6.33	-1.33	-7.33	-3.33	-1.33	-2.33	0.67	-6.33	-3.33	-9.33	-4.33	-6.33	-3.33	-5.33	-1.33	-4.33	-3.33
769	48.817	17.33	-3.33	-11.33	-11.33	-2.33	-10.33	-1.33	-6.33	-11.33	-8.33	-8.33	-9.33	-12.33	-5.33	-10.33	-9.33	-7.33	-5.33	-8.33	-6.33	-4.33	-8.33	-8.33	-7.33	-11.33	-5.33	-5.33
776	49.262	16.33	-12.33	-6.33	-9.33	-5.33	-9.33	-2.33	-9.33	-6.33	-6.33	-4.33	-4.33	-7.33	-7.33	-5.33	-8.33	-6.33	-10.33	-4.33	-7.33	-6.33	-4.33	-6.33	-7.33	-8.33	-8.33	-7.33
783	49.707	12.0	-3.0	-4.0	-2.0	-4.0	2.0	-7.0	-4.0	-6.0	-3.0	-1.0	-4.0	1.0	0.0	-3.0	-4.0	-4.0	-4.0	-7.0	1.0	1.0	-2.0	-7.0	-1.0	-2.0	-6.0	-1.0
790	50.152	12.33	1.67	-4.33	-3.33	-0.33	-8.33	-0.33	1.67	-1.33	-3.33	0.67	-0.33	-3.33	3.67	-0.33	0.67	-3.33	-1.33	2.67	1.67	2.67	-5.33	-2.33	-2.33	-4.33	-0.33	-7.33
797	50.597	11.67	2.33	0.33	3.33	3.33	2.33	8.33	10.33	11.33	6.33	6.33	5.33	4.33	10.33	8.33	1.33	5.33	-2.67	4.33	-0.67	6.33	-1.67	9.33	3.33	4.33	6.33	2.33
804	51.042	17.33	-0.33	-7.33	-6.33	4.67	7.67	8.67	9.67	14.67	10.67	19.67	10.67	10.67	5.67	9.67	7.67	6.67	7.67	4.67	0.67	11.67	13.67	8.67	-4.33	6.67	-0.33	8.67
811	51.487	11.33	9.67	2.67	2.67	10.67	23.67	35.67	41.67	35.67	41.67	28.67	40.67	31.67	34.67	34.67	43.67	36.67	22.67	17.67	17.67	15.67	26.67	25.67	25.67	16.67	31.67	20.67
818	51.932	20.67	2.33	-11.67	4.33	-0.67	-2.67	18.33	31.33	12.33	24.33	24.33	23.33	11.33	21.33	9.33	20.33	11.33	13.33	9.33	10.33	6.33	9.33	16.33	5.33	11.33	-0.67	5.33
825	52.377	14.67	-6.67	-8.67	-0.67	-1.67	-1.67	6.33	5.33	9.33	4.33	-0.67	1.33	5.33	3.33	4.33	4.33	0.33	8.33	12.33	10.33	3.33	-2.67	4.33	3.33	19.33	-7.67	8.33
832	52.823	21.0	-13.0	-7.0	-11.0	-12.0	-7.0	-4.0	-7.0	-3.0	-6.0	-4.0	-12.0	-4.0	-10.0	-7.0	-9.0	-12.0	-6.0	-12.0	-6.0	-9.0	-6.0	-7.0	-10.0	-9.0	-7.0	-12.0
839	53.268	16.0	-7.0	-3.0	-6.0	-3.0	-6.0	-12.0	7.0	-8.0	0.0	-1.0	-5.0	3.0	-6.0	-2.0	-5.0	-4.0	-7.0	-4.0	-3.0	-1.0	-5.0	0.0	-5.0	-8.0	-5.0	-8.0
846	53.713	16.0	-8.0	-3.0	-7.0	-8.0	-7.0	-2.0	1.0	-6.0	-6.0	-2.0	-5.0	-5.0	1.0	-2.0	-7.0	-3.0	-5.0	-1.0	-6.0	-7.0	-7.0	7.0	-5.0	-6.0	-6.0	0.0
853	54.159	18.67	-10.67	-4.67	-5.67	-6.67	-11.67	-8.67	-1.67	-1.67	-2.67	-12.67	-3.67	-3.67	-8.67	-8.67	-1.67	-11.67	-2.67	0.33	-5.67	-2.67	-4.67	-5.67	-7.67	-9.67	-12.67	-6.67
860	54.604	12.0	-5.0	-5.0	-4.0	-4.0	0.0	0.0	1.0	0.0	1.0	4.0	4.0	-5.0	-7.0	4.0	0.0	1.0	0.0	2.0	-2.0	-1.0	3.0	4.0	0.0	7.0	3.0	-6.0
867	55.05	19.33	-7.33	-11.33	-10.33	-2.33	-8.33	-9.33	-8.33	-4.33	-9.33	-8.33	-10.33	-10.33	-7.33	-7.33	-13.33	-8.33	-8.33	-12.33	-12.33	-9.33	-8.33	-4.33	-4.33	-10.33	-9.33	-8.33
874	55.496	26.33	-16.33	-17.33	-13.33	-15.33	-13.33	-10.33	-11.33	-8.33	-19.33	-11.33	-17.33	-16.33	-6.33	-16.33	-19.33	-13.33	-17.33	-11.33	-18.33	-9.33	-12.33	-13.33	-13.33	-7.33	-15.33	-18.33
881	55.942	20.0	-11.0	-11.0	-12.0	-11.0	-5.0	-6.0	-2.0	-10.0	-11.0	-10.0	-10.0	-7.0	-4.0	-4.0	-6.0	-5.0	-4.0	1.0	-8.0	-9.0	-5.0	-9.0	-8.0	-7.0	-10.0	-7.0
888	56.387	18.0	-11.0	-5.0	-4.0	0.0	-1.0	-6.0	-5.0	-5.0	-5.0	-4.0	-7.0	-3.0	-6.0	0.0	0.0	-11.0	-9.0	-5.0	-9.0	-3.0	-13.0	-8.0	-8.0	-7.0	-12.0	-11.0
895	56.833	19.33	-12.33	-5.33	-10.33	2.67	1.67	-6.33	-11.33	-3.33	-5.33	-7.33	-9.33	-4.33	-8.33	-6.33	-9.33	-6.33	-7.33	-6.33	-8.33	-10.33	-2.33	-8.33	-4.33	-12.33	-4.33	-3.33
902	57.279	20.33	-7.33	-6.33	-10.33	1.67	-4.33	-2.33	-10.33	-13.33	-8.33	-12.33	-2.33	-1.33	-1.33	-7.33	-3.33	-11.33	-10.33	-3.33	-3.33	6.67	-10.33	-3.33	-6.33	-7.33	-4.33	-4.33
909	57.726	24.33	-7.33	-3.33	-4.33	-11.33	-4.33	-13.33	-7.33	-7.33	-18.33	-8.33	-7.33	-13.33	-11.33	-9.33	-6.33	-12.33	-14.33	-9.33	-4.33	-4.33	-7.33	-1.33	-6.33	-9.33	-5.33	-11.33
916	58.172	21.33	-12.33	-11.33	-13.33	-3.33	-3.33	0.67	-9.33	-0.33	-4.33	-8.33	-6.33	-5.33	-4.33	-11.33	-6.33	-2.33	-1.33	-2.33	-2.33	0.67	-5.33	-4.33	-0.33	-4.33	-7.33	-3.33
923	58.618	23.0	-15.0	-16.0	-9.0	-11.0	-9.0	-9.0	-11.0	-5.0	-6.0	-8.0	-11.0	-9.0	-11.0	-10.0	-4.0	-9.0	-5.0	-13.0	-8.0	-13.0	-8.0	-5.0	-11.0	-17.0	-8.0	-7.0
930	59.064	20.67	-11.67	3.33	1.33	-1.67	-4.67	4.33	-5.67	-3.67	-8.67	5.33	-2.67	-2.67	-11.67	0.33	-3.67	-2.67	3.33	-5.67	-1.67	-5.67	-0.67	-0.67	-6.67	5.33	-0.67	-3.67
937	59.511	24.33	-5.33	-2.33	-0.33	-9.33	-9.33	1.67	-2.33	-4.33	-7.33	-15.33	-7.33	-6.33	-6.33	-2.33	-5.33	-9.33	-2.33	-4.33	-4.33	-5.33	-9.33	0.67	-7.33	-1.33	-3.33	-5.33
944	59.957	25.67	-13.67	-6.67	-9.67	-11.67	-8.67	-12.67	-12.67	-10.67	-15.67	-9.67	-8.67	-15.67	-11.67	-12.67	-10.67	-16.67	-17.67	-15.67	-6.67	-13.67	-18.67	-7.67	-10.67	-10.67	-18.67	-12.67
951	60.404	20.0	-6.0	-9.0	-7.0	-15.0	-5.0	-4.0	-4.0	-8.0	-10.0	-4.0	-4.0	-6.0	-3.0	-7.0	-6.0	-9.0	2.0	-9.0	-9.0	-2.0	-9.0	-12.0	-9.0	-7.0	-5.0	-9.0
958	60.851	22.33	-7.33	-14.33	-12.33	-9.33	-5.33	-7.33	-11.33	-10.33	-11.33	-15.33	-14.33	-10.33	-11.33	-14.33	-6.33	-11.33	-5.33	-5.33	-6.33	-8.33	-7.33	-9.33	-12.33	-12.33	-9.33	-13.33
965	61.298	20.0	-10.0	-2.0	-8.0	-6.0	-11.0	-12.0	-6.0	-9.0	0.0	-9.0	-1.0	-3.0	-7.0	-7.0	-4.0	-7.0	-5.0	-7.0	-7.0	2.0	-10.0	-3.0	-8.0	-7.0	-10.0	-7.0
972	61.745	17.0	-6.0	-6.0	-4.0	0.0	-4.0	-2.0	-4.0	-6.0	-4.0	-7.0	-1.0	-5.0	8.0	-7.0	-3.0	-1.0	0.0	-2.0	-10.0	-4.0	-5.0	-3.0	-7.0	-4.0	-7.0	-8.0
979	62.192	21.67	-8.67	-10.67	-7.67	-1.67	-2.67	-5.67	-3.67	-8.67	-11.67	-6.67	-7.67	-1.67	-14.67	-4.67	-6.67	-9.67	-7.67	-12.67	-7.67	-11.67	-12.67	-11.67	-8.67	-12.67	-6.67	-6.67
986	62.639	24.33	-10.33	-10.33	-5.33	-12.33	-15.33	-7.33	-18.33	-8.33	-8.33	-11.33	-8.33	-9.33	-14.33	-11.33	-6.33	-14.33	-11.33	-10.33	-7.33	-16.33	-1.33	-10.33	-9.33	-4.33	-3.33	-14.33
993	63.086	23.33	-14.33	-5.33	-4.33	1.67	-1.33	-12.33	-0.33	-8.33	-1.33	-7.33	-4.33	-9.33	-5.33	-5.33	-12.33	-14.33	-6.33	-13.33	-10.33	-7.33	4.67	-9.33	-11.33	-7.33	-13.33	-9.33
1000	63.533	21.33	-7.33	-11.33	-6.33	-8.33	-7.33	-10.33	-8.33	-4.33	-7.33	-12.33	-5.33	-6.33	-5.33	-5.33	-7.33	-7.33	-11.33	-7.33	0.67	-8.33	-1.33	-4.33	-5.33	-8.33	-7.33	-8.33
1007	63.981	19.67	-10.67	-6.67	-3.67	-0.67	-6.67	-0.67	-1.67	-1.67	-6.67	-6.67	3.33	-8.67	-2.67	-1.67	-5.67	-5.67	-4.67	-6.67	-5.67	-8.67	-2.67	-0.67	-4.67	-4.67	0.33	-0.67
1014	64.428	22.33	-5.33	-4.33	-10.33	-6.33	-1.33	-1.33	-5.33	-5.33	-8.33	-5.33	-8.33	-11.33	-13.33	-0.33	-11.33	3.67	-5.33	-13.33	-11.33	-0.33	-6.33	-4.33	-14.33	-1.33	-7.33	-3.33
1021	64.876	19.33	6.67	6.67	1.67	1.67	4.67	-6.33	-2.33	5.67	-4.33	-0.33	1.67	-3.33	-4.33	-6.33	-3.33	-1.33	4.67	-5.33	-7.33	-6.33	-5.33	-3.33	-0.33	3.67	-2.33	-0.33
1028	65.324	20.0	-1.0	19.0	8.0	5.0	19.0	25.0	13.0	9.0	8.0	12.0	2.0	17.0	4.0	10.0	13.0	6.0	9.0	10.0	5.0	13.0	7.0	7.0	7.0	5.0	6.0	-5.0
1035	65.772	18.33	7.67	35.67	39.67	26.67	36.67	13.67	20.67	13.67	11.67	10.67	13.67	4.67	11.67	18.67	15.67	17.67	5.67	19.67	14.67	10.67	12.67	10.67	13.67	28.67	9.67	10.67
1042	66.22	20.33	8.67	33.67	22.67	16.67	12.67	14.67	1.67	6.67	8.67	0.67	7.67	0.67	10.67	3.67	1.67	15.67	12.67	11.67	-0.33	7.67	4.67	7.67	11.67	8.67	12.67	2.67
1049	66.668	22.33	-2.33	-0.33	6.67	-2.33	-3.33	-2.33	-1.33	-3.33	3.67	-10.33	4.67	1.67	4.67	4.67	-2.33	-3.33	5.67	-0.33	-6.33	9.67	-5.33	-4.33	9.67	4.67	0.67	-2.33
1056	67.116	20.33	5.67	4.67	-0.33	3.67	-0.33	-1.33	-0.33	-3.33	-0.33	0.67	-2.33	2.67	0.67	1.67	-5.33	-3.33	1.67	3.67	4.67	-3.33	5.67	-2.33	7.67	-7.33	-3.33	3.67
1063	67.564	20.67	-5.67	-3.67	1.33	0.33	-8.67	-1.67	-8.67	-2.67	-4.67	-4.67	-2.67	-7.67	-7.67	-3.67	2.33	-3.67	-0.67	-0.67	0.33	3.33	-3.67	-5.67	-5.67	-8.67	-11.67	-8.67
1070	68.013	22.33	-2.33	-8.33	-2.33	-10.33	-3.33	-1.33	-0.33	-8.33	-8.33	-8.33	-3.33	-2.33	-0.33	-3.33	-6.33	-5.33	-3.33	-0.33	-6.33	-1.33	-5.33	-6.33	-8.33	-5.33	-3.33	2.67
1077	68.462	17.67	0.33	-9.67	4.33	7.33	0.33	-0.67	0.33	-3.67	-5.67	0.33	3.33	2.33	7.33	-2.67	-4.67	0.33	-5.67	-6.67	1.33	3.33	-0.67	1.33	-2.67	6.33	-5.67	6.33
1084	68.91	19.67	-8.67	4.33	-6.67	-1.67	-1.67	-6.67	-1.67	-2.67	3.33	1.33	0.33	-3.67	-3.67	0.33	1.33	-1.67	-3.67	-3.67	-8.67	-7.67	-7.67	-7.67	-4.67	-4.67	-5.67	0.33
1091	69.359	20.67	-3.67	-2.67	-1.67	-2.67	-0.67	-2.67	-2.67	-3.67	-4.67	1.33	4.33	-4.67	-7.67	-2.67	-6.67	-8.67	-1.67	-4.67	-3.67	-2.67	-4.67	-2.67	-2.67	-2.67	0.33	-9.67
1098	69.808	14.67	1.33	-1.67	4.33	8.33	5.33	0.33	3.33	1.33	2.33	2.33	1.33	-0.67	-0.67	-5.67	0.33	-1.67	8.33	5.33	-2.67	3.33	-2.67	1.33	-2.67	7.33	6.33	-2.67
1105	70.257	16.67	-5.67	-1.67	-1.67	0.33	-6.67	2.33	-5.67	-6.67	-2.67	-0.67	-3.67	5.33	7.33	-4.67	-4.67	-0.67	-4.67	1.33	3.33	2.33	-6.67	3.33	-0.67	5.33	-0.67	2.33
1112	70.707	17.33	-0.33	1.67	-0.33	-9.33	5.67	-6.33	-4.33	-0.33	-3.33	9.67	-0.33	-1.33	5.67	4.67	1.67	-6.33	-2.33	-2.33	-1.33	4.67	-2.33	-2.33	-3.33	-1.33	2.67	0.67
1119	71.156	14.33	8.67	1.67	2.67	-1.33	3.67	0.67	-1.33	-0.33	4.67	-3.33	1.67	-2.33	6.67	-2.33	5.67	3.67	-3.33	7.67	0.67	1.67	7.67	2.67	0.67	-0.33	-2.33	1.67
1126	71.606	14.0	-3.0	13.0	3.0	0.0	7.0	2.0	-2.0	2.0	6.0	0.0	8.0	5.0	2.0	3.0	2.0	5.0	2.0	0.0	6.0	2.0	0.0	5.0	6.0	5.0	4.0	3.0
1133	72.055	15.33	-4.33	-2.33	2.67	-3.33	12.67	2.67	1.67	4.67	3.67	2.67	5.67	13.67	-2.33	-2.33	-3.33	6.67	-7.33	6.67	0.67	0.67	6.67	-2.33	-0.33	8.67	6.67	6.67
1140	72.505	17.33	-4.33	-7.33	4.67	13.67	5.67	9.67	-0.33	0.67	1.67	-4.33	11.67	3.67	0.67	2.67	9.67	-1.33	6.67	2.67	-6.33	4.67	2.67	2.67	5.67	6.67	17.67	8.67
1147	72.955	28.0	2.0	8.0	5.0	9.0	8.0	-1.0	12.0	7.0	4.0	1.0	10.0	9.0	10.0	4.0	-3.0	-4.0	11.0	4.0	-6.0	5.0	10.0	9.0	13.0	3.0	5.0	11.0
1154	73.405	25.0	6.0	-2.0	-6.0	2.0	-2.0	2.0	-2.0	5.0	-4.0	3.0	8.0	6.0	6.0	-3.0	6.0	-9.0	-2.0	4.0	-1.0	3.0	6.0	1.0	8.0	3.0	-5.0	9.0
1161	73.855	19.0	-1.0	-2.0	-2.0	-2.0	0.0	5.0	1.0	-1.0	-2.0	0.0	2.0	4.0	-6.0	3.0	4.0	6.0	3.0	3.0	5.0	6.0	1.0	5.0	11.0	-2.0	-4.0	0.0
1168	74.306	19.67	-4.67	2.33	1.33	3.33	1.33	0.33	7.33	1.33	-0.67	4.33	0.33	-1.67	-1.67	-1.67	-3.67	4.33	-4.67	-6.67	3.33	-9.67	1.33	-6.67	5.33	-2.67	3.33	-1.67
1175	74.756	32.33	-4.33	-8.33	-7.33	0.67	-4.33	0.67	-1.33	7.67	-8.33	-3.33	-3.33	-10.33	-12.33	-1.33	-0.33	-7.33	1.67	-1.33	-0.33	-4.33	-1.33	2.67	0.67	-1.33	-5.33	-9.33
1182	75.207	45.0	-11.0	4.0	-10.0	-1.0	16.0	-8.0	13.0	5.0	9.0	3.0	2.0	-6.0	-3.0	13.0	5.0	5.0	2.0	1.0	-7.0	0.0	10.0	7.0	15.0	-7.0	8.0	3.0
1189	75.658	29.33	-4.33	4.67	3.67	-1.33	-3.33	-5.33	-0.33	13.67	-0.33	4.67	7.67	-2.33	9.67	0.67	-1.33	-5.33	5.67	2.67	3.67	10.67	11.67	-0.33	5.67	6.67	9.67	3.67
1196	76.109	15.33	1.67	-2.33	3.67	4.67	7.67	5.67	2.67	6.67	12.67	7.67	0.67	8.67	3.67	-3.33	6.67	1.67	2.67	-1.33	2.67	2.67	-4.33	9.67	3.67	4.67	4.67	-0.33
1203	76.56	17.0	-1.0	1.0	1.0	2.0	1.0	6.0	-3.0	-2.0	-3.0	3.0	2.0	8.0	1.0	-6.0	-2.0	2.0	-3.0	3.0	6.0	1.0	0.0	6.0	-1.0	-4.0	-1.0	4.0
1210	77.011	16.33	-1.33	-4.33	0.67	-3.33	5.67	2.67	2.67	-3.33	-5.33	-0.33	-1.33	3.67	9.67	-1.33	-2.33	-7.33	5.67	1.67	3.67	-5.33	-0.33	-0.33	3.67	-0.33	7.67	-0.33
1217	77.463	16.33	5.67	2.67	1.67	-0.33	7.67	3.67	4.67	-0.33	2.67	-1.33	3.67	-2.33	7.67	6.67	3.67	-3.33	-7.33	1.67	-4.33	-0.33	2.67	-0.33	2.67	6.67	11.67	-1.33
1224	77.915	19.33	-7.33	-5.33	-3.33	1.67	5.67	-2.33	-3.33	-3.33	-2.33	-0.33	4.67	5.67	-0.33	-1.33	-0.33	-1.33	3.67	-2.33	11.67	-7.33	2.67	-4.33	3.67	-8.33	-4.33	1.67
1231	78.366	17.0	0.0	4.0	5.0	6.0	5.0	11.0	11.0	-2.0	0.0	3.0	15.0	5.0	3.0	3.0	10.0	-1.0	9.0	-1.0	-4.0	5.0	6.0	-3.0	-2.0	-1.0	8.0	-1.0
1238	78.818	21.33	-3.33	-5.33	-3.33	-4.33	-2.33	4.67	-3.33	-6.33	-5.33	4.67	-0.33	0.67	9.67	4.67	-5.33	-1.33	0.67	1.67	-4.33	-10.33	-3.33	4.67	-1.33	-4.33	3.67	-5.33
1245	79.271	14.33	5.67	1.67	1.67	1.67	2.67	4.67	0.67	3.67	13.67	-1.33	3.67	11.67	8.67	7.67	3.67	9.67	0.67	-1.33	7.67	4.67	4.67	3.67	2.67	8.67	7.67	3.67
1252	79.723	17.33	1.67	4.67	1.67	2.67	-4.33	-3.33	0.67	5.67	4.67	7.67	7.67	1.67	-0.33	10.67	9.67	8.67	-2.33	1.67	-2.33	4.67	4.67	1.67	4.67	10.67	-0.33	12.67
1259	80.175	18.67	-1.67	3.33	8.33	9.33	-3.67	7.33	-1.67	2.33	8.33	-0.67	9.33	8.33	1.33	2.33	-2.67	-4.67	0.33	8.33	-1.67	4.33	-2.67	16.33	3.33	-2.67	4.33	-0.67
1266	80.628	21.0	2.0	-2.0	4.0	-8.0	7.0	3.0	2.0	3.0	6.0	-5.0	4.0	14.0	-7.0	-5.0	-3.0	14.0	1.0	-3.0	0.0	12.0	6.0	-2.0	10.0	2.0	10.0	3.0
1273	81.081	21.33	6.67	4.67	2.67	10.67	-1.33	3.67	8.67	8.67	9.67	5.67	11.67	2.67	8.67	-5.33	4.67	8.67	-1.33	13.67	4.67	-5.33	-0.33	2.67	-1.33	11.67	4.67	7.67
1280	81.534	11.33	13.67	17.67	10.67	14.67	21.67	23.67	20.67	19.67	8.67	21.67	26.67	25.67	14.67	19.67	28.67	21.67	21.67	13.67	21.67	24.67	17.67	14.67	22.67	14.67	21.67	22.67
1287	81.987	19.33	2.67	3.67	17.67	2.67	13.67	11.67	20.67	10.67	31.67	20.67	19.67	18.67	15.67	17.67	11.67	8.67	6.67	14.67	3.67	5.67	12.67	23.67	22.67	20.67	22.67	17.67
1294	82.441	16.0	17.0	42.0	51.0	45.0	27.0	35.0	21.0	32.0	34.0	26.0	20.0	19.0	21.0	25.0	23.0	9.0	10.0	28.0	33.0	22.0	21.0	29.0	21.0	16.0	14.0	20.0
1301	82.894	19.33	52.67	100.67	116.67	94.67	64.67	55.67	67.67	56.67	56.67	50.67	42.67	48.67	27.67	38.67	37.67	40.67	46.67	30.67	23.67	27.67	46.67	38.67	26.67	45.67	33.67	23.67
1308	83.348	22.33	80.67	249.67	217.67	166.67	135.67	98.67	107.67	92.67	96.67	90.67	78.67	72.67	67.67	74.67	69.67	76.67	57.67	63.67	48.67	60.67	63.67	65.67	64.67	70.67	55.67	42.67
1315	83.802	22.0	120.0	307.0	275.0	195.0	167.0	159.0	127.0	115.0	123.0	106.0	98.0	106.0	74.0	81.0	75.0	75.0	83.0	98.0	77.0	75.0	95.0	72.0	90.0	78.0	82.0	85.0
1322	84.256	24.67	113.33	263.33	216.33	206.33	125.33	115.33	113.33	100.33	73.33	77.33	97.33	102.33	81.33	86.33	57.33	77.33	84.33	91.33	91.33	78.33	85.33	73.33	73.33	71.33	56.33	53.33
1329	84.71	29.33	60.67	122.67	125.67	75.67	62.67	57.67	59.67	51.67	45.67	68.67	61.67	48.67	53.67	25.67	46.67	24.67	48.67	54.67	51.67	37.67	26.67	45.67	48.67	40.67	34.67	55.67
1336	85.165	35.67	15.33	32.33	19.33	31.33	20.33	16.33	17.33	18.33	13.33	-4.67	17.33	24.33	-6.67	10.33	4.33	12.33	16.33	16.33	29.33	1.33	-2.67	5.33	10.33	14.33	18.33	14.33
1343	85.619	33.0	-9.0	2.0	18.0	8.0	3.0	1.0	6.0	-4.0	-4.0	2.0	1.0	-2.0	4.0	-9.0	5.0	2.0	6.0	6.0	3.0	11.0	5.0	8.0	10.0	10.0	-3.0	9.0
1350	86.074	19.0	10.0	19.0	13.0	8.0	14.0	10.0	13.0	19.0	13.0	18.0	16.0	7.0	25.0	6.0	18.0	14.0	5.0	9.0	16.0	13.0	4.0	0.0	10.0	21.0	12.0	19.0
1357	86.529	24.0	4.0	-8.0	2.0	5.0	0.0	11.0	9.0	3.0	4.0	11.0	3.0	14.0	7.0	1.0	13.0	1.0	6.0	10.0	16.0	12.0	16.0	14.0	1.0	7.0	4.0	-3.0
1364	86.985	24.33	-5.33	-0.33	-12.33	8.67	1.67	0.67	0.67	5.67	0.67	10.67	-0.33	3.67	7.67	6.67	0.67	13.67	-0.33	11.67	0.67	12.67	9.67	3.67	1.67	4.67	7.67	15.67
1371	87.44	24.33	1.67	-0.33	4.67	-2.33	12.67	10.67	1.67	8.67	3.67	6.67	8.67	2.67	1.67	-1.33	4.67	4.67	2.67	3.67	10.67	7.67	-1.33	-6.33	1.67	-2.33	8.67	14.67
1378	87.896	32.67	-5.67	-10.67	-2.67	8.33	6.33	1.33	5.33	-4.67	0.33	0.33	2.33	-2.67	11.33	-5.67	4.33	-11.67	-3.67	-0.67	7.33	9.33	6.33	-9.67	0.33	2.33	5.33	-5.67
1385	88.352	22.67	1.33	13.33	6.33	9.33	5.33	4.33	7.33	13.33	9.33	9.33	3.33	8.33	1.33	10.33	14.33	6.33	0.33	14.33	2.33	17.33	8.33	5.33	12.33	1.33	6.33	12.33
1392	88.808	23.0	-6.0	-3.0	5.0	-4.0	15.0	11.0	11.0	9.0	5.0	4.0	2.0	5.0	0.0	4.0	11.0	10.0	-2.0	10.0	4.0	9.0	4.0	1.0	-4.0	12.0	4.0	15.0
1399	89.264	22.67	-2.67	18.33	17.33	4.33	12.33	8.33	2.33	7.33	7.33	2.33	8.33	6.33	13.33	11.33	1.33	2.33	8.33	16.33	5.33	11.33	11.33	2.33	6.33	5.33	4.33	1.33
1406	89.72	27.33	-1.33	5.67	0.67	-2.33	5.67	9.67	1.67	9.67	0.67	4.67	6.67	5.67	4.67	7.67	8.67	10.67	1.67	12.67	-1.33	6.67	2.67	-7.33	0.67	-3.33	-0.33	-0.33
1413	90.177	26.0	8.0	2.0	4.0	1.0	7.0	-5.0	7.0	8.0	0.0	11.0	4.0	-5.0	5.0	-3.0	5.0	7.0	2.0	6.0	9.0	4.0	15.0	-1.0	0.0	-5.0	11.0	7.0
1420	90.634	23.67	17.33	11.33	1.33	-0.67	7.33	18.33	7.33	14.33	8.33	11.33	2.33	8.33	11.33	1.33	2.33	3.33	9.33	15.33	14.33	8.33	10.33	6.33	3.33	9.33	18.33	7.33
1427	91.091	23.67	-5.67	11.33	1.33	10.33	5.33	19.33	5.33	11.33	4.33	13.33	1.33	5.33	10.33	7.33	0.33	7.33	9.33	-5.67	3.33	9.33	5.33	19.33	5.33	6.33	4.33	1.33
1434	91.549	23.67	-1.67	9.33	-0.67	5.33	13.33	12.33	2.33	14.33	13.33	2.33	3.33	17.33	19.33	3.33	9.33	10.33	10.33	8.33	1.33	2.33	12.33	7.33	12.33	10.33	9.33	5.33
1441	92.006	19.33	9.67	14.67	13.67	10.67	5.67	18.67	12.67	3.67	13.67	17.67	21.67	25.67	22.67	16.67	18.67	15.67	14.67	18.67	13.67	21.67	14.67	5.67	25.67	11.67	24.67	10.67
1448	92.464	20.67	7.33	8.33	11.33	11.33	6.33	13.33	15.33	11.33	10.33	6.33	-1.67	9.33	23.33	11.33	10.33	9.33	3.33	15.33	9.33	13.33	0.33	16.33	0.33	15.33	3.33	14.33
1455	92.922	33.33	-15.33	-11.33	-7.33	-11.33	4.67	-1.33	-2.33	-4.33	-1.33	-2.33	14.67	9.67	2.67	-4.33	-1.33	4.67	-13.33	-0.33	0.67	-0.33	-2.33	15.67	-3.33	-3.33	4.67	10.67
1462	93.38	25.67	-3.67	5.33	6.33	0.33	9.33	-1.67	-0.67	8.33	1.33	10.33	7.33	-4.67	3.33	4.33	14.33	-3.67	13.33	-0.67	3.33	-3.67	6.33	9.33	5.33	6.33	9.33	4.33
1469	93.839	31.33	4.67	-8.33	-3.33	-7.33	0.67	7.67	3.67	-4.33	9.67	-5.33	-0.33	1.67	10.67	-1.33	14.67	5.67	0.67	-5.33	3.67	-10.33	4.67	-2.33	-0.33	6.67	-2.33	9.67
1476	94.297	31.67	-3.67	-3.67	-4.67	1.33	2.33	3.33	1.33	-3.67	-1.67	1.33	-4.67	1.33	-0.67	4.33	-3.67	-1.67	8.33	-0.67	2.33	2.33	-3.67	0.33	-4.67	0.33	10.33	9.33
1483	94.756	27.67	0.33	9.33	2.33	10.33	4.33	4.33	2.33	7.33	-4.67	5.33	1.33	-6.67	0.33	5.33	2.33	19.33	11.33	10.33	9.33	3.33	1.33	1.33	6.33	15.33	6.33	8.33
1490	95.215	31.33	-2.33	4.67	-5.33	-4.33	10.67	16.67	6.67	-2.33	-0.33	-6.33	-2.33	4.67	4.67	5.67	0.67	-0.33	10.67	3.67	9.67	-7.33	-3.33	1.67	4.67	8.67	6.67	8.67
1497	95.675	28.33	-6.33	0.67	0.67	4.67	13.67	18.67	16.67	9.67	9.67	11.67	18.67	11.67	17.67	12.67	4.67	8.67	16.67	17.67	6.67	9.67	9.67	11.67	9.67	3.67	17.67	12.67
1504	96.134	29.0	-1.0	-4.0	8.0	4.0	19.0	17.0	14.0	22.0	17.0	12.0	10.0	12.0	27.0	5.0	7.0	18.0	14.0	18.0	28.0	18.0	16.0	14.0	27.0	10.0	18.0	16.0
1511	96.594	28.0	12.0	0.0	-2.0	9.0	19.0	30.0	15.0	15.0	33.0	23.0	25.0	10.0	25.0	28.0	25.0	30.0	26.0	20.0	26.0	15.0	22.0	21.0	30.0	19.0	30.0	23.0
1518	97.054	28.33	2.67	12.67	7.67	11.67	19.67	20.67	36.67	25.67	30.67	35.67	24.67	20.67	29.67	23.67	35.67	28.67	40.67	30.67	42.67	25.67	26.67	23.67	31.67	25.67	32.67	36.67
1525	97.514	35.0	-3.0	-10.0	-1.0	8.0	7.0	18.0	21.0	19.0	35.0	37.0	17.0	26.0	31.0	24.0	29.0	22.0	23.0	23.0	32.0	21.0	24.0	23.0	24.0	19.0	20.0	23.0
1532	97.975	29.33	10.67	-3.33	5.67	7.67	3.67	20.67	33.67	28.67	25.67	14.67	28.67	20.67	19.67	24.67	19.67	26.67	8.67	6.67	32.67	29.67	27.67	18.67	9.67	30.67	12.67	18.67
1539	98.436	26.0	-4.0	2.0	13.0	16.0	6.0	9.0	30.0	15.0	17.0	8.0	24.0	16.0	4.0	10.0	23.0	12.0	18.0	13.0	16.0	20.0	7.0	1.0	13.0	25.0	10.0	15.0
1546	98.897	28.33	-7.33	13.67	8.67	4.67	10.67	8.67	0.67	2.67	3.67	15.67	5.67	3.67	5.67	-2.33	5.67	12.67	20.67	2.67	12.67	5.67	7.67	8.67	11.67	12.67	13.67	9.67
1553	99.358	35.33	-5.33	0.67	7.67	4.67	5.67	2.67	6.67	-1.33	-4.33	-2.33	-1.33	-2.33	-2.33	5.67	10.67	-7.33	3.67	-0.33	-5.33	0.67	-4.33	6.67	-2.33	6.67	2.67	-0.33
1560	99.82	27.0	4.0	9.0	17.0	4.0	-3.0	10.0	6.0	4.0	6.0	0.0	8.0	8.0	9.0	13.0	10.0	11.0	11.0	4.0	-1.0	11.0	10.0	15.0	7.0	4.0	6.0	15.0
1567	100.281	29.67	0.33	5.33	-0.67	3.33	7.33	12.33	-0.67	12.33	-2.67	2.33	3.33	8.33	1.33	7.33	11.33	7.33	15.33	7.33	7.33	2.33	7.33	-2.67	6.33	19.33	7.33	8.33
1574	100.743	25.0	3.0	4.0	13.0	13.0	10.0	0.0	16.0	14.0	16.0	3.0	20.0	4.0	1.0	12.0	8.0	1.0	5.0	6.0	2.0	-2.0	22.0	8.0	-1.0	21.0	7.0	19.0
1581	101.206	25.67	9.33	9.33	19.33	4.33	20.33	6.33	16.33	13.33	-3.67	13.33	21.33	10.33	4.33	25.33	3.33	0.33	12.33	1.33	6.33	13.33	13.33	8.33	4.33	7.33	3.33	7.33
1588	101.668	26.33	13.67	1.67	21.67	13.67	17.67	11.67	14.67	21.67	7.67	12.67	16.67	10.67	8.67	-3.33	5.67	-2.33	13.67	-1.33	1.67	7.67	13.67	7.67	14.67	12.67	2.67	2.67
1595	102.131	26.67	3.33	10.33	16.33	2.33	13.33	15.33	17.33	4.33	6.33	15.33	13.33	0.33	1.33	19.33	18.33	16.33	10.33	12.33	1.33	-1.67	8.33	7.33	15.33	-0.67	9.33	6.33
1602	102.594	29.0	-1.0	6.0	15.0	13.0	10.0	10.0	-1.0	23.0	5.0	8.0	10.0	0.0	4.0	-2.0	12.0	11.0	20.0	6.0	11.0	-4.0	4.0	2.0	11.0	-5.0	7.0	3.0
1609	103.057	31.0	1.0	13.0	7.0	2.0	6.0	7.0	15.0	8.0	5.0	6.0	18.0	5.0	12.0	6.0	8.0	6.0	0.0	10.0	2.0	13.0	14.0	11.0	2.0	3.0	0.0	5.0
1616	103.521	27.0	13.0	6.0	-2.0	-4.0	20.0	16.0	11.0	-1.0	14.0	4.0	8.0	2.0	0.0	13.0	7.0	12.0	2.0	7.0	1.0	9.0	1.0	6.0	19.0	9.0	5.0	7.0
1623	103.985	27.33	-3.33	-5.33	6.67	10.67	9.67	5.67	4.67	17.67	6.67	-1.33	5.67	1.67	1.67	-4.33	8.67	4.67	12.67	4.67	13.67	8.67	2.67	9.67	5.67	1.67	2.67	-3.33
1630	104.449	27.33	-1.33	-6.33	1.67	1.67	-12.33	-1.33	-1.33	1.67	14.67	3.67	-0.33	-6.33	11.67	-0.33	1.67	1.67	8.67	2.67	-0.33	2.67	1.67	5.67	8.67	7.67	7.67	4.67
1637	104.913	28.67	1.33	-0.67	-1.67	8.33	5.33	4.33	-0.67	2.33	5.33	6.33	-1.67	3.33	-2.67	-1.67	-3.67	-7.67	0.33	-5.67	-4.67	-1.67	4.33	2.33	-0.67	1.33	4.33	-1.67
1644	105.378	27.33	5.67	2.67	-0.33	-3.33	13.67	4.67	-5.33	2.67	2.67	11.67	-2.33	-3.33	-4.33	9.67	2.67	-7.33	-4.33	-1.33	4.67	4.67	-1.33	-6.33	5.67	-4.33	4.67	6.67
1651	105.843	27.67	-9.67	-1.67	-7.67	4.33	-3.67	-10.67	-0.67	-2.67	3.33	8.33	-1.67	-2.67	-0.67	-5.67	10.33	-1.67	-1.67	-3.67	-2.67	-7.67	2.33	10.33	-10.67	11.33	-5.67	0.33
1658	106.308	26.0	8.0	1.0	-2.0	-1.0	6.0	9.0	3.0	-2.0	9.0	4.0	-2.0	0.0	-11.0	2.0	5.0	7.0	14.0	9.0	-2.0	5.0	6.0	-4.0	5.0	7.0	9.0	0.0
1665	106.773	33.33	-7.33	2.67	-2.33	-8.33	-7.33	-16.33	-6.33	-11.33	-7.33	-0.33	-12.33	-11.33	-7.33	2.67	6.67	-3.33	-2.33	-3.33	-4.33	-7.33	1.67	-5.33	-3.33	-6.33	-6.33	0.67
1672	107.239	26.0	0.0	4.0	-5.0	13.0	-3.0	-6.0	9.0	-3.0	-3.0	-2.0	2.0	3.0	5.0	5.0	2.0	2.0	7.0	14.0	-5.0	2.0	7.0	4.0	5.0	-4.0	2.0	0.0
1679	107.705	24.33	5.67	5.67	-0.33	-1.33	-2.33	7.67	-3.33	4.67	-1.33	-5.33	1.67	3.67	4.67	8.67	3.67	-2.33	2.67	-5.33	-4.33	-2.33	-6.33	8.67	-7.33	1.67	-8.33	13.67
1686	108.171	28.33	-6.33	-8.33	-0.33	-5.33	-1.33	-0.33	-10.33	0.67	-6.33	-0.33	0.67	0.67	1.67	2.67	-2.33	-2.33	-9.33	-9.33	-7.33	0.67	-9.33	-1.33	4.67	-2.33	-3.33	7.67
1693	108.638	25.67	-9.67	-3.67	-2.67	0.33	4.33	-1.67	-1.67	0.33	-8.67	-11.67	8.33	3.33	1.33	3.33	-12.67	-7.67	-9.67	3.33	-1.67	5.33	-4.67	-1.67	13.33	-1.67	-1.67	7.33
1700	109.105	20.0	-4.0	11.0	4.0	7.0	6.0	4.0	7.0	7.0	7.0	6.0	2.0	12.0	7.0	9.0	0.0	6.0	3.0	7.0	10.0	7.0	6.0	2.0	1.0	3.0	-2.0	0.0
1707	109.572	21.67	-2.67	-1.67	1.33	-2.67	9.33	5.33	5.33	6.33	3.33	-4.67	2.33	-4.67	3.33	0.33	11.33	3.33	-4.67	7.33	7.33	-5.67	3.33	12.33	7.33	2.33	7.33	12.33
1714	110.039	20.33	-5.33	-1.33	-2.33	-1.33	16.67	-0.33	1.67	-3.33	-1.33	-0.33	11.67	5.67	2.67	-0.33	11.67	13.67	13.67	10.67	12.67	2.67	5.67	5.67	-1.33	-1.33	-3.33	3.67
1721	110.507	21.0	-2.0	0.0	-2.0	9.0	14.0	-4.0	1.0	6.0	4.0	1.0	12.0	0.0	0.0	-2.0	3.0	13.0	0.0	6.0	6.0	4.0	14.0	7.0	8.0	9.0	3.0	2.0
1728	110.975	23.33	12.67	-4.33	-1.33	0.67	5.67	8.67	-7.33	0.67	3.67	5.67	-7.33	0.67	8.67	-1.33	-7.33	10.67	5.67	7.67	-2.33	9.67	-3.33	1.67	-6.33	0.67	6.67	2.67
1735	111.443	20.0	-1.0	1.0	5.0	11.0	4.0	-7.0	7.0	0.0	1.0	0.0	0.0	8.0	2.0	-2.0	12.0	3.0	6.0	4.0	5.0	0.0	6.0	6.0	4.0	6.0	2.0	13.0
1742	111.912	23.67	-5.67	1.33	5.33	-6.67	-3.67	0.33	3.33	6.33	2.33	-9.67	2.33	-3.67	6.33	-1.67	1.33	-2.67	1.33	0.33	-4.67	-6.67	-4.67	0.33	5.33	-4.67	10.33	-5.67
1749	112.38	22.67	-5.67	12.33	5.33	1.33	2.33	5.33	2.33	1.33	0.33	-5.67	2.33	-0.67	5.33	9.33	2.33	0.33	-0.67	11.33	-3.67	1.33	11.33	14.33	1.33	5.33	2.33	10.33
1756	112.85	22.0	-10.0	3.0	3.0	2.0	-6.0	1.0	5.0	10.0	3.0	1.0	6.0	14.0	4.0	-4.0	4.0	-3.0	-4.0	-8.0	-4.0	8.0	3.0	-2.0	-1.0	2.0	-2.0	-1.0
1763	113.319	22.33	-3.33	-2.33	1.67	3.67	1.67	6.67	4.67	-3.33	17.67	7.67	10.67	-1.33	-1.33	-0.33	-5.33	4.67	-3.33	-2.33	3.67	1.67	5.67	-4.33	8.67	-8.33	2.67	0.67
1770	113.789	19.33	-2.33	-5.33	-2.33	3.67	-6.33	-4.33	1.67	-1.33	4.67	0.67	9.67	-1.33	-5.33	9.67	-0.33	5.67	-0.33	10.67	-2.33	9.67	-3.33	5.67	0.67	-3.33	-0.33	-4.33
1777	114.259	19.67	-2.67	-2.67	3.33	1.33	1.33	3.33	2.33	-4.67	-7.67	-9.67	8.33	-8.67	-3.67	2.33	-1.67	2.33	-1.67	-0.67	-6.67	-4.67	3.33	5.33	3.33	-0.67	0.33	3.33
1784	114.729	15.67	6.33	0.33	1.33	-5.67	6.33	7.33	2.33	10.33	-4.67	13.33	4.33	9.33	9.33	-2.67	0.33	13.33	2.33	6.33	-0.67	-0.67	6.33	8.33	7.33	1.33	3.33	8.33
1791	115.2	21.0	-6.0	-2.0	-8.0	-7.0	-3.0	-2.0	1.0	-2.0	-2.0	-4.0	2.0	-3.0	-1.0	0.0	-11.0	1.0	-4.0	-1.0	-3.0	2.0	-6.0	-6.0	3.0	-11.0	-8.0	1.0
1798	115.671	17.0	5.0	-3.0	5.0	-5.0	1.0	8.0	7.0	2.0	-9.0	2.0	0.0	1.0	1.0	1.0	8.0	-4.0	4.0	-3.0	1.0	5.0	4.0	-5.0	-2.0	3.0	0.0	4.0
1805	116.142	12.33	3.67	3.67	2.67	1.67	1.67	5.67	11.67	9.67	-0.33	0.67	6.67	7.67	-0.33	-0.33	8.67	8.67	0.67	2.67	5.67	0.67	10.67	0.67	12.67	4.67	2.67	7.67
1812	116.614	14.67	-1.67	3.33	-2.67	3.33	2.33	-1.67	-0.67	-2.67	2.33	-0.67	5.33	0.33	4.33	-3.67	8.33	2.33	4.33	6.33	5.33	1.33	4.33	4.33	3.33	8.33	4.33	5.33
1819	117.086	13.67	4.33	-0.67	-0.67	6.33	-4.67	2.33	1.33	-3.67	3.33	4.33	8.33	3.33	3.33	2.33	4.33	-1.67	12.33	6.33	7.33	1.33	8.33	-0.67	2.33	3.33	-0.67	-1.67
1826	117.558	13.33	0.67	7.67	-2.33	5.67	3.67	0.67	6.67	3.67	2.67	-0.33	-3.33	0.67	5.67	0.67	-1.33	0.67	-0.33	2.67	1.67	8.67	5.67	3.67	15.67	3.67	6.67	0.67
1833	118.03	17.33	1.67	8.67	7.67	-3.33	5.67	4.67	-9.33	0.67	3.67	-0.33	1.67	-1.33	-1.33	2.67	-2.33	-1.33	-1.33	-1.33	-7.33	2.67	0.67	-2.33	-2.33	2.67	4.67	1.67
1840	118.503	10.67	-1.67	4.33	7.33	6.33	11.33	3.33	4.33	5.33	0.33	6.33	6.33	1.33	6.33	5.33	1.33	19.33	6.33	10.33	8.33	3.33	-0.67	2.33	1.33	3.33	8.33	8.33
1847	118.976	16.0	-2.0	1.0	-11.0	4.0	6.0	-3.0	2.0	-4.0	2.0	-1.0	-2.0	-4.0	-1.0	-2.0	-5.0	0.0	-3.0	2.0	2.0	4.0	9.0	-3.0	-3.0	0.0	0.0	-6.0
1854	119.45	13.67	-3.67	2.33	7.33	2.33	1.33	1.33	-7.67	1.33	7.33	1.33	3.33	-0.67	-0.67	2.33	1.33	2.33	-1.67	4.33	9.33	-0.67	2.33	1.33	3.33	0.33	-5.67	4.33
1861	119.924	14.0	-3.0	-1.0	4.0	0.0	6.0	0.0	-4.0	2.0	3.0	9.0	7.0	1.0	2.0	3.0	-4.0	0.0	-1.0	7.0	-4.0	-2.0	2.0	-4.0	1.0	2.0	2.0	-3.0
1868	120.398	12.0	-1.0	5.0	-2.0	5.0	-2.0	4.0	-2.0	2.0	-2.0	2.0	3.0	2.0	3.0	1.0	4.0	-3.0	3.0	3.0	6.0	2.0	6.0	5.0	9.0	3.0	0.0	3.0
1875	120.872	15.33	-2.33	0.67	-3.33	1.67	-4.33	1.67	-1.33	-1.33	-5.33	-2.33	-8.33	-3.33	-2.33	4.67	-0.33	0.67	-1.33	-6.33	-5.33	1.67	1.67	-5.33	0.67	-1.33	2.67	-4.33
1882	121.347	11.67	-3.67	1.33	4.33	3.33	0.33	-4.67	-4.67	4.33	12.33	2.33	6.33	-0.67	5.33	6.33	6.33	0.33	1.33	0.33	1.33	-3.67	-0.67	1.33	0.33	7.33	2.33	2.33
1889	121.822	11.0	-2.0	6.0	5.0	6.0	-1.0	0.0	0.0	-1.0	-2.0	-1.0	2.0	0.0	6.0	4.0	2.0	-4.0	6.0	5.0	7.0	3.0	10.0	1.0	5.0	6.0	7.0	4.0
1896	122.298	12.0	-4.0	3.0	6.0	4.0	4.0	9.0	2.0	1.0	2.0	-3.0	1.0	4.0	5.0	-2.0	6.0	8.0	3.0	8.0	0.0	-2.0	1.0	5.0	5.0	7.0	7.0	1.0
1903	122.773	10.33	4.67	2.67	5.67	4.67	13.67	2.67	1.67	-1.33	-1.33	4.67	11.67	5.67	8.67	-4.33	7.67	2.67	8.67	5.67	-0.33	-1.33	10.67	7.67	5.67	7.67	2.67	5.67
1910	123.25	9.33	-1.33	8.67	8.67	5.67	4.67	2.67	1.67	1.67	0.67	10.67	11.67	4.67	2.67	4.67	3.67	6.67	3.67	6.67	5.67	1.67	1.67	7.67	5.67	17.67	5.67	3.67
1917	123.726	11.0	3.0	6.0	4.0	-1.0	3.0	6.0	3.0	4.0	3.0	8.0	-4.0	-3.0	-1.0	-4.0	11.0	1.0	5.0	-4.0	1.0	1.0	3.0	10.0	5.0	-4.0	2.0	1.0
1924	124.203	10.33	0.67	-0.33	4.67	2.67	-3.33	3.67	1.67	2.67	-1.33	4.67	-1.33	2.67	3.67	-0.33	-1.33	-0.33	2.67	0.67	-1.33	6.67	-5.33	8.67	2.67	6.67	-0.33	-1.33
1931	124.68	14.0	-1.0	-5.0	-6.0	2.0	2.0	-3.0	-4.0	4.0	-2.0	-3.0	-6.0	6.0	1.0	3.0	-6.0	-2.0	7.0	-1.0	0.0	2.0	-9.0	-7.0	3.0	1.0	-4.0	-2.0
1938	125.158	12.67	-4.67	-5.67	-4.67	-3.67	1.33	0.33	-4.67	-2.67	-0.67	1.33	4.33	-0.67	2.33	-4.67	-1.67	-3.67	1.33	3.33	10.33	3.33	-1.67	0.33	0.33	-6.67	-1.67	-5.67
1945	125.635	11.67	-5.67	3.33	4.33	6.33	0.33	0.33	3.33	0.33	-10.67	-3.67	2.33	-1.67	3.33	-6.67	1.33	-0.67	-2.67	4.33	-5.67	-2.67	2.33	3.33	-3.67	-2.67	4.33	-7.67
1952	126.114	12.33	-1.33	0.67	-2.33	1.67	4.67	2.67	-3.33	2.67	2.67	-2.33	2.67	-2.33	-1.33	-3.33	1.67	-0.33	-0.33	-2.33	2.67	1.67	-1.33	7.67	2.67	2.67	1.67	-1.33
1959	126.592	12.0	2.0	-8.0	4.0	2.0	0.0	3.0	-4.0	-5.0	-3.0	-1.0	1.0	-5.0	-3.0	-2.0	-4.0	2.0	0.0	-2.0	0.0	10.0	-5.0	-4.0	-5.0	0.0	1.0	1.0
1966	127.071	11.67	1.33	1.33	2.33	3.33	-0.67	-1.67	1.33	-3.67	3.33	-2.67	-0.67	-2.67	0.33	-1.67	-2.67	-2.67	-3.67	0.33	-2.67	-0.67	-3.67	-1.67	-1.67	5.33	-3.67	0.33
1973	127.55	6.0	12.0	0.0	7.0	10.0	7.0	7.0	4.0	8.0	5.0	4.0	3.0	1.0	2.0	6.0	-2.0	1.0	3.0	5.0	3.0	10.0	1.0	6.0	8.0	0.0	4.0	2.0
1980	128.03	8.33	1.67	-5.33	1.67	7.67	1.67	1.67	-0.33	1.67	-2.33	6.67	2.67	4.67	4.67	3.67	3.67	3.67	1.67	1.67	4.67	-4.33	-1.33	0.67	1.67	0.67	3.67	7.67
1987	128.51	14.0	-3.0	-4.0	3.0	-3.0	-1.0	-2.0	-5.0	-6.0	-7.0	-6.0	0.0	-3.0	0.0	-6.0	2.0	-1.0	-5.0	-3.0	-2.0	-6.0	-1.0	-2.0	0.0	-3.0	-8.0	-7.0
1994	128.99	8.0	-1.0	-2.0	4.0	1.0	2.0	5.0	3.0	3.0	0.0	3.0	-1.0	6.0	0.0	1.0	5.0	1.0	6.0	0.0	1.0	0.0	4.0	5.0	4.0	8.0	2.0	8.0
2001	129.471	10.67	0.33	1.33	0.33	-6.67	6.33	2.33	0.33	-4.67	-4.67	-4.67	0.33	-1.67	-5.67	-0.67	0.33	-1.67	-6.67	-3.67	-0.67	-2.67	0.33	-4.67	6.33	1.33	-4.67	-3.67
2008	129.952	13.67	-3.67	-7.67	-1.67	-9.67	-3.67	-2.67	-7.67	-1.67	1.33	-5.67	-2.67	0.33	-6.67	-4.67	-2.67	-3.67	-1.67	-1.67	1.33	-2.67	-5.67	-2.67	-3.67	-5.67	-3.67	-3.67
2015	130.433	10.0	-3.0	-4.0	-3.0	2.0	4.0	0.0	-3.0	-4.0	2.0	-2.0	-3.0	2.0	8.0	-1.0	1.0	4.0	0.0	-1.0	-2.0	-1.0	3.0	-1.0	-2.0	1.0	-5.0	1.0
2022	130.915	11.67	-6.67	-5.67	-5.67	-6.67	-6.67	-8.67	1.33	-0.67	0.33	-5.67	-7.67	-2.67	-2.67	-2.67	-4.67	0.33	-4.67	-6.67	3.33	1.33	-6.67	-2.67	0.33	-3.67	-0.67	-0.67
2029	131.397	7.67	-0.67	8.33	2.33	0.33	0.33	-4.67	-0.67	3.33	1.33	9.33	1.33	1.33	-1.67	2.33	-1.67	0.33	6.33	3.33	6.33	8.33	-1.67	3.33	-1.67	3.33	3.33	1.33
2036	131.879	8.33	1.67	-2.33	-3.33	2.67	-1.33	1.67	0.67	0.67	-0.33	1.67	1.67	0.67	0.67	2.67	1.67	-4.33	2.67	2.67	0.67	0.67	0.67	3.67	7.67	7.67	4.67	-0.33
2043	132.362	8.33	3.67	3.67	-3.33	-1.33	0.67	-0.33	-0.33	0.67	-2.33	1.67	-2.33	-1.33	-3.33	-3.33	1.67	2.67	6.67	3.67	4.67	5.67	3.67	3.67	-0.33	2.67	4.67	0.67
2047	132.638	8.0	-4.0	8.0	2.0	-1.0	3.0	1.0	0.0	-1.0	-6.0	2.0	-4.0	-2.0	-2.0	3.0	4.0	-1.0	-2.0	3.0	-1.0	-1.0	1.0	-1.0	5.0	4.0	6.0	6.0