File: EDX Back Ups and Old Files/EDX Processed Data/High pH BL 60C 4d.txt
Name: High pH BL 60C 4d
Number of Scans: 29
Positions: [-13.0, -12.75, -12.5, -12.25, -12.0, -11.75, -11.5, -11.25, -11.0, -10.75, -10.5, -10.25, -10.0, -9.75, -9.5, -9.25, -9.0, -8.75, -8.5, -8.25, -8.0, -7.75, -7.5, -7.25, -7.0, -6.75, -6.5, -6.25, -6.0]
Points per Scan: 2048
Sample Edge: 3
Scans Off Sample: [0, 1, 2]
Conversion Features: [(275, 17444.3), (309, 19608.3), (913, 57981.7), (934, 59318.24), (1058, 67244.3)]
Degree of Fit: 3
Fit Coeffecients: [ 8.59183e-07 -0.001482  64.3003 -144.207]
pH: High
Steel Fiber: False
Aging Temp.: 60
Aging Atm.: 100% CO2
Aging Humidity: None
Aging Time: 4

*********
#Bins	Energy [keV]	Avg. Background	-12.25	-12.0	-11.75	-11.5	-11.25	-11.0	-10.75	-10.5	-10.25	-10.0	-9.75	-9.5	-9.25	-9.0	-8.75	-8.5	-8.25	-8.0	-7.75	-7.5	-7.25	-7.0	-6.75	-6.5	-6.25	-6.0
6	0.242	1755.33	12.67	10.67	7.67	-101.33	64.67	21.67	79.67	135.67	122.67	66.67	-14.33	34.67	156.67	40.67	95.67	40.67	24.67	78.67	95.67	104.67	35.67	-16.33	79.67	16.67	8.67	6.67
13	0.691	1228.33	3.67	-33.33	-32.33	-39.33	-71.33	-10.33	47.67	42.67	33.67	-2.33	-36.33	1.67	14.67	5.67	9.67	-41.33	43.67	-26.33	8.67	29.67	-14.33	-32.33	2.67	41.67	67.67	6.67
20	1.141	306.0	-16.0	23.0	10.0	7.0	9.0	5.0	35.0	39.0	14.0	25.0	-19.0	-16.0	32.0	5.0	-7.0	6.0	43.0	5.0	12.0	24.0	-6.0	-21.0	-35.0	39.0	31.0	14.0
27	1.591	50.33	1.67	10.67	0.67	12.67	-2.33	-1.33	-7.33	-5.33	-0.33	-7.33	1.67	12.67	13.67	-2.33	7.67	-4.33	3.67	6.67	-0.33	8.67	2.67	13.67	-5.33	7.67	-1.33	3.67
34	2.04	7.0	3.0	-1.0	-1.0	3.0	-3.0	2.0	-3.0	0.0	-5.0	2.0	2.0	-2.0	-2.0	-4.0	1.0	-1.0	-2.0	4.0	-3.0	-2.0	0.0	-3.0	-2.0	-2.0	-6.0	2.0
41	2.49	1.33	-0.33	-1.33	-1.33	-0.33	-1.33	0.67	-0.33	-0.33	1.67	-1.33	-0.33	-0.33	1.67	-1.33	-0.33	-1.33	-0.33	-1.33	-0.33	-1.33	1.67	-1.33	-1.33	0.67	-1.33	-0.33
48	2.939	0.0	1.0	0.0	1.0	0.0	0.0	1.0	0.0	0.0	0.0	1.0	0.0	1.0	1.0	0.0	0.0	0.0	0.0	0.0	0.0	3.0	0.0	1.0	0.0	1.0	0.0	1.0
55	3.388	1.0	-1.0	-1.0	-1.0	-1.0	0.0	-1.0	-1.0	1.0	0.0	-1.0	0.0	-1.0	0.0	-1.0	-1.0	0.0	-1.0	-1.0	-1.0	-1.0	0.0	-1.0	-1.0	0.0	0.0	-1.0
62	3.837	0.0	0.0	0.0	0.0	0.0	0.0	0.0	1.0	0.0	0.0	1.0	0.0	1.0	0.0	0.0	1.0	2.0	0.0	0.0	1.0	0.0	0.0	0.0	0.0	0.0	0.0	1.0
69	4.286	0.33	-0.33	-0.33	0.67	-0.33	-0.33	-0.33	0.67	-0.33	-0.33	0.67	-0.33	-0.33	0.67	0.67	-0.33	-0.33	-0.33	-0.33	-0.33	-0.33	-0.33	-0.33	-0.33	0.67	-0.33	-0.33
76	4.734	0.33	0.67	-0.33	-0.33	-0.33	1.67	0.67	-0.33	0.67	-0.33	1.67	-0.33	-0.33	-0.33	1.67	0.67	1.67	0.67	-0.33	1.67	0.67	-0.33	-0.33	0.67	-0.33	1.67	1.67
83	5.183	0.0	0.0	0.0	0.0	0.0	0.0	0.0	0.0	0.0	0.0	1.0	0.0	0.0	0.0	1.0	1.0	0.0	1.0	0.0	0.0	0.0	0.0	0.0	0.0	0.0	2.0	0.0
90	5.631	1.33	-1.33	-0.33	-0.33	-0.33	-1.33	-1.33	-0.33	-1.33	-0.33	-1.33	-1.33	-0.33	0.67	-0.33	0.67	-1.33	-1.33	-1.33	0.67	-1.33	-1.33	-0.33	-1.33	-1.33	-1.33	-1.33
97	6.08	0.67	0.33	-0.67	0.33	-0.67	0.33	-0.67	0.33	-0.67	1.33	1.33	-0.67	1.33	0.33	1.33	0.33	-0.67	1.33	-0.67	-0.67	0.33	2.33	-0.67	0.33	0.33	3.33	-0.67
104	6.528	2.67	-1.67	-1.67	0.33	-0.67	0.33	-2.67	-2.67	-2.67	-1.67	-0.67	-2.67	-0.67	-0.67	-2.67	-0.67	-1.67	0.33	-1.67	-2.67	-0.67	-1.67	-2.67	0.33	-0.67	0.33	-2.67
111	6.976	2.33	-1.33	-0.33	-0.33	1.67	0.67	4.67	-1.33	-1.33	2.67	3.67	1.67	-0.33	-1.33	-0.33	-0.33	2.67	-1.33	-1.33	1.67	1.67	1.67	4.67	0.67	0.67	-1.33	-0.33
118	7.424	3.33	-0.33	-1.33	1.67	-0.33	-0.33	-1.33	-2.33	1.67	0.67	1.67	1.67	0.67	-0.33	0.67	0.67	5.67	-2.33	-0.33	0.67	0.67	1.67	0.67	-2.33	-2.33	-2.33	-3.33
125	7.872	6.0	-1.0	-4.0	-2.0	-2.0	1.0	3.0	0.0	-2.0	-2.0	0.0	2.0	-3.0	-2.0	3.0	2.0	-2.0	-3.0	-1.0	2.0	1.0	-3.0	-3.0	-2.0	4.0	-2.0	-2.0
132	8.32	4.33	1.67	-2.33	3.67	1.67	5.67	5.67	4.67	7.67	-0.33	0.67	4.67	1.67	4.67	4.67	4.67	3.67	5.67	-0.33	1.67	0.67	4.67	1.67	2.67	-0.33	-0.33	-0.33
139	8.767	8.33	-4.33	-0.33	-3.33	0.67	-2.33	1.67	-3.33	5.67	-1.33	-5.33	0.67	3.67	0.67	0.67	0.67	0.67	2.67	0.67	1.67	2.67	1.67	5.67	5.67	-2.33	4.67	-1.33
146	9.215	10.0	-1.0	-3.0	-4.0	3.0	6.0	-2.0	9.0	-1.0	1.0	7.0	2.0	0.0	0.0	0.0	-2.0	-2.0	0.0	3.0	2.0	2.0	-1.0	-1.0	0.0	0.0	7.0	1.0
153	9.662	11.0	-5.0	-4.0	-1.0	-2.0	-1.0	6.0	-6.0	-2.0	4.0	-5.0	-2.0	-2.0	2.0	4.0	1.0	-7.0	5.0	2.0	-8.0	1.0	4.0	5.0	3.0	2.0	0.0	-1.0
160	10.109	10.33	-0.33	3.67	-5.33	0.67	-3.33	8.67	3.67	-3.33	1.67	3.67	4.67	0.67	-2.33	-0.33	-4.33	-1.33	0.67	-3.33	0.67	-1.33	2.67	4.67	3.67	-1.33	8.67	3.67
167	10.557	8.67	0.33	-0.67	2.33	1.33	-0.67	6.33	5.33	2.33	-1.67	5.33	4.33	5.33	6.33	0.33	2.33	-2.67	4.33	3.33	3.33	1.33	-2.67	8.33	-1.67	-0.67	4.33	-2.67
174	11.004	8.33	-3.33	0.67	1.67	3.67	7.67	11.67	5.67	-3.33	0.67	-0.33	7.67	4.67	0.67	0.67	4.67	3.67	8.67	2.67	1.67	4.67	2.67	4.67	8.67	2.67	3.67	4.67
181	11.451	9.33	9.67	4.67	3.67	-2.33	1.67	2.67	3.67	4.67	-1.33	6.67	0.67	-0.33	3.67	0.67	3.67	0.67	-2.33	0.67	0.67	1.67	-0.33	-0.33	6.67	9.67	4.67	-0.33
188	11.898	10.33	2.67	4.67	0.67	-0.33	-1.33	2.67	0.67	6.67	-1.33	-0.33	7.67	2.67	-3.33	1.67	4.67	5.67	1.67	5.67	2.67	-2.33	3.67	-1.33	4.67	4.67	6.67	9.67
195	12.344	8.33	7.67	-0.33	-1.33	7.67	0.67	2.67	5.67	-1.33	1.67	0.67	4.67	5.67	14.67	6.67	4.67	4.67	6.67	11.67	4.67	0.67	7.67	0.67	8.67	4.67	3.67	-0.33
202	12.791	9.67	0.33	2.33	2.33	-0.67	1.33	0.33	2.33	0.33	4.33	0.33	-0.67	2.33	-0.67	-2.67	-3.67	3.33	0.33	1.33	-0.67	2.33	1.33	4.33	2.33	1.33	3.33	2.33
209	13.238	7.67	5.33	0.33	6.33	7.33	5.33	4.33	5.33	-1.67	-0.67	3.33	0.33	11.33	0.33	2.33	2.33	5.33	8.33	7.33	3.33	5.33	1.33	10.33	12.33	8.33	3.33	-1.67
216	13.684	9.67	-0.67	2.33	4.33	4.33	3.33	5.33	4.33	0.33	1.33	2.33	2.33	2.33	-3.67	-5.67	1.33	6.33	4.33	3.33	4.33	-1.67	5.33	0.33	3.33	2.33	2.33	-3.67
223	14.131	6.67	7.33	6.33	3.33	2.33	8.33	4.33	3.33	5.33	7.33	3.33	4.33	8.33	3.33	2.33	5.33	5.33	6.33	6.33	13.33	5.33	1.33	6.33	4.33	8.33	8.33	1.33
230	14.577	9.0	7.0	1.0	1.0	-1.0	0.0	8.0	3.0	0.0	4.0	-1.0	4.0	11.0	2.0	2.0	3.0	11.0	7.0	3.0	6.0	1.0	7.0	0.0	-1.0	9.0	7.0	3.0
237	15.023	10.33	1.67	0.67	3.67	1.67	0.67	-3.33	-0.33	5.67	-0.33	2.67	-6.33	-1.33	1.67	0.67	2.67	2.67	2.67	-3.33	-1.33	1.67	2.67	-2.33	-0.33	4.67	8.67	1.67
244	15.469	8.67	2.33	1.33	2.33	4.33	4.33	5.33	3.33	-2.67	4.33	2.33	3.33	2.33	4.33	6.33	6.33	3.33	6.33	3.33	2.33	9.33	2.33	4.33	1.33	8.33	2.33	1.33
251	15.915	8.33	-3.33	1.67	0.67	4.67	4.67	-0.33	3.67	0.67	-1.33	-0.33	2.67	-1.33	-3.33	4.67	4.67	-2.33	5.67	3.67	-1.33	6.67	2.67	-1.33	6.67	9.67	6.67	-0.33
258	16.361	11.33	-0.33	-3.33	2.67	1.67	-1.33	-2.33	1.67	-3.33	-1.33	3.67	-4.33	-1.33	10.67	0.67	1.67	-0.33	5.67	2.67	-0.33	4.67	-2.33	6.67	1.67	1.67	-3.33	2.67
265	16.807	8.67	5.33	1.33	7.33	-0.67	1.33	1.33	7.33	-1.67	2.33	3.33	5.33	3.33	2.33	3.33	5.33	3.33	3.33	1.33	6.33	6.33	8.33	-0.67	-0.67	5.33	-0.67	6.33
272	17.253	10.0	0.0	4.0	6.0	-1.0	6.0	1.0	6.0	-1.0	6.0	10.0	5.0	-4.0	11.0	-2.0	0.0	0.0	-1.0	7.0	4.0	4.0	0.0	2.0	6.0	4.0	5.0	4.0
279	17.699	9.67	-0.67	1.33	2.33	1.33	1.33	-0.67	-3.67	-0.67	0.33	1.33	1.33	-1.67	-4.67	3.33	3.33	-0.67	4.33	4.33	0.33	2.33	5.33	0.33	-0.67	1.33	4.33	4.33
286	18.145	8.33	3.67	4.67	4.67	3.67	-2.33	1.67	2.67	0.67	4.67	3.67	5.67	5.67	4.67	-2.33	4.67	-0.33	4.67	4.67	3.67	1.67	-0.33	5.67	3.67	-2.33	0.67	3.67
293	18.59	12.0	-3.0	0.0	-1.0	2.0	0.0	-2.0	-6.0	1.0	-1.0	1.0	-5.0	-3.0	-1.0	-1.0	3.0	-3.0	-5.0	-3.0	4.0	-1.0	-2.0	-5.0	-3.0	-3.0	-1.0	4.0
300	19.036	8.67	5.33	-0.67	1.33	7.33	5.33	5.33	4.33	8.33	0.33	1.33	1.33	-2.67	2.33	8.33	8.33	1.33	4.33	2.33	2.33	1.33	6.33	3.33	1.33	2.33	1.33	1.33
307	19.481	7.67	-0.67	4.33	-0.67	4.33	0.33	2.33	0.33	2.33	1.33	2.33	8.33	5.33	0.33	10.33	5.33	1.33	2.33	0.33	-0.67	3.33	7.33	8.33	7.33	8.33	14.33	1.33
314	19.927	5.33	2.67	1.67	8.67	3.67	7.67	7.67	1.67	8.67	6.67	1.67	3.67	4.67	5.67	5.67	5.67	1.67	7.67	8.67	9.67	3.67	9.67	6.67	7.67	7.67	7.67	6.67
321	20.372	10.33	1.67	4.67	3.67	-4.33	-1.33	-5.33	-0.33	-2.33	-1.33	-4.33	-2.33	5.67	-2.33	8.67	1.67	1.67	2.67	2.67	-1.33	-2.33	0.67	13.67	-1.33	-1.33	1.67	-1.33
328	20.817	11.33	-4.33	1.67	-3.33	-4.33	-1.33	-1.33	0.67	-1.33	-6.33	-0.33	2.67	-2.33	-0.33	4.67	-2.33	2.67	-2.33	-5.33	-0.33	-0.33	4.67	-0.33	0.67	11.67	3.67	-3.33
335	21.262	11.0	0.0	0.0	4.0	5.0	-2.0	-6.0	-2.0	5.0	0.0	0.0	1.0	-6.0	-5.0	2.0	-3.0	-2.0	-5.0	-3.0	-4.0	-4.0	-4.0	0.0	3.0	6.0	5.0	-3.0
342	21.708	9.67	-3.67	0.33	-1.67	-0.67	6.33	-2.67	1.33	0.33	2.33	-4.67	-0.67	5.33	1.33	-2.67	2.33	1.33	5.33	-1.67	2.33	7.33	1.33	10.33	1.33	-0.67	8.33	7.33
349	22.153	9.33	4.67	-1.33	5.67	2.67	2.67	-0.33	-2.33	4.67	4.67	-0.33	-3.33	2.67	0.67	-3.33	-2.33	1.67	0.67	-1.33	-0.33	2.67	0.67	-0.33	3.67	3.67	1.67	5.67
356	22.598	7.67	-0.67	4.33	6.33	1.33	-0.67	5.33	3.33	-4.67	-1.67	-0.67	4.33	-1.67	4.33	6.33	2.33	3.33	6.33	0.33	5.33	1.33	7.33	3.33	2.33	4.33	4.33	1.33
363	23.043	8.67	-2.67	1.33	3.33	0.33	0.33	-7.67	-2.67	6.33	0.33	0.33	3.33	0.33	1.33	-2.67	2.33	2.33	-0.67	6.33	-2.67	9.33	3.33	-0.67	0.33	1.33	1.33	-3.67
370	23.488	6.67	3.33	5.33	4.33	4.33	4.33	6.33	5.33	5.33	-0.67	1.33	4.33	-2.67	0.33	4.33	6.33	10.33	3.33	-1.67	2.33	4.33	8.33	2.33	-0.67	6.33	3.33	8.33
377	23.932	8.67	2.33	0.33	4.33	0.33	-3.67	4.33	0.33	2.33	1.33	-1.67	2.33	3.33	0.33	3.33	7.33	3.33	-2.67	1.33	6.33	3.33	-1.67	2.33	-0.67	4.33	4.33	-0.67
384	24.377	6.67	0.33	3.33	6.33	2.33	3.33	2.33	9.33	2.33	4.33	14.33	2.33	6.33	7.33	0.33	6.33	4.33	6.33	3.33	-0.67	5.33	3.33	2.33	-1.67	-0.67	3.33	9.33
391	24.822	7.33	3.67	1.67	-2.33	-0.33	-0.33	0.67	2.67	4.67	1.67	6.67	2.67	-0.33	2.67	0.67	2.67	2.67	3.67	3.67	-5.33	-3.33	-2.33	0.67	0.67	2.67	4.67	-0.33
398	25.267	8.33	-2.33	0.67	-3.33	-0.33	-0.33	4.67	0.67	2.67	-4.33	3.67	2.67	-4.33	-2.33	-0.33	3.67	-2.33	3.67	2.67	3.67	0.67	0.67	1.67	1.67	3.67	-0.33	1.67
405	25.711	8.67	2.33	1.33	4.33	3.33	-1.67	0.33	-0.67	-2.67	0.33	10.33	0.33	-1.67	1.33	-1.67	-0.67	0.33	-3.67	2.33	-3.67	0.33	3.33	-0.67	3.33	0.33	-1.67	-1.67
412	26.156	7.67	1.33	0.33	2.33	5.33	-0.67	4.33	0.33	1.33	4.33	1.33	-2.67	0.33	-3.67	3.33	2.33	3.33	4.33	5.33	0.33	1.33	1.33	2.33	-2.67	-0.67	0.33	4.33
419	26.601	8.67	-1.67	-1.67	2.33	-3.67	-5.67	-0.67	-1.67	6.33	-2.67	-0.67	-2.67	-5.67	5.33	3.33	-5.67	-0.67	1.33	-1.67	-0.67	-2.67	0.33	2.33	3.33	1.33	3.33	0.33
426	27.045	5.33	1.67	-1.33	-2.33	5.67	3.67	2.67	2.67	0.67	-0.33	2.67	-3.33	5.67	4.67	3.67	1.67	-2.33	-1.33	6.67	11.67	7.67	6.67	1.67	6.67	7.67	2.67	4.67
433	27.49	4.67	4.33	3.33	-2.67	4.33	3.33	3.33	1.33	4.33	6.33	-2.67	4.33	2.33	2.33	0.33	0.33	4.33	6.33	5.33	3.33	5.33	4.33	3.33	4.33	6.33	11.33	-1.67
440	27.934	10.0	-4.0	-1.0	-1.0	0.0	-5.0	-4.0	-4.0	-6.0	-4.0	-2.0	0.0	1.0	-3.0	-5.0	3.0	1.0	-1.0	1.0	-1.0	-7.0	-2.0	-2.0	0.0	-1.0	4.0	-6.0
447	28.379	7.67	0.33	3.33	0.33	-2.67	2.33	1.33	1.33	0.33	-1.67	-1.67	3.33	2.33	-3.67	0.33	-1.67	-1.67	5.33	0.33	5.33	5.33	0.33	0.33	-2.67	-3.67	-2.67	0.33
454	28.823	8.0	1.0	-1.0	-3.0	1.0	2.0	0.0	0.0	-1.0	-2.0	-1.0	-3.0	2.0	-1.0	5.0	-1.0	1.0	-5.0	4.0	-3.0	-4.0	0.0	-6.0	-2.0	-2.0	-2.0	1.0
461	29.267	7.33	0.67	5.67	-2.33	0.67	-2.33	-0.33	1.67	1.67	-1.33	1.67	0.67	2.67	-1.33	0.67	-1.33	-1.33	2.67	3.67	-3.33	-4.33	4.67	0.67	-1.33	-3.33	-1.33	3.67
468	29.712	8.67	0.33	-1.67	4.33	-3.67	-1.67	-3.67	-3.67	-4.67	-2.67	-3.67	1.33	-1.67	0.33	-3.67	-1.67	-1.67	1.33	-2.67	-1.67	-5.67	-3.67	0.33	-0.67	5.33	-4.67	0.33
475	30.156	8.67	-0.67	-6.67	-1.67	1.33	-4.67	-0.67	-2.67	0.33	-1.67	-2.67	3.33	-2.67	-6.67	6.33	-1.67	-0.67	2.33	2.33	-2.67	-6.67	-0.67	-2.67	-2.67	-4.67	5.33	-0.67
482	30.6	6.0	3.0	-1.0	1.0	-3.0	2.0	-1.0	4.0	-2.0	1.0	-1.0	0.0	1.0	-3.0	0.0	3.0	6.0	-2.0	3.0	1.0	3.0	1.0	4.0	1.0	0.0	6.0	3.0
489	31.045	6.67	-1.67	-1.67	5.33	0.33	-1.67	-2.67	-2.67	0.33	0.33	6.33	-2.67	2.33	0.33	-0.67	2.33	2.33	-3.67	-1.67	-0.67	-2.67	6.33	1.33	-1.67	5.33	1.33	-0.67
496	31.489	7.0	5.0	5.0	2.0	-3.0	4.0	-1.0	-2.0	-1.0	2.0	0.0	0.0	-2.0	-4.0	0.0	0.0	0.0	-3.0	-2.0	3.0	0.0	2.0	4.0	4.0	-1.0	2.0	-3.0
503	31.933	6.67	3.33	3.33	-1.67	-4.67	-1.67	-2.67	1.33	-1.67	-2.67	-0.67	-0.67	-1.67	-0.67	3.33	0.33	-0.67	3.33	-1.67	-0.67	-1.67	-0.67	1.33	1.33	3.33	5.33	0.33
510	32.377	7.67	-2.67	-2.67	-2.67	0.33	-5.67	1.33	-0.67	-0.67	3.33	0.33	0.33	-0.67	-3.67	-4.67	-3.67	-3.67	-6.67	3.33	-1.67	1.33	0.33	1.33	-2.67	1.33	-5.67	-0.67
517	32.822	5.67	4.33	0.33	2.33	0.33	5.33	-0.67	-0.67	-2.67	1.33	0.33	4.33	-1.67	-2.67	6.33	1.33	2.33	2.33	5.33	3.33	3.33	-0.67	-0.67	-0.67	2.33	0.33	4.33
524	33.266	6.0	4.0	-1.0	3.0	-2.0	7.0	1.0	-3.0	-2.0	-2.0	0.0	-3.0	3.0	3.0	-1.0	-1.0	3.0	-4.0	-1.0	4.0	0.0	1.0	1.0	3.0	0.0	-1.0	4.0
531	33.71	7.33	5.67	-0.33	-1.33	-5.33	1.67	-1.33	-2.33	-4.33	-3.33	0.67	-3.33	0.67	-0.33	-4.33	2.67	2.67	-2.33	-1.33	-4.33	0.67	-1.33	0.67	-5.33	-0.33	-4.33	-0.33
538	34.154	5.67	0.33	-0.67	-0.67	-2.67	-4.67	-3.67	1.33	0.33	0.33	-1.67	-1.67	1.33	4.33	3.33	1.33	-1.67	2.33	-2.67	-2.67	-0.67	0.33	0.33	-0.67	0.33	0.33	-1.67
545	34.598	7.67	-5.67	-0.67	2.33	2.33	-3.67	1.33	-1.67	-5.67	-5.67	-0.67	-2.67	-0.67	-1.67	-1.67	-6.67	-1.67	1.33	0.33	1.33	-0.67	-2.67	-2.67	-2.67	-3.67	-2.67	-2.67
552	35.043	5.67	0.33	0.33	-0.67	-2.67	0.33	6.33	0.33	-0.67	-1.67	0.33	-2.67	-2.67	-0.67	-2.67	-1.67	0.33	-1.67	0.33	-0.67	0.33	-0.67	-0.67	-0.67	0.33	-0.67	-2.67
559	35.487	5.33	2.67	0.67	-3.33	0.67	-2.33	-3.33	2.67	0.67	-0.33	1.67	-1.33	-0.33	-3.33	0.67	-1.33	-1.33	5.67	-0.33	-0.33	-1.33	-1.33	2.67	0.67	3.67	-1.33	-0.33
566	35.931	3.67	2.33	3.33	3.33	0.33	3.33	5.33	4.33	-2.67	1.33	4.33	0.33	2.33	6.33	3.33	-0.67	6.33	-2.67	2.33	6.33	4.33	2.33	3.33	8.33	0.33	4.33	1.33
573	36.375	4.33	0.67	-2.33	1.67	0.67	-0.33	2.67	3.67	-0.33	1.67	1.67	0.67	1.67	1.67	1.67	-1.33	1.67	-1.33	-0.33	0.67	0.67	2.67	-0.33	2.67	0.67	5.67	1.67
580	36.819	5.67	1.33	1.33	-3.67	0.33	0.33	2.33	-0.67	0.33	1.33	2.33	-4.67	0.33	-1.67	-0.67	0.33	-2.67	1.33	0.33	0.33	-3.67	0.33	3.33	0.33	6.33	-0.67	2.33
587	37.263	7.0	0.0	-2.0	0.0	-1.0	-1.0	-5.0	1.0	6.0	1.0	3.0	0.0	-3.0	-2.0	-3.0	4.0	2.0	1.0	-4.0	-3.0	-1.0	-1.0	-2.0	-1.0	-3.0	1.0	0.0
594	37.707	6.67	-2.67	-0.67	-1.67	0.33	0.33	2.33	-0.67	-1.67	2.33	0.33	-2.67	3.33	-3.67	3.33	12.33	-4.67	2.33	-4.67	-0.67	1.33	-2.67	-2.67	-3.67	-0.67	1.33	-1.67
601	38.152	6.0	-1.0	-1.0	-1.0	-3.0	0.0	-1.0	-2.0	0.0	2.0	-2.0	-1.0	2.0	1.0	2.0	-2.0	3.0	-1.0	3.0	-1.0	0.0	0.0	2.0	4.0	0.0	3.0	0.0
608	38.596	5.67	1.33	1.33	-1.67	-0.67	-0.67	-2.67	0.33	-0.67	-2.67	2.33	3.33	0.33	-0.67	-3.67	-3.67	-1.67	2.33	0.33	2.33	0.33	-1.67	0.33	5.33	0.33	1.33	0.33
615	39.04	4.33	1.67	0.67	-2.33	2.67	-2.33	2.67	1.67	0.67	1.67	4.67	-1.33	5.67	-0.33	0.67	-1.33	1.67	4.67	-1.33	-0.33	0.67	0.67	0.67	-2.33	1.67	-2.33	2.67
622	39.484	6.67	-0.67	0.33	1.33	0.33	-3.67	0.33	-3.67	-2.67	-2.67	-1.67	-3.67	1.33	-0.67	-1.67	-0.67	4.33	-1.67	-1.67	-0.67	-0.67	1.33	0.33	0.33	-3.67	-0.67	-0.67
629	39.928	7.33	-4.33	-4.33	3.67	-3.33	0.67	-3.33	-2.33	-1.33	-3.33	-0.33	-1.33	-3.33	-4.33	-1.33	-3.33	-5.33	-1.33	-0.33	-1.33	-1.33	-3.33	-0.33	-3.33	-5.33	-1.33	2.67
636	40.372	7.33	-6.33	0.67	-3.33	-6.33	-3.33	0.67	-1.33	-1.33	-3.33	-3.33	-3.33	-1.33	0.67	-0.33	-1.33	-3.33	-1.33	-0.33	-1.33	2.67	-5.33	-1.33	1.67	0.67	1.67	-0.33
643	40.817	7.0	-1.0	0.0	0.0	-6.0	2.0	-2.0	4.0	0.0	-3.0	0.0	-4.0	0.0	-1.0	-2.0	4.0	-4.0	-4.0	-3.0	-4.0	-1.0	2.0	1.0	1.0	2.0	-1.0	-3.0
650	41.261	6.67	-1.67	-0.67	3.33	1.33	2.33	-0.67	-2.67	2.33	-1.67	4.33	-0.67	0.33	-2.67	-0.67	0.33	-1.67	-2.67	0.33	4.33	0.33	-3.67	-0.67	-3.67	-2.67	-0.67	-3.67
657	41.705	5.0	3.0	-2.0	2.0	-3.0	-1.0	1.0	0.0	2.0	6.0	-1.0	-2.0	-2.0	-1.0	3.0	2.0	0.0	-3.0	2.0	-1.0	-3.0	3.0	2.0	2.0	3.0	0.0	2.0
664	42.149	8.33	-4.33	-4.33	-3.33	-4.33	-2.33	0.67	-3.33	1.67	-4.33	-6.33	-3.33	-5.33	-3.33	-3.33	1.67	-5.33	-1.33	-1.33	-2.33	-2.33	1.67	-0.33	-1.33	-6.33	-4.33	-0.33
671	42.594	9.33	-5.33	-6.33	-3.33	-4.33	-8.33	-4.33	-4.33	-1.33	-1.33	-2.33	0.67	-3.33	-2.33	-4.33	-5.33	-2.33	-5.33	-2.33	0.67	-0.33	-3.33	-1.33	-1.33	-4.33	0.67	-3.33
678	43.038	6.67	1.33	2.33	4.33	0.33	0.33	-1.67	2.33	-1.67	0.33	-3.67	-3.67	-0.67	-1.67	-0.67	0.33	-1.67	-0.67	-1.67	-1.67	0.33	2.33	-2.67	0.33	0.33	0.33	1.33
685	43.482	8.0	-2.0	-2.0	-1.0	-3.0	-5.0	1.0	4.0	-4.0	-1.0	0.0	-2.0	0.0	-4.0	-7.0	-7.0	-5.0	-2.0	-1.0	-2.0	3.0	-2.0	-1.0	-4.0	-1.0	0.0	-2.0
692	43.927	7.67	-5.67	3.33	1.33	-2.67	-1.67	-5.67	-0.67	-1.67	0.33	-0.67	-0.67	-2.67	-4.67	-0.67	3.33	-5.67	-4.67	1.33	2.33	-1.67	-1.67	-2.67	-0.67	3.33	11.33	0.33
699	44.371	10.33	-6.33	-6.33	-1.33	-1.33	-2.33	-3.33	-5.33	-9.33	-6.33	-2.33	0.67	-6.33	-1.33	-6.33	-3.33	-4.33	-2.33	-3.33	-4.33	-2.33	-4.33	-4.33	-0.33	0.67	-4.33	-1.33
706	44.815	12.0	-5.0	-7.0	-5.0	-4.0	-3.0	-4.0	-1.0	-5.0	-7.0	-3.0	1.0	-7.0	-7.0	-5.0	-9.0	-5.0	-9.0	-7.0	-1.0	-8.0	-4.0	-5.0	-6.0	-2.0	-6.0	-7.0
713	45.26	11.33	-7.33	-5.33	-0.33	-0.33	-5.33	-1.33	-7.33	-3.33	-6.33	-5.33	-2.33	-1.33	-2.33	-6.33	-6.33	-6.33	-1.33	-1.33	-4.33	-5.33	-8.33	-6.33	-5.33	-3.33	-8.33	-8.33
720	45.704	10.33	-7.33	-3.33	-2.33	-5.33	-4.33	5.67	0.67	-3.33	-3.33	-1.33	-1.33	-3.33	-3.33	-2.33	1.67	-3.33	-3.33	-1.33	1.67	-0.33	-4.33	-3.33	-7.33	-1.33	-4.33	-5.33
727	46.149	9.67	2.33	-1.67	-0.67	-3.67	-2.67	0.33	-3.67	-2.67	3.33	-2.67	-4.67	-3.67	-4.67	-4.67	-1.67	-5.67	-3.67	-2.67	-5.67	-3.67	-0.67	-1.67	-6.67	-3.67	1.33	-3.67
734	46.594	14.0	-7.0	-8.0	-8.0	-9.0	-12.0	-6.0	-2.0	-6.0	-5.0	-4.0	-6.0	-1.0	-10.0	-5.0	-3.0	-9.0	-7.0	-7.0	-11.0	-5.0	-10.0	-7.0	-3.0	-6.0	-5.0	-7.0
741	47.038	10.67	-5.67	1.33	-9.67	-1.67	1.33	-9.67	-5.67	-1.67	-3.67	0.33	-5.67	-1.67	-0.67	-4.67	-2.67	-3.67	-2.67	1.33	0.33	-7.67	-5.67	-6.67	-4.67	-5.67	-4.67	-7.67
748	47.483	11.67	-4.67	-5.67	-4.67	-3.67	-4.67	0.33	-2.67	-1.67	-6.67	2.33	-4.67	-0.67	-5.67	-6.67	-3.67	-3.67	-3.67	-3.67	-7.67	-4.67	-2.67	-2.67	-4.67	-1.67	-8.67	7.33
755	47.928	11.67	-6.67	-3.67	-2.67	-3.67	-2.67	-2.67	-3.67	-4.67	-2.67	-0.67	-0.67	2.33	-3.67	-6.67	-3.67	-6.67	1.33	3.33	-1.67	-2.67	-3.67	-1.67	-4.67	-0.67	-3.67	-1.67
762	48.372	10.33	-5.33	-6.33	-2.33	1.67	-3.33	-2.33	-2.33	-1.33	-1.33	-2.33	-0.33	-2.33	-2.33	-5.33	-4.33	-4.33	-3.33	-2.33	4.67	1.67	0.67	0.67	-3.33	-2.33	3.67	-4.33
769	48.817	12.33	-4.33	-5.33	-6.33	-0.33	2.67	-5.33	-1.33	-3.33	-1.33	-3.33	-4.33	-5.33	-0.33	-1.33	-4.33	-2.33	-8.33	-5.33	-1.33	-3.33	-4.33	2.67	-5.33	-4.33	-3.33	-0.33
776	49.262	14.0	-4.0	-2.0	-7.0	2.0	-5.0	0.0	-4.0	-5.0	-6.0	-2.0	-1.0	-4.0	0.0	-6.0	-6.0	4.0	-8.0	-2.0	-6.0	0.0	-8.0	-5.0	-1.0	-6.0	-4.0	-8.0
783	49.707	17.33	-5.33	-6.33	-4.33	-9.33	-6.33	-4.33	-2.33	-8.33	-9.33	-10.33	-7.33	-4.33	-7.33	-7.33	-3.33	-6.33	-4.33	-2.33	-12.33	-9.33	-9.33	-6.33	-5.33	-6.33	-14.33	-10.33
790	50.152	13.0	-5.0	-6.0	-5.0	4.0	-2.0	-8.0	-3.0	-3.0	1.0	4.0	5.0	13.0	-3.0	0.0	3.0	2.0	1.0	-3.0	-3.0	-5.0	5.0	5.0	2.0	4.0	-5.0	-8.0
797	50.597	11.33	-1.33	-2.33	2.67	-1.33	1.67	1.67	3.67	2.67	5.67	7.67	8.67	8.67	11.67	4.67	2.67	12.67	7.67	6.67	-0.33	5.67	1.67	4.67	4.67	2.67	3.67	-0.33
804	51.042	15.67	1.33	-5.67	-2.67	1.33	3.33	7.33	13.33	21.33	10.33	27.33	10.33	14.33	14.33	28.33	17.33	14.33	2.33	1.33	3.33	4.33	17.33	8.33	12.33	7.33	11.33	6.33
811	51.487	14.67	14.33	-0.67	9.33	16.33	19.33	29.33	22.33	31.33	20.33	28.33	36.33	40.33	32.33	30.33	23.33	10.33	13.33	29.33	18.33	22.33	29.33	22.33	15.33	21.33	24.33	14.33
818	51.932	17.33	9.67	2.67	8.67	0.67	10.67	18.67	15.67	25.67	24.67	24.67	13.67	29.67	27.67	16.67	14.67	16.67	12.67	20.67	16.67	13.67	16.67	11.67	12.67	13.67	14.67	17.67
825	52.377	11.67	3.33	0.33	-2.67	2.33	-1.67	6.33	11.33	6.33	14.33	7.33	19.33	11.33	2.33	3.33	5.33	10.33	12.33	7.33	2.33	14.33	14.33	5.33	8.33	13.33	10.33	8.33
832	52.823	15.0	-4.0	3.0	-12.0	-1.0	-1.0	0.0	-4.0	-2.0	-4.0	-2.0	2.0	5.0	-4.0	-4.0	-3.0	-1.0	-6.0	-2.0	0.0	-3.0	-1.0	-4.0	3.0	3.0	1.0	0.0
839	53.268	17.0	-7.0	1.0	-6.0	-9.0	-5.0	-6.0	0.0	-7.0	-8.0	-4.0	-4.0	-1.0	-2.0	-7.0	-8.0	-1.0	0.0	-3.0	-1.0	-2.0	-1.0	-6.0	-1.0	1.0	-6.0	-2.0
846	53.713	15.33	-5.33	-2.33	-5.33	-1.33	-0.33	-6.33	-3.33	2.67	-5.33	-1.33	-9.33	-8.33	-0.33	-7.33	-3.33	-10.33	-8.33	-6.33	-1.33	0.67	-2.33	-0.33	-0.33	-6.33	-8.33	-4.33
853	54.159	19.67	-3.67	-9.67	-3.67	-6.67	-6.67	-2.67	-4.67	-1.67	-5.67	-0.67	-11.67	-2.67	-13.67	-6.67	-12.67	-3.67	-7.67	-5.67	-8.67	-2.67	-6.67	-9.67	-10.67	-7.67	-0.67	-7.67
860	54.604	19.67	-8.67	-9.67	-2.67	-5.67	-7.67	-7.67	-3.67	-6.67	-9.67	-7.67	-9.67	-5.67	-9.67	-10.67	-9.67	-10.67	-5.67	-8.67	-5.67	-8.67	-11.67	-9.67	-8.67	-9.67	-8.67	-7.67
867	55.05	19.0	-7.0	-3.0	-9.0	-12.0	-8.0	-6.0	-7.0	-6.0	-5.0	-11.0	-6.0	-11.0	-10.0	-6.0	2.0	-8.0	-7.0	-9.0	-2.0	-4.0	-6.0	-15.0	-9.0	-13.0	-9.0	-1.0
874	55.496	17.0	-9.0	0.0	-8.0	-13.0	-8.0	-8.0	1.0	-6.0	-4.0	-7.0	-8.0	-9.0	-9.0	-6.0	-2.0	-2.0	-10.0	-5.0	-7.0	-6.0	-10.0	-6.0	-8.0	-9.0	-2.0	-5.0
881	55.942	19.0	-2.0	6.0	-8.0	0.0	-6.0	-9.0	-11.0	-11.0	-6.0	-6.0	-9.0	-7.0	-6.0	-8.0	-5.0	-3.0	-4.0	-9.0	-10.0	-5.0	-13.0	0.0	-6.0	-3.0	-2.0	-9.0
888	56.387	22.33	-11.33	-7.33	-6.33	-3.33	-13.33	-15.33	-6.33	-3.33	-12.33	-9.33	-13.33	-10.33	-14.33	-10.33	-10.33	-12.33	-12.33	-3.33	-12.33	-6.33	-12.33	-14.33	-10.33	-13.33	-10.33	-12.33
895	56.833	14.33	-4.33	-4.33	-2.33	3.67	-7.33	-2.33	-3.33	4.67	-2.33	4.67	-3.33	-2.33	-1.33	-9.33	0.67	-0.33	-1.33	0.67	-0.33	-8.33	7.67	-7.33	-7.33	-8.33	0.67	-2.33
902	57.279	17.0	-1.0	-11.0	1.0	-6.0	-7.0	4.0	-2.0	-9.0	-4.0	-3.0	-3.0	1.0	-2.0	5.0	-2.0	5.0	-5.0	0.0	-2.0	-8.0	-1.0	1.0	-1.0	-2.0	-3.0	-8.0
909	57.726	17.67	2.33	-3.67	-4.67	2.33	-0.67	-4.67	-5.67	0.33	3.33	2.33	2.33	-3.67	-1.67	-6.67	-4.67	-0.67	-0.67	-3.67	0.33	-4.67	-1.67	0.33	-1.67	-4.67	2.33	2.33
916	58.172	19.0	0.0	-8.0	-7.0	-2.0	0.0	-5.0	0.0	1.0	1.0	-6.0	-4.0	-2.0	-8.0	1.0	-3.0	-5.0	0.0	-7.0	0.0	3.0	-4.0	-7.0	-4.0	-4.0	2.0	4.0
923	58.618	20.67	-3.67	-10.67	-4.67	-0.67	-4.67	-9.67	0.33	-7.67	-6.67	-10.67	-8.67	-8.67	-8.67	-12.67	-8.67	-7.67	-8.67	-2.67	-14.67	5.33	-7.67	-13.67	-6.67	-4.67	-10.67	-1.67
930	59.064	21.33	-8.33	-3.33	-1.33	-3.33	1.67	-4.33	-3.33	9.67	-2.33	2.67	-3.33	-0.33	-9.33	-4.33	-7.33	-1.33	-7.33	3.67	-8.33	-7.33	-4.33	-5.33	-10.33	-4.33	-9.33	-6.33
937	59.511	24.67	-12.67	0.33	-1.67	-8.67	-4.67	-5.67	-13.67	-9.67	-7.67	-7.67	-0.67	-0.67	-9.67	-6.67	-9.67	-5.67	-10.67	-7.67	-2.67	-10.67	-8.67	-9.67	-14.67	-7.67	-0.67	-4.67
944	59.957	27.33	-4.33	-14.33	-18.33	-7.33	-9.33	-16.33	-6.33	-16.33	-17.33	-9.33	-11.33	-15.33	-10.33	-11.33	-16.33	-14.33	-15.33	-8.33	-17.33	-10.33	-12.33	-12.33	-11.33	-14.33	-10.33	-16.33
951	60.404	21.0	-6.0	-7.0	-10.0	-7.0	-3.0	-10.0	-7.0	-7.0	-14.0	-8.0	-4.0	-11.0	-7.0	-13.0	-8.0	-7.0	-4.0	-2.0	-2.0	-7.0	-7.0	-5.0	-3.0	-9.0	-11.0	-6.0
958	60.851	19.33	-0.33	-6.33	-6.33	-2.33	-5.33	-9.33	-6.33	-7.33	-9.33	-5.33	-4.33	-7.33	-4.33	-12.33	-9.33	-11.33	-5.33	-7.33	-5.33	-7.33	-3.33	-3.33	-8.33	-5.33	-5.33	-9.33
965	61.298	20.33	-11.33	-6.33	-7.33	-6.33	-2.33	-6.33	-3.33	-10.33	-4.33	-4.33	-0.33	-8.33	-7.33	-4.33	-0.33	-7.33	-5.33	-9.33	-6.33	-2.33	-7.33	-5.33	-7.33	-4.33	-7.33	-10.33
972	61.745	23.0	-6.0	-10.0	-10.0	-6.0	-9.0	-5.0	-15.0	-1.0	-10.0	-12.0	-10.0	1.0	-12.0	-7.0	-12.0	-2.0	-9.0	-10.0	-10.0	-10.0	-1.0	-4.0	1.0	-9.0	-15.0	-12.0
979	62.192	17.67	-0.67	-5.67	-1.67	-3.67	-1.67	-6.67	-3.67	-3.67	-5.67	-6.67	-1.67	-0.67	-1.67	-3.67	-2.67	-9.67	-7.67	-1.67	-5.67	-7.67	-3.67	-8.67	5.33	-5.67	0.33	-4.67
986	62.639	18.0	-3.0	-4.0	-2.0	0.0	-2.0	-4.0	-4.0	-3.0	-2.0	-6.0	-5.0	-8.0	-8.0	3.0	-2.0	-4.0	-2.0	-5.0	-1.0	-5.0	-5.0	-10.0	-10.0	-7.0	-4.0	-4.0
993	63.086	25.0	-16.0	-14.0	-13.0	-7.0	-10.0	-13.0	-3.0	-8.0	-12.0	-17.0	4.0	-13.0	-9.0	-7.0	-14.0	-7.0	-8.0	-9.0	-6.0	-8.0	-12.0	2.0	-10.0	-16.0	-7.0	-7.0
1000	63.533	22.67	-3.67	-6.67	-9.67	-6.67	2.33	-4.67	-7.67	-8.67	-5.67	-13.67	-10.67	-9.67	-2.67	-12.67	-10.67	1.33	3.33	-9.67	-8.67	-9.67	-9.67	-13.67	-5.67	-10.67	-9.67	-1.67
1007	63.981	19.67	-3.67	-1.67	-8.67	-6.67	-5.67	-10.67	-4.67	-1.67	-2.67	-2.67	-9.67	-9.67	-8.67	1.33	-5.67	-1.67	-2.67	-6.67	-2.67	-8.67	-5.67	-1.67	-3.67	-5.67	-4.67	-4.67
1014	64.428	21.67	-6.67	-9.67	-8.67	-5.67	-7.67	-1.67	1.33	-8.67	-3.67	-10.67	-6.67	-10.67	-6.67	-9.67	-6.67	-6.67	-5.67	-0.67	-2.67	-9.67	-16.67	-6.67	-4.67	1.33	-4.67	-4.67
1021	64.876	17.67	1.33	4.33	-3.67	7.33	9.33	10.33	-4.67	3.33	8.33	4.33	5.33	5.33	1.33	5.33	5.33	3.33	0.33	1.33	3.33	8.33	-0.67	-0.67	2.33	-0.67	1.33	5.33
1028	65.324	19.33	8.67	17.67	24.67	19.67	13.67	19.67	19.67	3.67	8.67	8.67	2.67	4.67	6.67	6.67	6.67	5.67	14.67	1.67	9.67	-2.33	13.67	7.67	1.67	15.67	12.67	12.67
1035	65.772	19.67	7.33	31.33	20.33	30.33	15.33	26.33	27.33	13.33	6.33	8.33	4.33	2.33	18.33	30.33	16.33	10.33	9.33	16.33	13.33	7.33	1.33	17.33	4.33	10.33	17.33	5.33
1042	66.22	20.33	-0.33	22.67	25.67	10.67	18.67	8.67	21.67	16.67	9.67	5.67	13.67	10.67	9.67	3.67	5.67	16.67	13.67	1.67	4.67	8.67	7.67	15.67	2.67	16.67	5.67	4.67
1049	66.668	16.0	9.0	15.0	13.0	21.0	6.0	6.0	7.0	-5.0	2.0	1.0	6.0	11.0	3.0	4.0	11.0	16.0	5.0	3.0	6.0	16.0	13.0	3.0	13.0	-4.0	18.0	3.0
1056	67.116	21.0	-3.0	7.0	5.0	-5.0	6.0	3.0	1.0	-3.0	-4.0	-3.0	0.0	-10.0	8.0	-5.0	2.0	5.0	-1.0	-1.0	1.0	2.0	-1.0	0.0	1.0	3.0	6.0	-7.0
1063	67.564	16.0	-5.0	9.0	-6.0	-3.0	3.0	1.0	6.0	1.0	-1.0	-1.0	6.0	-2.0	0.0	9.0	0.0	-4.0	1.0	2.0	-3.0	-5.0	-8.0	15.0	6.0	-1.0	6.0	4.0
1070	68.013	15.67	-0.67	-3.67	2.33	7.33	-2.67	-4.67	6.33	6.33	-4.67	6.33	-0.67	1.33	-3.67	6.33	-3.67	-8.67	-2.67	4.33	6.33	3.33	-0.67	7.33	0.33	-0.67	-2.67	-5.67
1077	68.462	19.33	-7.33	8.67	-5.33	-6.33	-0.33	-6.33	0.67	-7.33	-4.33	-4.33	-4.33	-9.33	-4.33	-3.33	-3.33	-2.33	-1.33	0.67	-3.33	-7.33	-2.33	-1.33	9.67	-3.33	-0.33	-1.33
1084	68.91	18.33	-7.33	-2.33	4.67	5.67	0.67	-2.33	1.67	-0.33	4.67	-2.33	0.67	-1.33	-0.33	-0.33	-2.33	-1.33	3.67	6.67	-0.33	11.67	-1.33	0.67	-8.33	0.67	0.67	-4.33
1091	69.359	17.0	-6.0	-1.0	6.0	-6.0	-6.0	1.0	1.0	1.0	0.0	1.0	10.0	7.0	1.0	4.0	3.0	0.0	3.0	-4.0	3.0	-2.0	0.0	2.0	3.0	-1.0	-1.0	-4.0
1098	69.808	15.67	-5.67	-1.67	-2.67	1.33	0.33	2.33	6.33	0.33	6.33	7.33	5.33	0.33	2.33	10.33	2.33	4.33	-2.67	3.33	-4.67	2.33	2.33	-1.67	-6.67	-1.67	6.33	10.33
1105	70.257	17.33	0.67	-8.33	-5.33	0.67	-4.33	1.67	-3.33	-0.33	-4.33	-6.33	8.67	-8.33	-4.33	1.67	-1.33	-4.33	-4.33	-0.33	1.67	-4.33	0.67	-3.33	3.67	5.67	-3.33	-3.33
1112	70.707	13.67	0.33	0.33	4.33	2.33	3.33	3.33	2.33	0.33	3.33	4.33	3.33	-1.67	-0.67	-0.67	8.33	0.33	11.33	1.33	-1.67	0.33	4.33	-1.67	2.33	3.33	4.33	-2.67
1119	71.156	13.33	-3.33	-6.33	2.67	2.67	0.67	11.67	3.67	8.67	5.67	-0.33	-6.33	7.67	0.67	4.67	-4.33	5.67	-2.33	0.67	0.67	-1.33	0.67	5.67	1.67	6.67	0.67	4.67
1126	71.606	15.0	-5.0	1.0	-4.0	1.0	-1.0	0.0	5.0	6.0	1.0	3.0	-1.0	-4.0	4.0	3.0	2.0	2.0	7.0	6.0	10.0	7.0	4.0	-3.0	10.0	-1.0	7.0	-5.0
1133	72.055	13.67	-1.67	-0.67	8.33	8.33	3.33	-1.67	9.33	-1.67	-3.67	6.33	7.33	6.33	2.33	4.33	0.33	-1.67	7.33	-0.67	2.33	-1.67	1.33	10.33	6.33	1.33	0.33	1.33
1140	72.505	19.67	-0.67	6.33	-5.67	-2.67	9.33	-1.67	9.33	11.33	3.33	-0.67	-0.67	-1.67	4.33	2.33	8.33	-7.67	2.33	0.33	-0.67	3.33	8.33	2.33	7.33	2.33	7.33	5.33
1147	72.955	32.33	3.67	1.67	1.67	4.67	-0.33	-3.33	-0.33	-0.33	1.67	3.67	-3.33	9.67	5.67	2.67	-4.33	-4.33	-5.33	-1.33	5.67	2.67	8.67	11.67	2.67	5.67	5.67	6.67
1154	73.405	20.0	-5.0	2.0	5.0	9.0	8.0	11.0	3.0	9.0	-2.0	2.0	-3.0	4.0	8.0	13.0	14.0	10.0	6.0	1.0	12.0	3.0	6.0	7.0	8.0	10.0	10.0	4.0
1161	73.855	17.33	-3.33	-1.33	2.67	5.67	5.67	-5.33	0.67	-0.33	2.67	5.67	8.67	-1.33	1.67	-6.33	-2.33	4.67	-0.33	1.67	0.67	1.67	2.67	0.67	13.67	2.67	3.67	3.67
1168	74.306	15.67	-2.67	1.33	6.33	2.33	8.33	3.33	13.33	0.33	8.33	13.33	0.33	2.33	-2.67	1.33	0.33	8.33	3.33	2.33	10.33	8.33	3.33	9.33	-1.67	6.33	0.33	8.33
1175	74.756	27.33	2.67	3.67	3.67	3.67	2.67	-1.33	10.67	-7.33	-4.33	7.67	-6.33	-0.33	-3.33	9.67	13.67	5.67	1.67	3.67	10.67	10.67	-11.33	19.67	2.67	5.67	10.67	-6.33
1182	75.207	38.33	11.67	10.67	17.67	0.67	8.67	11.67	14.67	9.67	7.67	2.67	13.67	6.67	4.67	20.67	15.67	3.67	12.67	9.67	9.67	2.67	15.67	19.67	12.67	1.67	6.67	13.67
1189	75.658	28.67	-9.67	6.33	4.33	0.33	5.33	-4.67	8.33	5.33	-1.67	3.33	-0.67	-2.67	5.33	6.33	2.33	7.33	9.33	8.33	12.33	15.33	0.33	7.33	7.33	-0.67	1.33	3.33
1196	76.109	18.0	-3.0	0.0	-2.0	6.0	3.0	-9.0	-5.0	3.0	-3.0	13.0	8.0	3.0	6.0	13.0	-1.0	17.0	3.0	6.0	3.0	11.0	2.0	2.0	4.0	1.0	10.0	3.0
1203	76.56	13.33	15.67	10.67	3.67	3.67	7.67	0.67	0.67	2.67	8.67	-0.33	5.67	-1.33	6.67	9.67	5.67	6.67	2.67	1.67	11.67	7.67	3.67	6.67	10.67	12.67	10.67	0.67
1210	77.011	16.33	-3.33	5.67	3.67	2.67	9.67	3.67	2.67	0.67	-0.33	7.67	10.67	-1.33	9.67	-1.33	-4.33	15.67	6.67	2.67	1.67	6.67	0.67	-4.33	1.67	0.67	4.67	5.67
1217	77.463	15.67	-3.67	1.33	-1.67	4.33	1.33	7.33	8.33	4.33	4.33	-1.67	1.33	4.33	3.33	2.33	3.33	1.33	-1.67	7.33	-4.67	-4.67	5.33	5.33	-2.67	5.33	0.33	-4.67
1224	77.915	16.0	-7.0	8.0	-5.0	-1.0	14.0	2.0	-2.0	-6.0	7.0	0.0	13.0	7.0	2.0	7.0	1.0	0.0	10.0	6.0	5.0	5.0	-5.0	-2.0	0.0	1.0	0.0	1.0
1231	78.366	14.0	6.0	5.0	0.0	1.0	6.0	0.0	-1.0	1.0	2.0	3.0	5.0	13.0	1.0	2.0	1.0	-1.0	-4.0	9.0	11.0	6.0	-1.0	7.0	10.0	12.0	1.0	3.0
1238	78.818	14.0	5.0	6.0	2.0	5.0	1.0	15.0	10.0	9.0	-4.0	7.0	9.0	9.0	12.0	9.0	8.0	12.0	5.0	3.0	7.0	0.0	4.0	5.0	5.0	5.0	8.0	1.0
1245	79.271	19.67	-0.67	-5.67	0.33	4.33	13.33	-0.67	8.33	-4.67	5.33	8.33	3.33	-6.67	0.33	-3.67	-0.67	-0.67	-7.67	0.33	6.33	-5.67	-0.67	-3.67	-0.67	2.33	3.33	-3.67
1252	79.723	17.0	2.0	0.0	6.0	6.0	7.0	0.0	3.0	2.0	3.0	1.0	10.0	-1.0	1.0	5.0	3.0	8.0	5.0	2.0	-3.0	-2.0	6.0	8.0	1.0	12.0	8.0	7.0
1259	80.175	19.33	1.67	3.67	3.67	0.67	-1.33	0.67	-3.33	2.67	0.67	-0.33	2.67	-2.33	4.67	0.67	7.67	-6.33	-1.33	2.67	-5.33	4.67	4.67	-0.33	12.67	-9.33	1.67	6.67
1266	80.628	17.0	-1.0	8.0	9.0	14.0	10.0	10.0	16.0	13.0	6.0	3.0	3.0	-5.0	10.0	5.0	5.0	13.0	5.0	3.0	7.0	4.0	7.0	6.0	14.0	3.0	6.0	9.0
1273	81.081	17.67	9.33	14.33	0.33	6.33	16.33	12.33	8.33	8.33	14.33	7.33	5.33	4.33	10.33	5.33	5.33	22.33	5.33	11.33	3.33	14.33	-1.67	8.33	8.33	8.33	9.33	6.33
1280	81.534	21.33	-2.33	8.67	3.67	11.67	-3.33	1.67	6.67	20.67	18.67	9.67	6.67	8.67	8.67	15.67	9.67	14.67	9.67	15.67	7.67	-1.33	12.67	5.67	14.67	15.67	7.67	11.67
1287	81.987	18.0	5.0	16.0	18.0	19.0	19.0	17.0	12.0	11.0	15.0	24.0	14.0	8.0	15.0	15.0	18.0	27.0	16.0	12.0	10.0	17.0	11.0	10.0	20.0	11.0	2.0	9.0
1294	82.441	23.33	11.67	40.67	24.67	24.67	27.67	24.67	40.67	22.67	4.67	19.67	27.67	32.67	23.67	15.67	11.67	17.67	11.67	15.67	10.67	17.67	23.67	17.67	10.67	19.67	19.67	8.67
1301	82.894	23.0	61.0	86.0	74.0	61.0	55.0	63.0	40.0	55.0	54.0	38.0	47.0	55.0	43.0	28.0	26.0	32.0	38.0	28.0	35.0	30.0	15.0	39.0	24.0	28.0	27.0	27.0
1308	83.348	18.33	118.67	191.67	164.67	140.67	124.67	131.67	120.67	107.67	96.67	94.67	107.67	100.67	79.67	79.67	86.67	68.67	77.67	53.67	60.67	56.67	64.67	64.67	66.67	55.67	70.67	70.67
1315	83.802	20.33	110.67	252.67	188.67	170.67	179.67	153.67	134.67	132.67	129.67	137.67	116.67	123.67	106.67	95.67	93.67	104.67	74.67	75.67	83.67	95.67	83.67	85.67	73.67	77.67	90.67	93.67
1322	84.256	19.67	111.33	220.33	208.33	172.33	161.33	113.33	148.33	93.33	138.33	148.33	103.33	86.33	117.33	79.33	82.33	88.33	64.33	78.33	77.33	81.33	72.33	66.33	79.33	69.33	70.33	70.33
1329	84.71	25.33	85.67	122.67	95.67	100.67	68.67	82.67	63.67	61.67	83.67	61.67	47.67	55.67	48.67	51.67	48.67	53.67	37.67	37.67	52.67	53.67	41.67	54.67	48.67	45.67	42.67	48.67
1336	85.165	29.33	27.67	58.67	32.67	24.67	20.67	18.67	13.67	16.67	18.67	6.67	9.67	10.67	18.67	17.67	25.67	32.67	19.67	21.67	14.67	15.67	2.67	13.67	10.67	18.67	21.67	38.67
1343	85.619	35.67	-3.67	-2.67	9.33	0.33	9.33	8.33	4.33	8.33	-8.67	-0.67	-1.67	0.33	1.33	0.33	8.33	4.33	2.33	-0.67	18.33	-0.67	3.33	3.33	0.33	-0.67	4.33	12.33
1350	86.074	22.33	8.67	9.67	9.67	12.67	6.67	11.67	10.67	9.67	7.67	1.67	4.67	1.67	10.67	13.67	8.67	8.67	-0.33	2.67	5.67	12.67	2.67	3.67	1.67	2.67	17.67	11.67
1357	86.529	23.0	-1.0	16.0	-3.0	4.0	7.0	8.0	9.0	4.0	0.0	10.0	3.0	10.0	5.0	5.0	17.0	10.0	8.0	5.0	7.0	3.0	15.0	7.0	-2.0	7.0	11.0	10.0
1364	86.985	20.67	4.33	7.33	8.33	12.33	8.33	16.33	7.33	14.33	8.33	13.33	4.33	16.33	17.33	8.33	4.33	10.33	12.33	8.33	14.33	13.33	5.33	5.33	3.33	21.33	10.33	3.33
1371	87.44	31.0	-6.0	10.0	-7.0	-13.0	-6.0	-2.0	-10.0	4.0	-4.0	0.0	-3.0	9.0	-9.0	-1.0	5.0	2.0	-8.0	-4.0	7.0	-4.0	1.0	-2.0	0.0	6.0	-2.0	2.0
1378	87.896	22.0	8.0	16.0	14.0	12.0	14.0	15.0	15.0	1.0	3.0	5.0	11.0	3.0	15.0	12.0	20.0	16.0	16.0	13.0	0.0	5.0	3.0	19.0	15.0	16.0	1.0	3.0
1385	88.352	26.33	1.67	6.67	10.67	-7.33	11.67	-5.33	3.67	5.67	16.67	15.67	-1.33	25.67	2.67	0.67	0.67	-3.33	4.67	6.67	10.67	12.67	9.67	-2.33	5.67	-1.33	0.67	8.67
1392	88.808	23.67	-0.67	11.33	6.33	-3.67	-1.67	16.33	1.33	21.33	5.33	3.33	2.33	9.33	9.33	6.33	2.33	9.33	5.33	12.33	4.33	9.33	17.33	8.33	5.33	12.33	16.33	2.33
1399	89.264	22.33	4.67	10.67	8.67	6.67	1.67	11.67	15.67	7.67	11.67	8.67	7.67	0.67	3.67	5.67	9.67	15.67	6.67	18.67	3.67	1.67	4.67	16.67	10.67	5.67	5.67	12.67
1406	89.72	22.0	4.0	12.0	8.0	13.0	8.0	4.0	14.0	7.0	9.0	11.0	2.0	13.0	8.0	6.0	4.0	5.0	16.0	10.0	5.0	9.0	4.0	5.0	2.0	6.0	6.0	11.0
1413	90.177	23.0	-1.0	8.0	13.0	12.0	8.0	5.0	8.0	7.0	6.0	12.0	17.0	7.0	9.0	1.0	3.0	0.0	14.0	15.0	9.0	10.0	9.0	1.0	11.0	9.0	9.0	4.0
1420	90.634	24.67	0.33	11.33	5.33	14.33	9.33	1.33	4.33	7.33	3.33	16.33	-2.67	11.33	6.33	8.33	7.33	19.33	14.33	6.33	9.33	7.33	7.33	12.33	7.33	7.33	2.33	-5.67
1427	91.091	27.0	-5.0	-4.0	2.0	1.0	2.0	8.0	12.0	12.0	6.0	3.0	4.0	-6.0	-5.0	2.0	4.0	10.0	2.0	4.0	7.0	15.0	0.0	11.0	9.0	21.0	9.0	4.0
1434	91.549	22.33	-0.33	13.67	15.67	13.67	7.67	14.67	4.67	5.67	14.67	9.67	8.67	7.67	10.67	10.67	12.67	18.67	8.67	10.67	0.67	3.67	8.67	7.67	4.67	-2.33	17.67	15.67
1441	92.006	25.33	8.67	8.67	13.67	7.67	7.67	13.67	8.67	6.67	12.67	11.67	7.67	11.67	9.67	6.67	10.67	-3.33	6.67	20.67	7.67	15.67	8.67	2.67	10.67	9.67	19.67	3.67
1448	92.464	26.0	-2.0	5.0	8.0	10.0	1.0	6.0	10.0	3.0	12.0	3.0	15.0	7.0	8.0	0.0	-1.0	11.0	8.0	7.0	13.0	12.0	17.0	9.0	16.0	6.0	15.0	2.0
1455	92.922	31.67	-9.67	0.33	0.33	7.33	7.33	-0.67	-6.67	-0.67	1.33	0.33	6.33	-4.67	-0.67	-1.67	3.33	-5.67	1.33	-1.67	10.33	3.33	7.33	9.33	-0.67	-3.67	2.33	-0.67
1462	93.38	25.0	1.0	12.0	8.0	12.0	2.0	9.0	7.0	6.0	20.0	1.0	0.0	18.0	5.0	8.0	11.0	5.0	-2.0	8.0	11.0	11.0	9.0	0.0	0.0	6.0	5.0	16.0
1469	93.839	26.0	-7.0	0.0	0.0	5.0	1.0	-5.0	1.0	12.0	14.0	3.0	12.0	2.0	4.0	12.0	7.0	-1.0	0.0	12.0	11.0	0.0	7.0	8.0	-6.0	18.0	7.0	8.0
1476	94.297	34.33	-5.33	-3.33	-1.33	-7.33	-3.33	0.67	-1.33	3.67	0.67	-10.33	7.67	-7.33	-1.33	-4.33	-2.33	-0.33	-0.33	-5.33	17.67	1.67	-1.33	5.67	-15.33	-8.33	-2.33	0.67
1483	94.756	23.33	2.67	10.67	8.67	11.67	20.67	4.67	2.67	2.67	16.67	8.67	4.67	24.67	14.67	18.67	6.67	17.67	19.67	4.67	5.67	19.67	7.67	14.67	7.67	10.67	3.67	15.67
1490	95.215	30.33	-2.33	7.67	9.67	-2.33	-4.33	16.67	-1.33	7.67	-4.33	3.67	3.67	-3.33	-4.33	12.67	1.67	4.67	5.67	10.67	7.67	7.67	3.67	-8.33	-0.33	12.67	10.67	3.67
1497	95.675	25.33	1.67	7.67	4.67	7.67	-0.33	8.67	1.67	8.67	14.67	5.67	22.67	21.67	11.67	12.67	16.67	27.67	19.67	7.67	8.67	12.67	13.67	5.67	4.67	12.67	27.67	15.67
1504	96.134	27.33	-2.33	-0.33	10.67	13.67	11.67	19.67	22.67	8.67	21.67	28.67	24.67	16.67	11.67	21.67	8.67	3.67	27.67	29.67	21.67	14.67	25.67	26.67	21.67	14.67	7.67	26.67
1511	96.594	37.0	-8.0	-6.0	1.0	14.0	14.0	20.0	5.0	22.0	15.0	20.0	25.0	3.0	20.0	6.0	16.0	13.0	17.0	9.0	10.0	9.0	14.0	24.0	24.0	15.0	12.0	7.0
1518	97.054	32.0	5.0	8.0	4.0	3.0	23.0	24.0	16.0	14.0	27.0	23.0	27.0	37.0	10.0	34.0	33.0	23.0	33.0	32.0	31.0	26.0	39.0	28.0	20.0	53.0	22.0	17.0
1525	97.514	33.0	-4.0	3.0	13.0	22.0	22.0	29.0	21.0	23.0	30.0	32.0	35.0	32.0	17.0	29.0	20.0	24.0	18.0	17.0	25.0	36.0	37.0	37.0	36.0	30.0	21.0	22.0
1532	97.975	30.0	4.0	4.0	-1.0	32.0	16.0	17.0	20.0	20.0	18.0	21.0	24.0	34.0	37.0	28.0	20.0	22.0	28.0	9.0	19.0	28.0	27.0	32.0	19.0	20.0	25.0	26.0
1539	98.436	23.33	6.67	17.67	9.67	15.67	15.67	16.67	4.67	17.67	29.67	17.67	22.67	23.67	6.67	10.67	11.67	23.67	18.67	20.67	18.67	30.67	20.67	23.67	23.67	8.67	13.67	22.67
1546	98.897	32.33	0.67	14.67	5.67	0.67	5.67	11.67	2.67	5.67	6.67	10.67	5.67	2.67	11.67	3.67	12.67	-7.33	10.67	8.67	7.67	3.67	9.67	7.67	-4.33	8.67	7.67	2.67
1553	99.358	38.0	-5.0	-1.0	-2.0	-2.0	-11.0	0.0	1.0	-3.0	-9.0	-11.0	0.0	3.0	-3.0	-9.0	-9.0	2.0	-2.0	-11.0	-3.0	10.0	0.0	-1.0	2.0	11.0	1.0	-1.0
1560	99.82	27.0	-3.0	6.0	8.0	3.0	6.0	5.0	12.0	6.0	6.0	-3.0	8.0	17.0	-1.0	2.0	16.0	7.0	8.0	7.0	16.0	2.0	17.0	9.0	2.0	12.0	14.0	6.0
1567	100.281	32.0	-6.0	1.0	-7.0	6.0	4.0	-6.0	13.0	-5.0	4.0	0.0	2.0	4.0	11.0	7.0	7.0	-7.0	1.0	9.0	-2.0	0.0	4.0	14.0	11.0	1.0	2.0	8.0
1574	100.743	26.0	2.0	6.0	5.0	7.0	19.0	0.0	16.0	5.0	11.0	11.0	19.0	3.0	6.0	5.0	10.0	-3.0	-3.0	5.0	18.0	0.0	21.0	24.0	13.0	8.0	11.0	21.0
1581	101.206	31.33	5.67	12.67	-1.33	3.67	1.67	14.67	-4.33	0.67	4.67	7.67	0.67	-0.33	3.67	-0.33	4.67	2.67	1.67	8.67	-0.33	6.67	4.67	7.67	9.67	5.67	-3.33	8.67
1588	101.668	33.67	6.33	8.33	-2.67	2.33	10.33	3.33	12.33	-0.67	-11.67	3.33	-2.67	-5.67	1.33	7.33	2.33	-5.67	3.33	-0.67	-1.67	5.33	-7.67	-0.67	2.33	4.33	-5.67	-1.67
1595	102.131	27.67	11.33	14.33	16.33	4.33	19.33	18.33	17.33	-3.67	8.33	1.33	9.33	8.33	16.33	13.33	8.33	23.33	3.33	3.33	16.33	6.33	7.33	5.33	15.33	22.33	9.33	21.33
1602	102.594	28.0	5.0	-4.0	20.0	18.0	3.0	1.0	13.0	-8.0	14.0	5.0	10.0	3.0	8.0	-3.0	-1.0	22.0	7.0	2.0	9.0	10.0	21.0	4.0	9.0	13.0	9.0	4.0
1609	103.057	31.67	2.33	1.33	6.33	8.33	6.33	-0.67	6.33	0.33	-4.67	4.33	-1.67	-7.67	-3.67	7.33	1.33	3.33	8.33	-1.67	4.33	13.33	11.33	-3.67	1.33	5.33	9.33	7.33
1616	103.521	23.67	-1.67	7.33	9.33	10.33	2.33	16.33	3.33	7.33	14.33	5.33	12.33	16.33	3.33	7.33	13.33	11.33	3.33	13.33	9.33	9.33	8.33	21.33	15.33	4.33	11.33	15.33
1623	103.985	26.0	7.0	13.0	11.0	13.0	-8.0	10.0	5.0	-2.0	4.0	2.0	12.0	10.0	-3.0	5.0	6.0	8.0	8.0	2.0	11.0	3.0	1.0	13.0	12.0	9.0	11.0	15.0
1630	104.449	25.67	-5.67	9.33	2.33	0.33	14.33	1.33	12.33	10.33	5.33	4.33	10.33	9.33	9.33	8.33	11.33	-0.67	10.33	11.33	1.33	0.33	11.33	2.33	-3.67	12.33	8.33	10.33
1637	104.913	28.33	-4.33	6.67	-5.33	-7.33	-3.33	-4.33	-2.33	0.67	3.67	-4.33	-6.33	1.67	-4.33	3.67	-4.33	-5.33	-2.33	0.67	9.67	1.67	2.67	-1.33	2.67	-7.33	4.67	1.67
1644	105.378	27.0	2.0	2.0	3.0	4.0	4.0	12.0	-3.0	5.0	15.0	1.0	-2.0	7.0	7.0	5.0	10.0	4.0	2.0	0.0	-5.0	0.0	-3.0	-2.0	4.0	0.0	-2.0	8.0
1651	105.843	26.67	1.33	2.33	6.33	0.33	-1.67	-6.67	6.33	4.33	3.33	-12.67	5.33	-1.67	4.33	-4.67	-7.67	3.33	5.33	4.33	4.33	6.33	3.33	5.33	5.33	3.33	18.33	0.33
1658	106.308	24.33	-5.33	2.67	8.67	11.67	0.67	-6.33	-2.33	9.67	-2.33	2.67	9.67	0.67	5.67	-2.33	0.67	8.67	8.67	15.67	-0.33	-0.33	7.67	0.67	13.67	12.67	8.67	14.67
1665	106.773	30.33	-3.33	-11.33	-0.33	1.67	4.67	-1.33	2.67	0.67	-5.33	-3.33	0.67	-0.33	2.67	-6.33	-3.33	15.67	-1.33	-5.33	-8.33	-7.33	-2.33	-7.33	-4.33	-6.33	-2.33	-12.33
1672	107.239	20.0	-5.0	0.0	8.0	1.0	7.0	7.0	5.0	1.0	-4.0	3.0	0.0	10.0	17.0	14.0	9.0	3.0	13.0	15.0	2.0	10.0	2.0	5.0	4.0	7.0	8.0	14.0
1679	107.705	21.33	3.67	6.67	2.67	1.67	9.67	4.67	7.67	-0.33	4.67	5.67	11.67	-2.33	3.67	-4.33	6.67	1.67	2.67	5.67	11.67	13.67	6.67	2.67	3.67	3.67	2.67	5.67
1686	108.171	23.33	-1.33	-1.33	0.67	1.67	0.67	-0.33	3.67	-1.33	6.67	6.67	-2.33	-0.33	7.67	4.67	-5.33	6.67	2.67	-0.33	6.67	-0.33	13.67	5.67	5.67	15.67	-6.33	4.67
1693	108.638	30.33	3.67	-10.33	-14.33	-14.33	5.67	-0.33	-12.33	-12.33	-1.33	-2.33	-3.33	-7.33	-0.33	-0.33	-10.33	-10.33	-3.33	-5.33	-1.33	3.67	-1.33	-2.33	0.67	-7.33	0.67	-4.33
1700	109.105	23.0	-1.0	5.0	0.0	-6.0	1.0	2.0	1.0	8.0	-3.0	7.0	-2.0	4.0	9.0	8.0	-6.0	2.0	-5.0	-7.0	3.0	5.0	4.0	-5.0	1.0	3.0	1.0	7.0
1707	109.572	25.0	-4.0	-5.0	2.0	0.0	-9.0	1.0	-3.0	3.0	7.0	-5.0	2.0	-7.0	9.0	6.0	3.0	-8.0	2.0	-13.0	4.0	-2.0	-3.0	-4.0	1.0	-2.0	6.0	0.0
1714	110.039	23.0	3.0	0.0	-7.0	3.0	0.0	-3.0	-5.0	3.0	-4.0	8.0	-7.0	-5.0	7.0	-8.0	0.0	-2.0	7.0	14.0	-6.0	2.0	11.0	12.0	8.0	8.0	-1.0	-4.0
1721	110.507	21.0	-2.0	-7.0	-4.0	-1.0	2.0	4.0	-2.0	3.0	4.0	3.0	9.0	-6.0	9.0	-1.0	12.0	9.0	8.0	-1.0	5.0	3.0	2.0	-7.0	10.0	15.0	0.0	-11.0
1728	110.975	22.67	-1.67	3.33	12.33	-8.67	2.33	5.33	0.33	4.33	-4.67	4.33	-2.67	-0.67	0.33	-2.67	3.33	-0.67	5.33	-8.67	2.33	1.33	2.33	-3.67	11.33	2.33	-5.67	2.33
1735	111.443	18.33	5.67	-7.33	9.67	4.67	17.67	1.67	9.67	-1.33	0.67	5.67	17.67	6.67	4.67	11.67	5.67	2.67	11.67	9.67	-1.33	9.67	7.67	11.67	7.67	12.67	16.67	20.67
1742	111.912	19.67	2.33	2.33	5.33	6.33	8.33	13.33	4.33	7.33	7.33	13.33	4.33	4.33	5.33	11.33	9.33	5.33	9.33	7.33	10.33	-3.67	-4.67	7.33	7.33	1.33	0.33	13.33
1749	112.38	21.67	2.33	3.33	4.33	6.33	4.33	7.33	10.33	5.33	0.33	11.33	4.33	0.33	0.33	6.33	6.33	4.33	4.33	11.33	-1.67	3.33	4.33	0.33	0.33	8.33	3.33	3.33
1756	112.85	21.67	5.33	9.33	3.33	6.33	0.33	7.33	11.33	-4.67	-6.67	-0.67	6.33	6.33	0.33	-1.67	2.33	1.33	0.33	5.33	3.33	-0.67	-4.67	14.33	16.33	-5.67	9.33	-1.67
1763	113.319	21.33	-1.33	-7.33	1.67	-6.33	2.67	6.67	5.67	6.67	5.67	2.67	0.67	3.67	7.67	3.67	-6.33	3.67	18.67	3.67	7.67	2.67	-1.33	-3.33	1.67	6.67	2.67	-2.33
1770	113.789	22.33	0.67	-3.33	0.67	6.67	-1.33	2.67	-3.33	-3.33	-9.33	-4.33	5.67	0.67	1.67	-3.33	-8.33	-4.33	-3.33	-1.33	0.67	-4.33	-1.33	7.67	-7.33	0.67	5.67	0.67
1777	114.259	18.0	-1.0	3.0	-5.0	8.0	3.0	-4.0	6.0	3.0	-3.0	3.0	7.0	-5.0	-5.0	-5.0	-1.0	5.0	1.0	-4.0	6.0	12.0	6.0	-1.0	3.0	0.0	0.0	3.0
1784	114.729	14.0	5.0	9.0	3.0	9.0	3.0	3.0	-4.0	1.0	4.0	8.0	4.0	8.0	5.0	1.0	3.0	-1.0	6.0	11.0	11.0	3.0	15.0	2.0	2.0	17.0	6.0	7.0
1791	115.2	16.33	-3.33	-1.33	7.67	1.67	-1.33	1.67	5.67	-3.33	1.67	12.67	1.67	4.67	7.67	5.67	3.67	2.67	4.67	4.67	6.67	-1.33	6.67	0.67	2.67	1.67	1.67	-2.33
1798	115.671	20.67	-3.67	0.33	1.33	-3.67	-3.67	-2.67	-3.67	-3.67	0.33	4.33	1.33	2.33	-1.67	-10.67	-9.67	-3.67	-7.67	3.33	-5.67	0.33	-4.67	7.33	9.33	-2.67	0.33	1.33
1805	116.142	20.0	-1.0	-6.0	-2.0	-9.0	2.0	4.0	3.0	-9.0	-5.0	-8.0	4.0	-7.0	-6.0	2.0	-7.0	11.0	-8.0	1.0	-9.0	-8.0	-5.0	-2.0	-5.0	-2.0	7.0	0.0
1812	116.614	18.33	-2.33	1.67	-1.33	-3.33	-7.33	0.67	-2.33	2.67	2.67	-1.33	-6.33	7.67	3.67	0.67	0.67	-2.33	-1.33	-2.33	0.67	3.67	9.67	-5.33	-0.33	-2.33	-9.33	2.67
1819	117.086	15.33	-4.33	2.67	1.67	3.67	1.67	2.67	0.67	-1.33	-5.33	0.67	2.67	2.67	0.67	-8.33	3.67	-4.33	4.67	-1.33	-3.33	2.67	-0.33	17.67	8.67	1.67	0.67	8.67
1826	117.558	16.67	-3.67	4.33	-8.67	-8.67	-6.67	8.33	9.33	-0.67	-2.67	3.33	0.33	-5.67	3.33	11.33	-2.67	-2.67	-0.67	1.33	-5.67	1.33	0.33	4.33	0.33	-1.67	0.33	0.33
1833	118.03	15.67	-7.67	7.33	-7.67	-3.67	1.33	-6.67	-2.67	-1.67	-4.67	0.33	0.33	0.33	9.33	3.33	-2.67	-2.67	0.33	9.33	4.33	7.33	0.33	0.33	8.33	0.33	1.33	2.33
1840	118.503	17.0	2.0	0.0	4.0	-9.0	-3.0	0.0	0.0	-8.0	-3.0	-4.0	0.0	0.0	-7.0	-1.0	-1.0	-2.0	-4.0	0.0	-1.0	-1.0	0.0	3.0	-4.0	-2.0	-7.0	5.0
1847	118.976	15.0	-3.0	-7.0	8.0	-2.0	4.0	-6.0	-1.0	7.0	6.0	-4.0	-3.0	5.0	2.0	6.0	2.0	0.0	1.0	0.0	2.0	-2.0	2.0	-6.0	11.0	5.0	-2.0	4.0
1854	119.45	15.67	-4.67	-1.67	-1.67	-3.67	-0.67	4.33	2.33	3.33	-1.67	-1.67	0.33	5.33	-2.67	4.33	6.33	-2.67	-1.67	3.33	-1.67	-1.67	-1.67	2.33	-6.67	-5.67	1.33	5.33
1861	119.924	14.33	-1.33	3.67	-0.33	-6.33	-0.33	4.67	2.67	-0.33	-0.33	-2.33	-4.33	8.67	3.67	-1.33	-2.33	2.67	-0.33	-0.33	-1.33	5.67	-0.33	-2.33	1.67	9.67	-0.33	2.67
1868	120.398	16.0	-6.0	3.0	-2.0	-4.0	1.0	1.0	-6.0	-5.0	5.0	-6.0	2.0	-1.0	1.0	-5.0	2.0	-2.0	-4.0	11.0	-5.0	-1.0	6.0	4.0	-7.0	-6.0	-3.0	3.0
1875	120.872	16.33	-10.33	-0.33	-5.33	-6.33	-5.33	-7.33	-8.33	-4.33	-1.33	-8.33	2.67	-3.33	-2.33	-5.33	-9.33	-8.33	1.67	-9.33	2.67	0.67	-3.33	0.67	-4.33	-0.33	-1.33	-6.33
1882	121.347	11.0	7.0	1.0	9.0	4.0	-2.0	13.0	0.0	6.0	1.0	1.0	8.0	1.0	2.0	-1.0	4.0	1.0	-4.0	2.0	8.0	-2.0	-1.0	2.0	1.0	0.0	5.0	0.0
1889	121.822	13.33	1.67	-4.33	-2.33	0.67	-0.33	3.67	2.67	0.67	1.67	-4.33	0.67	4.67	-2.33	-2.33	-0.33	-6.33	4.67	3.67	3.67	-5.33	-0.33	-0.33	4.67	0.67	4.67	6.67
1896	122.298	13.0	-3.0	1.0	4.0	4.0	2.0	0.0	2.0	2.0	-3.0	-1.0	2.0	3.0	1.0	4.0	5.0	4.0	5.0	1.0	-6.0	5.0	-5.0	3.0	1.0	4.0	-1.0	2.0
1903	122.773	15.67	6.33	-7.67	-1.67	5.33	1.33	-2.67	-2.67	-6.67	-5.67	2.33	-1.67	-2.67	-3.67	-2.67	-3.67	-1.67	-3.67	4.33	-3.67	9.33	1.33	-0.67	-3.67	-5.67	2.33	4.33
1910	123.25	7.33	5.67	5.67	8.67	4.67	14.67	1.67	11.67	3.67	6.67	8.67	7.67	8.67	7.67	10.67	-0.33	5.67	8.67	11.67	11.67	8.67	4.67	5.67	1.67	6.67	15.67	5.67
1917	123.726	8.67	8.33	3.33	6.33	1.33	9.33	-0.67	6.33	5.33	1.33	1.33	6.33	5.33	1.33	0.33	9.33	8.33	2.33	-0.67	11.33	1.33	1.33	3.33	6.33	5.33	7.33	1.33
1924	124.203	9.67	8.33	8.33	0.33	6.33	-0.67	5.33	2.33	-1.67	4.33	10.33	5.33	4.33	2.33	0.33	-1.67	1.33	-4.67	-2.67	11.33	14.33	0.33	-0.67	5.33	0.33	5.33	6.33
1931	124.68	7.67	3.33	6.33	1.33	6.33	8.33	1.33	3.33	1.33	7.33	4.33	3.33	2.33	-1.67	6.33	6.33	7.33	-0.67	-4.67	7.33	5.33	4.33	5.33	4.33	9.33	4.33	7.33
1938	125.158	10.67	6.33	3.33	-1.67	0.33	1.33	2.33	-0.67	1.33	5.33	-0.67	5.33	5.33	2.33	3.33	2.33	2.33	-4.67	3.33	-0.67	1.33	0.33	0.33	3.33	2.33	-0.67	1.33
1945	125.635	10.0	4.0	5.0	0.0	2.0	4.0	0.0	3.0	0.0	8.0	-3.0	3.0	3.0	5.0	6.0	0.0	3.0	-3.0	4.0	5.0	3.0	-2.0	6.0	5.0	6.0	5.0	3.0
1952	126.114	15.0	-3.0	-3.0	-11.0	-4.0	-4.0	-4.0	-2.0	-6.0	1.0	-5.0	3.0	-5.0	0.0	-3.0	-4.0	-6.0	2.0	-2.0	-4.0	-2.0	3.0	0.0	0.0	-4.0	-2.0	-2.0
1959	126.592	11.33	-2.33	-4.33	5.67	-1.33	2.67	0.67	-4.33	0.67	1.67	-0.33	5.67	5.67	2.67	-1.33	1.67	-7.33	-3.33	3.67	-0.33	1.67	-0.33	-1.33	1.67	-0.33	-0.33	-2.33
1966	127.071	8.33	4.67	-2.33	-1.33	4.67	4.67	3.67	-3.33	-1.33	-2.33	6.67	0.67	-4.33	7.67	-0.33	4.67	0.67	3.67	2.67	5.67	4.67	9.67	8.67	1.67	1.67	9.67	-1.33
1973	127.55	11.67	-1.67	1.33	1.33	-6.67	3.33	0.33	-0.67	-0.67	0.33	4.33	-1.67	-2.67	1.33	-2.67	3.33	4.33	-1.67	-0.67	4.33	0.33	-4.67	-3.67	-0.67	-2.67	4.33	3.33
1980	128.03	8.67	2.33	4.33	-2.67	0.33	-2.67	-0.67	1.33	2.33	4.33	-1.67	7.33	3.33	2.33	-0.67	-0.67	3.33	2.33	-2.67	6.33	-5.67	3.33	4.33	8.33	10.33	1.33	4.33
1987	128.51	9.0	-2.0	1.0	7.0	2.0	-3.0	2.0	2.0	2.0	4.0	4.0	6.0	0.0	3.0	4.0	-5.0	1.0	8.0	1.0	0.0	8.0	3.0	8.0	-2.0	2.0	0.0	2.0
1994	128.99	7.67	1.33	-0.67	4.33	-0.67	-3.67	1.33	1.33	2.33	-0.67	-2.67	1.33	1.33	5.33	6.33	-1.67	1.33	1.33	-1.67	3.33	6.33	3.33	-1.67	-0.67	4.33	6.33	3.33
2001	129.471	11.33	-4.33	8.67	-1.33	-1.33	-0.33	0.67	-2.33	-0.33	-6.33	-3.33	1.67	-1.33	-7.33	-7.33	-4.33	-1.33	-2.33	7.67	-6.33	-3.33	-2.33	1.67	-2.33	-4.33	3.67	2.67
2008	129.952	9.0	-3.0	-3.0	1.0	2.0	5.0	-2.0	-1.0	0.0	0.0	0.0	-1.0	-2.0	0.0	1.0	0.0	-3.0	-1.0	0.0	1.0	5.0	0.0	-2.0	-1.0	3.0	0.0	-1.0
2015	130.433	12.67	-5.67	-2.67	-0.67	-2.67	-4.67	-3.67	-1.67	-4.67	-7.67	-6.67	-3.67	-3.67	-0.67	-2.67	-0.67	-2.67	-0.67	-3.67	-0.67	-1.67	-1.67	-4.67	-2.67	0.33	-5.67	-0.67
2022	130.915	7.33	2.67	10.67	1.67	2.67	-3.33	7.67	0.67	0.67	3.67	0.67	1.67	-1.33	3.67	4.67	3.67	7.67	8.67	3.67	-0.33	-1.33	-1.33	0.67	-4.33	4.67	-0.33	3.67
2029	131.397	8.33	-2.33	-4.33	2.67	1.67	0.67	4.67	2.67	-1.33	-1.33	1.67	-0.33	1.67	-4.33	2.67	-2.33	0.67	3.67	-0.33	1.67	-0.33	-1.33	-4.33	1.67	4.67	-0.33	2.67
2036	131.879	7.33	2.67	-2.33	3.67	1.67	3.67	1.67	4.67	2.67	0.67	4.67	1.67	8.67	7.67	0.67	-0.33	-3.33	2.67	0.67	-3.33	0.67	0.67	4.67	-0.33	4.67	1.67	6.67
2043	132.362	8.0	-3.0	0.0	-1.0	2.0	2.0	2.0	-1.0	8.0	-3.0	2.0	-4.0	1.0	1.0	2.0	-3.0	0.0	-2.0	7.0	1.0	-2.0	5.0	-1.0	6.0	-1.0	1.0	-1.0
2047	132.638	9.67	-0.67	2.33	-0.67	1.33	-1.67	-0.67	-0.67	-2.67	6.33	-1.67	-3.67	1.33	1.33	-0.67	1.33	1.33	-1.67	-2.67	-2.67	-3.67	1.33	0.33	-2.67	-4.67	4.33	-3.67