File: EDX Back Ups and Old Files/EDX Processed Data/Low pH SF 25C 9d.txt
Name: Low pH SF 25C 9d
Number of Scans: 29
Positions: [-13.0, -12.75, -12.5, -12.25, -12.0, -11.75, -11.5, -11.25, -11.0, -10.75, -10.5, -10.25, -10.0, -9.75, -9.5, -9.25, -9.0, -8.75, -8.5, -8.25, -8.0, -7.75, -7.5, -7.25, -7.0, -6.75, -6.5, -6.25, -6.0]
Points per Scan: 2048
Sample Edge: 3
Scans Off Sample: [0, 1, 2]
Conversion Features: [(275, 17444.3), (309, 19608.3), (913, 57981.7), (934, 59318.24), (1058, 67244.3)]
Degree of Fit: 3
Fit Coeffecients: [ 8.59183e-07 -0.001482  64.3003 -144.207]
pH: Low
Steel Fiber: True
Aging Temp.: 25
Aging Atm.: 100% CO2
Aging Humidity: None
Aging Time: 9

*********
#Bins	Energy [keV]	Avg. Background	-12.25	-12.0	-11.75	-11.5	-11.25	-11.0	-10.75	-10.5	-10.25	-10.0	-9.75	-9.5	-9.25	-9.0	-8.75	-8.5	-8.25	-8.0	-7.75	-7.5	-7.25	-7.0	-6.75	-6.5	-6.25	-6.0
6	0.242	1884.67	99.33	34.33	19.33	57.33	35.33	54.33	122.33	57.33	-23.67	-31.67	25.33	87.33	10.33	29.33	-58.67	-26.67	38.33	38.33	33.33	-17.67	2.33	-12.67	9.33	79.33	-18.67	-69.67
13	0.691	1231.33	68.67	9.67	9.67	71.67	-1.33	4.67	70.67	-4.33	-27.33	-37.33	-14.33	36.67	40.67	-14.33	-45.33	-46.33	82.67	64.67	39.67	-13.33	-7.33	-33.33	63.67	-0.33	39.67	-19.33
20	1.141	331.67	-26.67	0.33	-11.67	-2.67	-16.67	25.33	-7.67	-22.67	-37.67	-9.67	-17.67	-21.67	-10.67	-37.67	-28.67	7.33	4.33	1.33	-15.67	-45.67	-20.67	0.33	8.33	-35.67	-2.67	-5.67
27	1.591	57.67	-4.67	-6.67	-5.67	-14.67	-7.67	-12.67	-18.67	-13.67	-7.67	-11.67	-6.67	-18.67	6.33	0.33	6.33	-17.67	-2.67	1.33	-10.67	2.33	15.33	-7.67	-3.67	-14.67	-10.67	-4.67
34	2.04	8.67	-0.67	-1.67	-0.67	-6.67	1.33	0.33	1.33	-3.67	-0.67	-4.67	1.33	-1.67	5.33	0.33	-1.67	3.33	-2.67	0.33	-1.67	5.33	-2.67	-4.67	2.33	-4.67	-2.67	-3.67
41	2.49	1.33	-0.33	-0.33	-0.33	-0.33	0.67	-1.33	-1.33	0.67	-1.33	1.67	-0.33	0.67	-1.33	0.67	-1.33	-0.33	-1.33	-0.33	-1.33	-0.33	-0.33	-1.33	-1.33	-1.33	-0.33	-0.33
48	2.939	0.33	-0.33	-0.33	-0.33	0.67	-0.33	0.67	1.67	0.67	-0.33	-0.33	2.67	-0.33	-0.33	-0.33	0.67	-0.33	-0.33	-0.33	-0.33	0.67	-0.33	-0.33	0.67	0.67	-0.33	-0.33
55	3.388	0.0	1.0	0.0	1.0	0.0	0.0	1.0	0.0	0.0	0.0	2.0	0.0	0.0	1.0	0.0	1.0	0.0	0.0	0.0	0.0	0.0	0.0	0.0	0.0	0.0	0.0	0.0
62	3.837	0.0	0.0	0.0	1.0	1.0	0.0	1.0	1.0	0.0	1.0	0.0	0.0	0.0	0.0	0.0	0.0	1.0	0.0	0.0	1.0	1.0	1.0	0.0	0.0	1.0	1.0	0.0
69	4.286	0.33	0.67	-0.33	-0.33	-0.33	0.67	0.67	-0.33	-0.33	-0.33	0.67	0.67	-0.33	-0.33	-0.33	0.67	-0.33	-0.33	-0.33	-0.33	-0.33	1.67	-0.33	0.67	-0.33	-0.33	-0.33
76	4.734	0.0	0.0	0.0	1.0	0.0	0.0	1.0	0.0	0.0	0.0	0.0	1.0	0.0	1.0	1.0	0.0	0.0	0.0	0.0	1.0	1.0	0.0	0.0	2.0	0.0	0.0	1.0
83	5.183	0.33	-0.33	-0.33	-0.33	-0.33	-0.33	-0.33	-0.33	-0.33	-0.33	-0.33	-0.33	-0.33	-0.33	-0.33	1.67	-0.33	1.67	-0.33	-0.33	0.67	0.67	0.67	0.67	0.67	-0.33	-0.33
90	5.631	0.33	-0.33	-0.33	-0.33	-0.33	0.67	-0.33	0.67	-0.33	0.67	-0.33	1.67	-0.33	-0.33	-0.33	0.67	-0.33	-0.33	0.67	-0.33	-0.33	1.67	1.67	0.67	-0.33	0.67	1.67
97	6.08	1.0	-1.0	0.0	1.0	-1.0	-1.0	-1.0	-1.0	-1.0	-1.0	1.0	-1.0	0.0	-1.0	1.0	-1.0	-1.0	5.0	-1.0	1.0	0.0	-1.0	0.0	-1.0	1.0	0.0	-1.0
104	6.528	1.33	-0.33	-1.33	-1.33	-0.33	-0.33	-1.33	3.67	-0.33	-1.33	0.67	-0.33	-0.33	-0.33	-0.33	1.67	0.67	-1.33	0.67	-0.33	-0.33	-0.33	0.67	-0.33	0.67	1.67	2.67
111	6.976	2.33	0.67	2.67	-1.33	-0.33	-0.33	0.67	-1.33	1.67	-1.33	-2.33	0.67	0.67	1.67	2.67	1.67	-2.33	-2.33	0.67	-2.33	-0.33	-1.33	-0.33	4.67	-1.33	-1.33	-1.33
118	7.424	3.33	3.67	0.67	-1.33	2.67	0.67	2.67	0.67	-2.33	4.67	4.67	-0.33	-0.33	6.67	4.67	-0.33	-3.33	-2.33	-1.33	-0.33	5.67	0.67	-1.33	0.67	-1.33	0.67	1.67
125	7.872	4.0	-3.0	-1.0	0.0	-1.0	3.0	1.0	3.0	-1.0	2.0	-1.0	1.0	3.0	-1.0	2.0	1.0	6.0	1.0	2.0	1.0	-2.0	2.0	1.0	3.0	3.0	1.0	10.0
132	8.32	5.33	1.67	1.67	0.67	-1.33	1.67	0.67	2.67	0.67	-2.33	7.67	3.67	3.67	-1.33	-0.33	0.67	2.67	5.67	-3.33	6.67	-2.33	-1.33	2.67	-0.33	-5.33	0.67	0.67
139	8.767	8.0	-1.0	-2.0	-4.0	-2.0	2.0	-7.0	-1.0	-2.0	-1.0	-4.0	0.0	2.0	-1.0	3.0	-2.0	-2.0	5.0	-1.0	3.0	1.0	7.0	0.0	1.0	6.0	7.0	0.0
146	9.215	9.0	0.0	-2.0	1.0	-5.0	-2.0	-2.0	-2.0	0.0	-2.0	-2.0	3.0	-1.0	0.0	2.0	-1.0	2.0	-2.0	3.0	-4.0	-1.0	4.0	2.0	-3.0	0.0	1.0	1.0
153	9.662	6.33	-2.33	8.67	-2.33	6.67	5.67	-0.33	2.67	8.67	4.67	10.67	0.67	5.67	3.67	8.67	-1.33	11.67	6.67	1.67	5.67	9.67	8.67	4.67	4.67	-2.33	2.67	4.67
160	10.109	11.67	5.33	-4.67	1.33	-3.67	6.33	-2.67	0.33	-0.67	-1.67	-0.67	6.33	-2.67	2.33	1.33	-4.67	-0.67	2.33	7.33	0.33	0.33	1.33	4.33	-0.67	-1.67	0.33	-0.67
167	10.557	7.67	1.33	6.33	-0.67	2.33	0.33	0.33	10.33	3.33	2.33	0.33	1.33	11.33	6.33	0.33	-0.67	2.33	2.33	-0.67	3.33	-0.67	3.33	2.33	3.33	6.33	6.33	1.33
174	11.004	10.0	-3.0	-4.0	-5.0	-1.0	1.0	1.0	-2.0	3.0	-4.0	3.0	2.0	0.0	-7.0	7.0	2.0	-1.0	2.0	1.0	-1.0	-1.0	2.0	6.0	1.0	2.0	0.0	1.0
181	11.451	8.0	3.0	1.0	3.0	3.0	3.0	0.0	6.0	3.0	0.0	10.0	0.0	2.0	4.0	4.0	8.0	5.0	1.0	2.0	7.0	2.0	1.0	6.0	1.0	7.0	7.0	7.0
188	11.898	7.33	10.67	3.67	7.67	2.67	2.67	1.67	-1.33	2.67	1.67	-1.33	3.67	4.67	3.67	2.67	3.67	4.67	6.67	6.67	-0.33	6.67	-1.33	4.67	-0.33	5.67	15.67	9.67
195	12.344	10.0	-2.0	2.0	-6.0	-1.0	-5.0	0.0	3.0	-8.0	4.0	1.0	-4.0	3.0	-1.0	5.0	2.0	-4.0	1.0	7.0	1.0	3.0	-1.0	6.0	-1.0	4.0	4.0	-2.0
202	12.791	12.0	-2.0	0.0	-5.0	7.0	1.0	-3.0	2.0	2.0	5.0	-3.0	0.0	9.0	-3.0	-3.0	1.0	0.0	-1.0	2.0	4.0	0.0	0.0	2.0	-3.0	-2.0	3.0	-4.0
209	13.238	10.0	9.0	2.0	2.0	-1.0	-3.0	-1.0	2.0	-3.0	1.0	2.0	9.0	8.0	10.0	0.0	8.0	7.0	1.0	3.0	-1.0	1.0	0.0	6.0	0.0	2.0	2.0	0.0
216	13.684	8.67	2.33	-3.67	4.33	0.33	8.33	-0.67	6.33	5.33	6.33	3.33	-1.67	1.33	4.33	0.33	-2.67	5.33	1.33	5.33	7.33	3.33	11.33	1.33	9.33	2.33	5.33	-3.67
223	14.131	9.33	-5.33	5.67	1.67	-2.33	9.67	1.67	1.67	-5.33	5.67	1.67	1.67	-0.33	-1.33	3.67	-0.33	-0.33	4.67	-2.33	2.67	6.67	0.67	7.67	5.67	9.67	1.67	1.67
230	14.577	10.0	-6.0	-2.0	1.0	-4.0	2.0	0.0	2.0	0.0	1.0	-4.0	5.0	0.0	-6.0	5.0	1.0	-3.0	1.0	5.0	3.0	0.0	5.0	1.0	2.0	9.0	1.0	0.0
237	15.023	8.33	0.67	2.67	-1.33	9.67	10.67	6.67	-0.33	4.67	5.67	8.67	7.67	5.67	3.67	9.67	2.67	0.67	3.67	5.67	1.67	1.67	0.67	7.67	3.67	8.67	9.67	0.67
244	15.469	10.67	-1.67	-0.67	-2.67	-0.67	2.33	-3.67	-0.67	-3.67	-3.67	-1.67	1.33	3.33	5.33	8.33	0.33	1.33	-0.67	1.33	6.33	5.33	3.33	0.33	-1.67	8.33	-1.67	3.33
251	15.915	8.67	-0.67	2.33	0.33	3.33	9.33	0.33	2.33	4.33	3.33	-0.67	5.33	3.33	10.33	5.33	1.33	6.33	5.33	6.33	-2.67	-0.67	7.33	-0.67	2.33	3.33	3.33	3.33
258	16.361	10.33	1.67	8.67	1.67	2.67	-4.33	8.67	4.67	-1.33	1.67	3.67	1.67	3.67	11.67	4.67	6.67	-0.33	-0.33	-1.33	5.67	2.67	6.67	2.67	2.67	-0.33	-1.33	3.67
265	16.807	8.67	2.33	0.33	0.33	-5.67	-3.67	5.33	2.33	1.33	-3.67	3.33	-0.67	2.33	1.33	0.33	3.33	4.33	3.33	6.33	10.33	4.33	5.33	-0.67	9.33	2.33	0.33	10.33
272	17.253	6.33	0.67	2.67	12.67	4.67	9.67	4.67	8.67	-0.33	5.67	2.67	5.67	3.67	0.67	2.67	2.67	10.67	0.67	6.67	6.67	7.67	4.67	-0.33	4.67	-0.33	10.67	4.67
279	17.699	12.0	-5.0	-2.0	-4.0	-3.0	-2.0	-3.0	-4.0	4.0	-5.0	0.0	-2.0	-2.0	-2.0	-6.0	0.0	-6.0	-2.0	-1.0	5.0	0.0	2.0	-1.0	-4.0	2.0	-1.0	2.0
286	18.145	7.0	-2.0	1.0	4.0	1.0	6.0	0.0	2.0	3.0	4.0	5.0	12.0	3.0	4.0	1.0	15.0	10.0	-2.0	0.0	7.0	-1.0	7.0	0.0	8.0	6.0	5.0	2.0
293	18.59	8.67	-2.67	4.33	0.33	-2.67	3.33	-3.67	5.33	-0.67	0.33	0.33	0.33	1.33	4.33	4.33	4.33	5.33	-0.67	4.33	5.33	1.33	-0.67	8.33	2.33	-1.67	1.33	0.33
300	19.036	4.33	4.67	3.67	5.67	6.67	4.67	4.67	3.67	7.67	9.67	7.67	6.67	2.67	4.67	8.67	2.67	1.67	9.67	0.67	6.67	8.67	10.67	7.67	12.67	2.67	10.67	9.67
307	19.481	12.0	-1.0	-6.0	6.0	-5.0	0.0	-4.0	-4.0	1.0	4.0	-1.0	-2.0	-6.0	-4.0	-7.0	-2.0	-2.0	-4.0	-5.0	-2.0	-5.0	-4.0	2.0	0.0	-1.0	2.0	2.0
314	19.927	9.0	-1.0	3.0	-5.0	2.0	-3.0	1.0	2.0	1.0	3.0	4.0	4.0	1.0	3.0	-2.0	-1.0	9.0	1.0	3.0	1.0	5.0	3.0	2.0	6.0	2.0	2.0	7.0
321	20.372	7.67	3.33	-1.67	0.33	0.33	-0.67	5.33	7.33	2.33	5.33	-0.67	1.33	9.33	-2.67	7.33	2.33	1.33	0.33	1.33	-3.67	8.33	0.33	1.33	8.33	0.33	4.33	1.33
328	20.817	8.67	2.33	0.33	1.33	1.33	-2.67	-1.67	-2.67	-2.67	0.33	-0.67	-3.67	-0.67	4.33	-2.67	5.33	3.33	-2.67	0.33	7.33	-0.67	8.33	3.33	7.33	2.33	3.33	5.33
335	21.262	8.67	-0.67	4.33	1.33	-0.67	2.33	-0.67	6.33	3.33	-0.67	-0.67	5.33	-0.67	-2.67	1.33	0.33	3.33	1.33	7.33	1.33	3.33	2.33	0.33	3.33	-1.67	5.33	2.33
342	21.708	11.33	0.67	-3.33	-3.33	-5.33	-1.33	-6.33	-6.33	-0.33	4.67	-3.33	-2.33	-1.33	-2.33	-2.33	1.67	2.67	-5.33	-4.33	-0.33	3.67	-2.33	-5.33	3.67	-3.33	-2.33	-5.33
349	22.153	5.33	2.67	-2.33	2.67	1.67	4.67	9.67	6.67	10.67	2.67	1.67	4.67	10.67	0.67	-1.33	1.67	2.67	9.67	8.67	3.67	5.67	4.67	9.67	14.67	5.67	2.67	8.67
356	22.598	7.0	0.0	3.0	-2.0	-1.0	3.0	-4.0	-1.0	1.0	4.0	2.0	5.0	6.0	2.0	1.0	-2.0	9.0	1.0	4.0	7.0	7.0	1.0	4.0	0.0	7.0	6.0	6.0
363	23.043	7.0	3.0	3.0	2.0	1.0	-1.0	1.0	2.0	0.0	7.0	7.0	1.0	6.0	4.0	0.0	3.0	6.0	6.0	6.0	6.0	-3.0	4.0	1.0	5.0	1.0	3.0	1.0
370	23.488	9.0	-2.0	3.0	2.0	-6.0	-1.0	2.0	2.0	0.0	11.0	0.0	2.0	-6.0	0.0	0.0	3.0	4.0	-3.0	0.0	-1.0	-1.0	3.0	-3.0	-4.0	3.0	4.0	-2.0
377	23.932	6.0	-1.0	1.0	2.0	5.0	2.0	0.0	5.0	3.0	1.0	5.0	5.0	5.0	4.0	5.0	2.0	5.0	7.0	0.0	2.0	-1.0	6.0	3.0	0.0	6.0	7.0	3.0
384	24.377	8.33	-1.33	-0.33	-2.33	10.67	-4.33	1.67	-2.33	2.67	-1.33	-1.33	3.67	0.67	-1.33	0.67	4.67	-1.33	0.67	-4.33	7.67	-2.33	2.67	-5.33	-1.33	3.67	5.67	0.67
391	24.822	9.33	5.67	2.67	-2.33	-0.33	0.67	6.67	-1.33	-3.33	-1.33	-6.33	-5.33	-1.33	3.67	4.67	1.67	-2.33	-3.33	4.67	-0.33	-5.33	2.67	0.67	0.67	-2.33	12.67	0.67
398	25.267	4.67	1.33	4.33	5.33	2.33	1.33	3.33	2.33	0.33	1.33	2.33	3.33	0.33	4.33	5.33	8.33	5.33	8.33	0.33	4.33	4.33	4.33	6.33	1.33	3.33	7.33	4.33
405	25.711	8.0	-3.0	1.0	1.0	-2.0	-1.0	-1.0	0.0	2.0	-3.0	5.0	-3.0	5.0	-1.0	0.0	0.0	-1.0	-2.0	2.0	6.0	2.0	3.0	0.0	8.0	-5.0	-2.0	3.0
412	26.156	7.0	2.0	3.0	0.0	5.0	-3.0	-3.0	0.0	2.0	1.0	0.0	3.0	-2.0	3.0	0.0	3.0	-2.0	3.0	1.0	-2.0	3.0	-2.0	0.0	6.0	1.0	7.0	4.0
419	26.601	7.0	1.0	1.0	3.0	2.0	2.0	-2.0	2.0	-2.0	2.0	3.0	-1.0	3.0	3.0	-1.0	0.0	0.0	4.0	2.0	0.0	6.0	8.0	4.0	0.0	-2.0	3.0	-2.0
426	27.045	7.67	-2.67	1.33	-3.67	-3.67	0.33	-4.67	0.33	5.33	2.33	-1.67	-2.67	-1.67	-2.67	3.33	-0.67	0.33	1.33	5.33	0.33	-2.67	0.33	2.33	-2.67	-0.67	5.33	4.33
433	27.49	10.0	1.0	-4.0	-3.0	-3.0	0.0	1.0	-1.0	-5.0	-5.0	-6.0	0.0	1.0	-3.0	-3.0	-3.0	-7.0	4.0	-4.0	-2.0	0.0	7.0	4.0	-5.0	4.0	-2.0	-2.0
440	27.934	7.0	8.0	-1.0	1.0	0.0	2.0	0.0	-1.0	-3.0	-1.0	3.0	4.0	4.0	1.0	-1.0	2.0	-1.0	3.0	2.0	0.0	-1.0	1.0	0.0	2.0	0.0	1.0	3.0
447	28.379	5.33	6.67	2.67	-1.33	-0.33	6.67	1.67	1.67	3.67	5.67	3.67	0.67	3.67	-3.33	6.67	-0.33	4.67	2.67	2.67	6.67	0.67	9.67	2.67	5.67	5.67	0.67	-0.33
454	28.823	7.67	-4.67	1.33	-4.67	-0.67	4.33	-1.67	-1.67	-0.67	0.33	3.33	-5.67	-4.67	5.33	-0.67	0.33	-4.67	-1.67	-0.67	4.33	-0.67	4.33	4.33	0.33	2.33	0.33	1.33
461	29.267	6.0	2.0	0.0	4.0	-1.0	-2.0	-3.0	-1.0	-4.0	3.0	1.0	0.0	-1.0	2.0	2.0	-3.0	-2.0	1.0	5.0	7.0	0.0	-1.0	-1.0	0.0	2.0	-1.0	2.0
468	29.712	7.67	-1.67	2.33	-3.67	-1.67	-1.67	2.33	-1.67	-2.67	4.33	2.33	-2.67	1.33	-4.67	2.33	1.33	-6.67	1.33	0.33	-1.67	0.33	9.33	-2.67	0.33	-1.67	-1.67	-0.67
475	30.156	5.67	-0.67	-1.67	0.33	5.33	5.33	2.33	4.33	-0.67	2.33	-2.67	-4.67	4.33	1.33	-0.67	0.33	3.33	3.33	-0.67	4.33	-0.67	3.33	5.33	5.33	2.33	3.33	2.33
482	30.6	7.33	2.67	-2.33	3.67	-2.33	1.67	1.67	3.67	-4.33	0.67	-5.33	-2.33	-4.33	0.67	-3.33	0.67	5.67	-2.33	2.67	-4.33	-1.33	-0.33	0.67	-2.33	-2.33	5.67	0.67
489	31.045	4.33	1.67	6.67	-0.33	2.67	2.67	5.67	8.67	1.67	2.67	2.67	0.67	2.67	1.67	1.67	4.67	1.67	0.67	2.67	2.67	5.67	-2.33	1.67	-1.33	5.67	-1.33	1.67
496	31.489	7.0	0.0	-2.0	1.0	-4.0	-1.0	8.0	4.0	4.0	-4.0	-1.0	1.0	-2.0	3.0	1.0	0.0	1.0	2.0	2.0	-1.0	4.0	0.0	7.0	2.0	3.0	0.0	-3.0
503	31.933	6.33	-2.33	1.67	3.67	5.67	-1.33	3.67	5.67	4.67	-3.33	-1.33	0.67	-3.33	3.67	1.67	-2.33	-1.33	-1.33	1.67	-0.33	3.67	2.67	-0.33	0.67	2.67	-2.33	2.67
510	32.377	6.67	-1.67	3.33	-1.67	5.33	-4.67	0.33	-1.67	3.33	1.33	-1.67	-2.67	0.33	-1.67	1.33	-3.67	-1.67	-0.67	0.33	1.33	1.33	-2.67	-0.67	-1.67	-1.67	1.33	-1.67
517	32.822	4.67	3.33	-0.67	-0.67	-2.67	3.33	-1.67	-1.67	1.33	3.33	-1.67	4.33	0.33	-0.67	1.33	0.33	0.33	3.33	1.33	1.33	3.33	3.33	0.33	5.33	2.33	4.33	1.33
524	33.266	5.67	2.33	-0.67	-1.67	3.33	0.33	-1.67	1.33	1.33	1.33	2.33	-0.67	0.33	1.33	-0.67	0.33	-2.67	-1.67	-0.67	-4.67	-1.67	-0.67	2.33	-1.67	1.33	4.33	-3.67
531	33.71	6.0	-3.0	-1.0	-1.0	4.0	-1.0	-1.0	-3.0	5.0	-3.0	3.0	3.0	-3.0	-1.0	-1.0	1.0	-1.0	0.0	-5.0	1.0	-1.0	-2.0	0.0	0.0	1.0	2.0	0.0
538	34.154	4.0	5.0	0.0	1.0	0.0	0.0	-2.0	2.0	3.0	6.0	2.0	3.0	-1.0	5.0	5.0	3.0	1.0	3.0	-1.0	10.0	-1.0	3.0	5.0	0.0	2.0	2.0	2.0
545	34.598	7.33	1.67	-0.33	-5.33	-5.33	-1.33	-5.33	-6.33	-3.33	-3.33	-6.33	-1.33	1.67	3.67	-4.33	-2.33	-0.33	-2.33	-3.33	0.67	-1.33	-2.33	-2.33	-4.33	-1.33	-3.33	2.67
552	35.043	4.0	3.0	1.0	3.0	1.0	0.0	2.0	7.0	1.0	4.0	1.0	5.0	-1.0	1.0	3.0	3.0	0.0	6.0	2.0	1.0	3.0	3.0	1.0	1.0	0.0	2.0	0.0
559	35.487	4.67	-3.67	-0.67	-1.67	5.33	-0.67	-1.67	2.33	0.33	-1.67	3.33	-0.67	-0.67	5.33	2.33	1.33	1.33	0.33	0.33	-0.67	2.33	-2.67	1.33	-1.67	4.33	-0.67	2.33
566	35.931	4.33	0.67	0.67	1.67	0.67	0.67	1.67	3.67	-2.33	-1.33	-0.33	1.67	3.67	2.67	4.67	1.67	6.67	1.67	4.67	0.67	-1.33	-1.33	0.67	-0.33	1.67	0.67	2.67
573	36.375	4.33	0.67	-2.33	-0.33	0.67	0.67	-0.33	0.67	1.67	-1.33	-1.33	-0.33	-2.33	0.67	3.67	7.67	2.67	2.67	-0.33	4.67	5.67	5.67	2.67	-1.33	5.67	2.67	-0.33
580	36.819	4.67	2.33	5.33	2.33	1.33	-0.67	-1.67	-1.67	2.33	0.33	0.33	-2.67	2.33	-2.67	-1.67	-3.67	4.33	-1.67	-0.67	1.33	-0.67	3.33	3.33	5.33	-1.67	-1.67	-1.67
587	37.263	4.0	1.0	2.0	-2.0	4.0	1.0	2.0	4.0	1.0	3.0	-2.0	8.0	-1.0	2.0	2.0	1.0	-1.0	2.0	0.0	3.0	-1.0	2.0	3.0	6.0	3.0	-2.0	3.0
594	37.707	4.67	-0.67	2.33	0.33	0.33	1.33	5.33	-3.67	-1.67	-1.67	2.33	4.33	2.33	-1.67	0.33	2.33	3.33	2.33	3.33	1.33	-1.67	2.33	2.33	-3.67	1.33	4.33	1.33
601	38.152	2.67	7.33	-0.67	1.33	4.33	5.33	3.33	1.33	7.33	0.33	1.33	3.33	5.33	4.33	0.33	2.33	3.33	4.33	8.33	3.33	4.33	2.33	3.33	5.33	2.33	4.33	6.33
608	38.596	5.67	0.33	-2.67	-1.67	2.33	0.33	0.33	-1.67	-3.67	-0.67	2.33	-3.67	0.33	-1.67	3.33	-2.67	0.33	-0.67	-0.67	-2.67	-1.67	-1.67	-0.67	-2.67	0.33	-1.67	-1.67
615	39.04	4.0	2.0	4.0	1.0	1.0	4.0	-2.0	3.0	4.0	-1.0	1.0	3.0	3.0	2.0	3.0	4.0	2.0	-3.0	4.0	5.0	0.0	-1.0	4.0	3.0	1.0	1.0	7.0
622	39.484	6.33	-0.33	-2.33	-5.33	-1.33	-2.33	-0.33	-1.33	-3.33	0.67	-1.33	1.67	-2.33	5.67	-5.33	1.67	-3.33	0.67	-3.33	1.67	3.67	-1.33	-0.33	-1.33	2.67	-1.33	-2.33
629	39.928	3.33	3.67	0.67	1.67	-2.33	1.67	0.67	0.67	1.67	0.67	2.67	0.67	5.67	2.67	3.67	1.67	2.67	1.67	-0.33	-0.33	6.67	0.67	-1.33	3.67	0.67	-1.33	3.67
636	40.372	5.33	2.67	-4.33	3.67	1.67	1.67	1.67	-0.33	0.67	3.67	2.67	-0.33	-3.33	0.67	-1.33	-3.33	-1.33	-0.33	2.67	1.67	-2.33	-2.33	1.67	-0.33	0.67	-3.33	2.67
643	40.817	7.33	-5.33	0.67	-4.33	-0.33	-2.33	-2.33	-5.33	-1.33	4.67	-1.33	-0.33	0.67	-1.33	1.67	-1.33	-1.33	-0.33	-0.33	3.67	-4.33	-3.33	-4.33	-1.33	-5.33	-2.33	-2.33
650	41.261	4.0	-2.0	2.0	0.0	0.0	5.0	0.0	2.0	3.0	4.0	7.0	6.0	3.0	0.0	1.0	3.0	-1.0	4.0	0.0	2.0	3.0	1.0	1.0	1.0	1.0	6.0	2.0
657	41.705	5.0	1.0	-1.0	-1.0	4.0	5.0	-1.0	-1.0	6.0	1.0	0.0	-1.0	-2.0	-1.0	1.0	5.0	1.0	0.0	2.0	-3.0	-2.0	1.0	1.0	-2.0	1.0	-3.0	4.0
664	42.149	4.0	3.0	1.0	-2.0	1.0	0.0	5.0	3.0	3.0	-2.0	5.0	0.0	6.0	7.0	2.0	5.0	0.0	2.0	1.0	2.0	0.0	1.0	0.0	3.0	4.0	2.0	4.0
671	42.594	6.67	-2.67	-0.67	5.33	-3.67	-3.67	1.33	-0.67	0.33	4.33	-2.67	0.33	-3.67	1.33	1.33	-0.67	-2.67	1.33	-0.67	-0.67	-1.67	-0.67	-3.67	-1.67	-1.67	-2.67	0.33
678	43.038	5.67	3.33	-2.67	2.33	4.33	2.33	0.33	-0.67	1.33	2.33	3.33	0.33	4.33	5.33	-0.67	2.33	2.33	-2.67	0.33	7.33	3.33	2.33	-0.67	-4.67	0.33	-0.67	4.33
685	43.482	6.67	2.33	-3.67	-0.67	-0.67	-0.67	0.33	-0.67	4.33	-1.67	1.33	-0.67	4.33	0.33	0.33	-4.67	-2.67	-1.67	-2.67	-0.67	-0.67	1.33	1.33	0.33	-3.67	-1.67	-3.67
692	43.927	6.0	2.0	0.0	5.0	4.0	1.0	-1.0	4.0	1.0	-1.0	1.0	-3.0	3.0	-3.0	3.0	0.0	-2.0	1.0	1.0	-4.0	-1.0	1.0	1.0	-1.0	1.0	3.0	-1.0
699	44.371	6.0	4.0	3.0	2.0	2.0	3.0	-1.0	1.0	-2.0	4.0	4.0	0.0	1.0	0.0	-5.0	-3.0	-1.0	1.0	-2.0	-4.0	3.0	-2.0	2.0	7.0	2.0	2.0	2.0
706	44.815	9.33	-3.33	-5.33	-3.33	-5.33	-0.33	-1.33	0.67	-1.33	-4.33	-1.33	-0.33	-4.33	-2.33	-8.33	-2.33	-5.33	-4.33	-0.33	1.67	-0.33	-5.33	-2.33	-3.33	-3.33	-2.33	3.67
713	45.26	8.67	0.33	-4.67	-1.67	-2.67	-2.67	-2.67	1.33	-1.67	1.33	-2.67	-3.67	-1.67	-2.67	-4.67	1.33	0.33	-3.67	0.33	-2.67	-4.67	2.33	-4.67	-0.67	-3.67	-0.67	-7.67
720	45.704	8.0	0.0	-2.0	2.0	0.0	0.0	1.0	3.0	-2.0	3.0	-2.0	-3.0	-4.0	2.0	-1.0	-6.0	-3.0	-5.0	4.0	1.0	-1.0	-2.0	-3.0	3.0	-4.0	-3.0	3.0
727	46.149	8.67	2.33	1.33	-2.67	2.33	-2.67	-4.67	-2.67	-0.67	3.33	-2.67	-3.67	-2.67	-1.67	-0.67	-2.67	-2.67	-4.67	-2.67	1.33	1.33	5.33	-1.67	-1.67	-1.67	1.33	0.33
734	46.594	9.33	-0.33	-1.33	0.67	-2.33	-0.33	2.67	-3.33	-3.33	-4.33	-0.33	5.67	-5.33	-2.33	0.67	-2.33	-4.33	-7.33	1.67	-5.33	1.67	-3.33	8.67	-2.33	-3.33	-6.33	-2.33
741	47.038	12.0	-1.0	-3.0	-6.0	-6.0	2.0	-2.0	-9.0	-1.0	-3.0	-5.0	-3.0	-7.0	-5.0	-9.0	1.0	1.0	-5.0	-8.0	-5.0	-6.0	-5.0	-5.0	3.0	-3.0	0.0	-5.0
748	47.483	7.0	3.0	2.0	4.0	6.0	0.0	-3.0	0.0	0.0	2.0	4.0	2.0	1.0	3.0	-3.0	4.0	-2.0	-1.0	2.0	5.0	4.0	3.0	0.0	-2.0	-2.0	2.0	4.0
755	47.928	8.33	-2.33	-6.33	-4.33	0.67	1.67	-3.33	-1.33	-4.33	-4.33	-2.33	-2.33	-0.33	5.67	-3.33	-4.33	7.67	-1.33	5.67	-1.33	-0.33	1.67	1.67	0.67	7.67	1.67	0.67
762	48.372	9.33	1.67	-4.33	0.67	2.67	-2.33	-2.33	0.67	-1.33	-1.33	-2.33	-2.33	0.67	-1.33	-0.33	0.67	-4.33	-0.33	-2.33	-0.33	-2.33	-1.33	-1.33	-3.33	7.67	-0.33	-3.33
769	48.817	9.33	0.67	-5.33	2.67	1.67	-0.33	-0.33	1.67	0.67	-0.33	-2.33	-2.33	-6.33	-1.33	0.67	-4.33	1.67	1.67	-0.33	-3.33	-3.33	0.67	-4.33	-1.33	0.67	4.67	-1.33
776	49.262	9.67	1.33	1.33	-2.67	0.33	-0.67	-2.67	-3.67	4.33	2.33	0.33	-2.67	-5.67	-2.67	1.33	-3.67	-0.67	-2.67	-0.67	2.33	-0.67	-2.67	0.33	-1.67	1.33	0.33	-3.67
783	49.707	9.67	1.33	0.33	0.33	-1.67	-5.67	-0.67	5.33	1.33	5.33	2.33	-2.67	6.33	-0.67	3.33	-2.67	-1.67	-2.67	1.33	0.33	-2.67	-3.67	-0.67	4.33	-2.67	-1.67	0.33
790	50.152	11.0	-1.0	1.0	-5.0	-3.0	-1.0	-2.0	-2.0	-4.0	-6.0	0.0	3.0	-2.0	2.0	-2.0	-2.0	-4.0	1.0	0.0	2.0	-3.0	4.0	1.0	-1.0	-3.0	-3.0	-3.0
797	50.597	10.0	0.0	-2.0	-2.0	-1.0	1.0	2.0	0.0	4.0	3.0	-3.0	-5.0	-2.0	2.0	2.0	-2.0	2.0	4.0	-1.0	1.0	4.0	-2.0	3.0	-2.0	-1.0	2.0	-1.0
804	51.042	10.67	-1.67	3.33	-2.67	7.33	-1.67	-0.67	-1.67	-0.67	0.33	-1.67	-0.67	2.33	1.33	4.33	-0.67	2.33	1.33	0.33	-3.67	-5.67	3.33	3.33	-6.67	3.33	5.33	3.33
811	51.487	11.67	1.33	4.33	3.33	4.33	-1.67	-1.67	-2.67	2.33	-3.67	-3.67	3.33	6.33	-4.67	4.33	2.33	-1.67	-0.67	4.33	-4.67	-4.67	1.33	1.33	1.33	-1.67	0.33	3.33
818	51.932	9.0	4.0	-2.0	5.0	4.0	1.0	4.0	2.0	8.0	2.0	7.0	7.0	3.0	6.0	2.0	6.0	3.0	3.0	4.0	-1.0	1.0	-2.0	-2.0	1.0	5.0	0.0	2.0
825	52.377	10.0	-2.0	-7.0	1.0	4.0	0.0	0.0	-1.0	1.0	0.0	1.0	4.0	9.0	-1.0	9.0	5.0	6.0	1.0	-5.0	-1.0	1.0	-3.0	3.0	-6.0	3.0	3.0	0.0
832	52.823	11.67	0.33	1.33	-5.67	1.33	3.33	2.33	3.33	-0.67	3.33	-3.67	-3.67	-0.67	7.33	-0.67	4.33	-4.67	3.33	0.33	-3.67	1.33	-4.67	-0.67	-0.67	2.33	0.33	-4.67
839	53.268	14.0	-3.0	-7.0	-1.0	2.0	3.0	-4.0	-4.0	4.0	-2.0	0.0	-1.0	-5.0	1.0	-8.0	-1.0	-2.0	-3.0	-5.0	-3.0	-1.0	-2.0	3.0	-3.0	1.0	2.0	-7.0
846	53.713	11.0	1.0	3.0	-1.0	0.0	3.0	1.0	-4.0	6.0	1.0	-3.0	-1.0	2.0	-1.0	2.0	4.0	3.0	-3.0	3.0	2.0	-5.0	8.0	5.0	0.0	-5.0	1.0	2.0
853	54.159	12.33	5.67	-0.33	-2.33	11.67	2.67	5.67	8.67	-3.33	5.67	0.67	2.67	4.67	4.67	6.67	0.67	1.67	-5.33	1.67	5.67	-1.33	-10.33	0.67	6.67	-1.33	-7.33	-0.33
860	54.604	10.67	5.33	5.33	2.33	-2.67	5.33	7.33	11.33	8.33	5.33	3.33	8.33	5.33	0.33	2.33	5.33	5.33	2.33	2.33	2.33	7.33	2.33	3.33	0.33	2.33	-1.67	6.33
867	55.05	13.0	2.0	3.0	4.0	1.0	10.0	7.0	10.0	6.0	3.0	-1.0	3.0	-6.0	1.0	0.0	-2.0	6.0	-1.0	2.0	-4.0	2.0	-6.0	-3.0	-2.0	-1.0	8.0	-2.0
874	55.496	14.33	2.67	-4.33	-8.33	3.67	7.67	-1.33	-0.33	3.67	-1.33	0.67	-3.33	-7.33	-6.33	-3.33	2.67	1.67	-0.33	0.67	-5.33	-2.33	0.67	5.67	0.67	-1.33	2.67	-1.33
881	55.942	13.0	5.0	-2.0	6.0	-1.0	-1.0	5.0	8.0	7.0	5.0	2.0	3.0	4.0	1.0	5.0	-2.0	0.0	1.0	-4.0	10.0	8.0	0.0	2.0	-7.0	-6.0	4.0	6.0
888	56.387	10.33	8.67	6.67	3.67	2.67	6.67	5.67	9.67	1.67	-1.33	7.67	7.67	12.67	5.67	3.67	10.67	3.67	5.67	2.67	3.67	-0.33	6.67	4.67	0.67	1.67	0.67	3.67
895	56.833	14.0	5.0	-1.0	9.0	-2.0	1.0	6.0	9.0	6.0	-4.0	5.0	0.0	1.0	-3.0	0.0	1.0	4.0	-4.0	5.0	-5.0	5.0	-4.0	6.0	0.0	-2.0	4.0	4.0
902	57.279	11.67	3.33	-4.67	5.33	9.33	5.33	7.33	6.33	8.33	12.33	4.33	12.33	8.33	3.33	-0.67	0.33	6.33	-0.67	5.33	2.33	2.33	9.33	-0.67	8.33	0.33	0.33	2.33
909	57.726	14.67	4.33	4.33	5.33	4.33	8.33	5.33	-2.67	3.33	9.33	5.33	-4.67	-3.67	8.33	5.33	-3.67	11.33	3.33	19.33	3.33	4.33	-2.67	5.33	5.33	5.33	-4.67	3.33
916	58.172	13.67	4.33	6.33	0.33	13.33	10.33	10.33	7.33	1.33	10.33	9.33	0.33	11.33	6.33	7.33	12.33	2.33	2.33	5.33	13.33	2.33	10.33	13.33	0.33	1.33	2.33	7.33
923	58.618	16.67	-3.67	-3.67	8.33	1.33	11.33	17.33	11.33	9.33	7.33	10.33	8.33	-1.67	14.33	8.33	7.33	4.33	3.33	3.33	-0.67	7.33	10.33	2.33	3.33	1.33	1.33	2.33
930	59.064	17.33	5.67	14.67	28.67	27.67	44.67	30.67	50.67	50.67	35.67	53.67	22.67	11.67	17.67	5.67	16.67	14.67	27.67	51.67	12.67	15.67	19.67	9.67	-0.33	11.67	3.67	12.67
937	59.511	18.67	10.33	5.33	24.33	34.33	54.33	74.33	96.33	97.33	42.33	72.33	58.33	18.33	36.33	13.33	23.33	25.33	32.33	60.33	19.33	32.33	59.33	39.33	15.33	17.33	8.33	0.33
944	59.957	14.67	25.33	7.33	25.33	48.33	27.33	51.33	78.33	75.33	66.33	54.33	48.33	37.33	36.33	39.33	20.33	29.33	41.33	30.33	20.33	66.33	63.33	26.33	18.33	12.33	20.33	14.33
951	60.404	13.67	19.33	9.33	38.33	34.33	13.33	13.33	48.33	75.33	52.33	16.33	19.33	20.33	16.33	19.33	21.33	8.33	17.33	7.33	18.33	34.33	29.33	15.33	5.33	0.33	5.33	6.33
958	60.851	14.67	15.33	1.33	29.33	19.33	7.33	2.33	3.33	24.33	19.33	7.33	11.33	16.33	2.33	2.33	4.33	-4.67	5.33	3.33	8.33	3.33	8.33	5.33	-2.67	5.33	6.33	-0.67
965	61.298	14.67	13.33	-4.67	2.33	2.33	7.33	8.33	7.33	6.33	18.33	-1.67	13.33	4.33	1.33	4.33	10.33	1.33	-0.67	11.33	-4.67	-0.67	4.33	4.33	-0.67	-2.67	8.33	-2.67
972	61.745	14.67	9.33	-2.67	2.33	3.33	8.33	12.33	18.33	9.33	9.33	18.33	7.33	12.33	10.33	8.33	7.33	9.33	-0.67	1.33	4.33	2.33	8.33	8.33	24.33	12.33	22.33	7.33
979	62.192	12.33	1.67	4.67	20.67	18.67	11.67	22.67	22.67	29.67	26.67	20.67	14.67	27.67	23.67	12.67	15.67	9.67	6.67	27.67	19.67	15.67	24.67	19.67	42.67	46.67	51.67	40.67
986	62.639	14.33	4.67	1.67	16.67	33.67	21.67	40.67	39.67	51.67	44.67	55.67	48.67	58.67	46.67	9.67	12.67	23.67	12.67	28.67	17.67	13.67	12.67	27.67	39.67	30.67	48.67	46.67
993	63.086	14.0	13.0	5.0	16.0	22.0	26.0	40.0	30.0	40.0	87.0	118.0	105.0	86.0	53.0	11.0	16.0	16.0	7.0	18.0	26.0	21.0	27.0	3.0	7.0	9.0	17.0	23.0
1000	63.533	11.67	23.33	4.33	13.33	7.33	7.33	20.33	22.33	15.33	43.33	43.33	45.33	58.33	20.33	29.33	32.33	25.33	18.33	18.33	17.33	20.33	15.33	11.33	8.33	10.33	2.33	16.33
1007	63.981	14.33	17.67	3.67	-2.33	10.67	3.67	10.67	8.67	13.67	11.67	15.67	28.67	59.67	53.67	52.67	40.67	7.67	2.67	6.67	11.67	11.67	13.67	3.67	3.67	13.67	12.67	4.67
1014	64.428	12.33	18.67	2.67	1.67	7.67	14.67	10.67	6.67	13.67	17.67	15.67	22.67	30.67	30.67	36.67	35.67	6.67	5.67	-0.33	14.67	5.67	11.67	3.67	0.67	17.67	14.67	13.67
1021	64.876	15.67	6.33	-4.67	-2.67	9.33	8.33	0.33	11.33	11.33	2.33	1.33	16.33	13.33	6.33	0.33	13.33	10.33	0.33	6.33	0.33	11.33	2.33	6.33	12.33	-1.67	6.33	7.33
1028	65.324	13.0	19.0	1.0	15.0	12.0	12.0	15.0	23.0	19.0	19.0	14.0	23.0	18.0	17.0	12.0	9.0	22.0	14.0	18.0	18.0	8.0	9.0	4.0	13.0	17.0	8.0	13.0
1035	65.772	13.33	10.67	-0.33	4.67	8.67	12.67	10.67	23.67	20.67	18.67	42.67	15.67	28.67	33.67	27.67	13.67	14.67	11.67	14.67	8.67	9.67	11.67	10.67	18.67	6.67	12.67	7.67
1042	66.22	16.0	6.0	1.0	3.0	20.0	29.0	14.0	25.0	11.0	18.0	43.0	29.0	20.0	20.0	12.0	15.0	12.0	8.0	4.0	4.0	5.0	9.0	19.0	7.0	2.0	3.0	8.0
1049	66.668	11.33	6.67	4.67	15.67	30.67	32.67	44.67	46.67	58.67	57.67	34.67	31.67	14.67	13.67	14.67	25.67	25.67	20.67	20.67	21.67	17.67	25.67	13.67	13.67	16.67	10.67	15.67
1056	67.116	20.0	-2.0	14.0	10.0	19.0	66.0	63.0	82.0	94.0	63.0	33.0	15.0	25.0	21.0	24.0	22.0	35.0	31.0	27.0	30.0	27.0	28.0	22.0	22.0	4.0	5.0	19.0
1063	67.564	11.0	9.0	19.0	25.0	19.0	67.0	109.0	102.0	89.0	74.0	55.0	50.0	32.0	41.0	26.0	37.0	37.0	43.0	26.0	37.0	28.0	36.0	23.0	41.0	25.0	20.0	22.0
1070	68.013	14.67	0.33	4.33	14.33	12.33	61.33	52.33	64.33	55.33	66.33	59.33	107.33	87.33	49.33	42.33	30.33	14.33	19.33	14.33	23.33	4.33	22.33	30.33	28.33	13.33	9.33	16.33
1077	68.462	11.0	12.0	4.0	10.0	24.0	35.0	32.0	48.0	52.0	36.0	63.0	56.0	59.0	57.0	40.0	23.0	9.0	13.0	23.0	11.0	16.0	5.0	13.0	20.0	11.0	17.0	15.0
1084	68.91	15.67	2.33	2.33	13.33	15.33	23.33	18.33	35.33	50.33	40.33	32.33	21.33	23.33	30.33	12.33	12.33	14.33	6.33	24.33	9.33	6.33	8.33	22.33	23.33	10.33	2.33	11.33
1091	69.359	13.0	-1.0	8.0	26.0	15.0	14.0	22.0	37.0	51.0	58.0	25.0	17.0	31.0	14.0	14.0	17.0	12.0	23.0	9.0	19.0	11.0	22.0	27.0	16.0	9.0	9.0	8.0
1098	69.808	12.33	4.67	6.67	21.67	11.67	19.67	16.67	31.67	16.67	24.67	27.67	12.67	14.67	12.67	14.67	20.67	23.67	9.67	17.67	6.67	16.67	17.67	13.67	6.67	23.67	20.67	19.67
1105	70.257	10.33	5.67	7.67	15.67	3.67	3.67	12.67	11.67	18.67	18.67	3.67	17.67	25.67	27.67	22.67	16.67	6.67	12.67	20.67	-1.33	15.67	13.67	12.67	14.67	13.67	11.67	10.67
1112	70.707	11.33	-0.33	5.67	6.67	4.67	6.67	7.67	10.67	8.67	9.67	11.67	10.67	9.67	4.67	16.67	15.67	1.67	3.67	13.67	5.67	4.67	15.67	9.67	11.67	17.67	6.67	3.67
1119	71.156	12.67	1.33	-5.67	5.33	4.33	10.33	0.33	8.33	14.33	9.33	8.33	5.33	13.33	10.33	2.33	4.33	2.33	2.33	6.33	1.33	5.33	0.33	3.33	12.33	4.33	15.33	10.33
1126	71.606	14.33	-0.33	-6.33	2.67	-3.33	8.67	6.67	6.67	9.67	6.67	6.67	4.67	12.67	6.67	12.67	19.67	5.67	7.67	7.67	9.67	7.67	0.67	8.67	11.67	4.67	3.67	8.67
1133	72.055	12.0	7.0	-1.0	11.0	20.0	15.0	11.0	13.0	4.0	7.0	15.0	7.0	11.0	26.0	23.0	27.0	11.0	12.0	10.0	11.0	11.0	7.0	14.0	5.0	7.0	3.0	17.0
1140	72.505	17.0	3.0	3.0	9.0	10.0	23.0	14.0	11.0	6.0	23.0	9.0	28.0	12.0	5.0	25.0	13.0	11.0	19.0	17.0	13.0	19.0	17.0	15.0	3.0	6.0	12.0	10.0
1147	72.955	24.67	-5.67	0.33	12.33	16.33	16.33	24.33	17.33	19.33	22.33	32.33	14.33	19.33	17.33	30.33	30.33	17.33	18.33	19.33	17.33	8.33	17.33	27.33	21.33	12.33	10.33	9.33
1154	73.405	17.0	4.0	22.0	27.0	28.0	20.0	23.0	30.0	22.0	31.0	19.0	20.0	17.0	36.0	16.0	8.0	15.0	8.0	13.0	15.0	19.0	28.0	20.0	5.0	13.0	15.0	12.0
1161	73.855	12.67	4.33	16.33	18.33	10.33	21.33	17.33	20.33	29.33	36.33	24.33	24.33	17.33	15.33	16.33	20.33	9.33	5.33	10.33	25.33	11.33	11.33	4.33	13.33	5.33	12.33	9.33
1168	74.306	14.67	0.33	-0.67	5.33	15.33	17.33	20.33	6.33	23.33	8.33	23.33	22.33	16.33	18.33	11.33	30.33	14.33	8.33	11.33	3.33	15.33	6.33	12.33	6.33	4.33	15.33	22.33
1175	74.756	24.33	13.67	0.67	15.67	30.67	23.67	24.67	20.67	18.67	14.67	20.67	15.67	20.67	29.67	60.67	64.67	24.67	18.67	19.67	14.67	22.67	11.67	37.67	32.67	5.67	20.67	27.67
1182	75.207	44.33	0.67	17.67	37.67	51.67	119.67	80.67	35.67	31.67	33.67	55.67	72.67	119.67	135.67	133.67	76.67	47.67	24.67	4.67	19.67	44.67	41.67	41.67	42.67	40.67	61.67	61.67
1189	75.658	21.33	13.67	52.67	78.67	89.67	268.67	261.67	139.67	79.67	124.67	131.67	226.67	265.67	272.67	156.67	77.67	33.67	47.67	27.67	59.67	72.67	77.67	76.67	110.67	91.67	96.67	157.67
1196	76.109	11.0	11.0	97.0	96.0	85.0	239.0	378.0	209.0	62.0	126.0	202.0	284.0	280.0	188.0	135.0	93.0	54.0	57.0	75.0	106.0	89.0	84.0	62.0	149.0	101.0	94.0	172.0
1203	76.56	14.0	-1.0	62.0	74.0	50.0	123.0	133.0	149.0	55.0	72.0	107.0	162.0	145.0	110.0	85.0	80.0	42.0	91.0	80.0	106.0	69.0	84.0	37.0	56.0	52.0	43.0	66.0
1210	77.011	16.0	-2.0	18.0	27.0	19.0	49.0	30.0	35.0	18.0	33.0	52.0	41.0	33.0	29.0	37.0	41.0	33.0	45.0	41.0	58.0	24.0	33.0	25.0	27.0	15.0	29.0	8.0
1217	77.463	13.67	4.33	4.33	22.33	21.33	27.33	21.33	20.33	17.33	28.33	23.33	18.33	20.33	17.33	14.33	15.33	21.33	17.33	23.33	22.33	16.33	7.33	27.33	20.33	26.33	14.33	15.33
1224	77.915	11.67	8.33	12.33	23.33	13.33	23.33	27.33	19.33	31.33	41.33	49.33	36.33	36.33	6.33	23.33	28.33	31.33	25.33	21.33	22.33	50.33	53.33	53.33	44.33	34.33	10.33	13.33
1231	78.366	15.67	1.33	0.33	8.33	38.33	42.33	31.33	23.33	38.33	35.33	46.33	37.33	39.33	25.33	24.33	31.33	36.33	49.33	27.33	51.33	80.33	98.33	71.33	83.33	66.33	34.33	14.33
1238	78.818	13.33	-1.33	8.67	27.67	49.67	61.67	41.67	31.67	36.67	32.67	37.67	52.67	42.67	27.67	53.67	48.67	97.67	62.67	32.67	52.67	96.67	65.67	72.67	70.67	64.67	15.67	23.67
1245	79.271	16.67	-0.67	22.33	16.33	49.33	54.33	42.33	39.33	29.33	37.33	40.33	41.33	41.33	47.33	52.33	42.33	50.33	51.33	54.33	41.33	75.33	42.33	50.33	39.33	69.33	31.33	28.33
1252	79.723	9.67	6.33	38.33	51.33	83.33	61.33	57.33	49.33	43.33	51.33	45.33	45.33	49.33	51.33	37.33	40.33	48.33	42.33	39.33	44.33	72.33	50.33	49.33	44.33	63.33	56.33	31.33
1259	80.175	16.67	3.33	31.33	23.33	31.33	51.33	45.33	24.33	22.33	25.33	10.33	21.33	37.33	33.33	35.33	37.33	38.33	26.33	20.33	37.33	22.33	37.33	34.33	26.33	28.33	27.33	23.33
1266	80.628	11.33	7.67	14.67	29.67	28.67	41.67	27.67	23.67	22.67	32.67	25.67	27.67	29.67	22.67	17.67	21.67	28.67	24.67	19.67	24.67	24.67	31.67	36.67	24.67	15.67	22.67	23.67
1273	81.081	15.67	9.33	9.33	6.33	20.33	21.33	9.33	23.33	26.33	11.33	11.33	17.33	21.33	8.33	12.33	22.33	12.33	19.33	14.33	25.33	16.33	2.33	21.33	2.33	15.33	11.33	14.33
1280	81.534	14.67	-0.67	8.33	11.33	13.33	19.33	5.33	13.33	11.33	11.33	19.33	11.33	17.33	14.33	12.33	10.33	9.33	9.33	6.33	6.33	6.33	7.33	12.33	16.33	13.33	3.33	13.33
1287	81.987	14.67	1.33	3.33	-1.67	19.33	2.33	11.33	7.33	9.33	6.33	13.33	5.33	11.33	8.33	19.33	10.33	13.33	2.33	11.33	8.33	9.33	10.33	25.33	7.33	21.33	9.33	3.33
1294	82.441	10.67	17.33	4.33	11.33	10.33	21.33	13.33	11.33	16.33	9.33	12.33	28.33	8.33	23.33	13.33	18.33	9.33	9.33	14.33	19.33	15.33	18.33	18.33	21.33	9.33	13.33	17.33
1301	82.894	12.67	13.33	15.33	14.33	14.33	20.33	27.33	24.33	15.33	15.33	29.33	13.33	13.33	13.33	15.33	15.33	17.33	17.33	20.33	10.33	14.33	15.33	23.33	19.33	29.33	19.33	15.33
1308	83.348	20.33	4.67	11.67	19.67	15.67	23.67	21.67	19.67	13.67	13.67	6.67	12.67	19.67	16.67	14.67	9.67	20.67	1.67	14.67	11.67	13.67	7.67	13.67	15.67	12.67	13.67	17.67
1315	83.802	23.0	11.0	11.0	17.0	21.0	27.0	47.0	27.0	17.0	25.0	28.0	20.0	16.0	13.0	23.0	9.0	5.0	11.0	8.0	19.0	19.0	21.0	10.0	20.0	19.0	8.0	27.0
1322	84.256	17.33	20.67	12.67	28.67	29.67	38.67	59.67	36.67	34.67	32.67	33.67	37.67	27.67	39.67	29.67	23.67	35.67	26.67	28.67	27.67	27.67	30.67	32.67	40.67	42.67	22.67	28.67
1329	84.71	25.67	8.33	8.33	15.33	20.33	32.33	38.33	32.33	23.33	18.33	22.33	26.33	27.33	41.33	25.33	16.33	35.33	15.33	28.33	13.33	27.33	40.33	26.33	29.33	25.33	42.33	21.33
1336	85.165	20.33	4.67	22.67	18.67	20.67	35.67	32.67	34.67	47.67	29.67	23.67	34.67	25.67	47.67	32.67	37.67	26.67	36.67	14.67	23.67	31.67	31.67	34.67	29.67	28.67	28.67	27.67
1343	85.619	27.0	-3.0	-2.0	8.0	25.0	21.0	24.0	16.0	27.0	22.0	18.0	17.0	9.0	27.0	38.0	23.0	18.0	17.0	18.0	26.0	11.0	26.0	29.0	12.0	21.0	13.0	13.0
1350	86.074	20.67	8.33	-0.67	11.33	10.33	16.33	18.33	23.33	13.33	24.33	17.33	5.33	22.33	16.33	22.33	16.33	20.33	16.33	28.33	10.33	21.33	8.33	7.33	18.33	19.33	14.33	18.33
1357	86.529	18.33	9.67	0.67	15.67	20.67	29.67	25.67	27.67	18.67	11.67	20.67	15.67	9.67	24.67	24.67	32.67	28.67	34.67	23.67	18.67	16.67	11.67	20.67	19.67	15.67	17.67	14.67
1364	86.985	16.67	4.33	21.33	35.33	46.33	48.33	43.33	30.33	23.33	21.33	21.33	22.33	15.33	23.33	35.33	17.33	31.33	23.33	35.33	18.33	20.33	29.33	29.33	16.33	12.33	31.33	16.33
1371	87.44	21.33	-0.33	2.67	29.67	28.67	31.67	32.67	21.67	18.67	22.67	17.67	11.67	19.67	23.67	34.67	22.67	6.67	10.67	13.67	22.67	14.67	16.67	9.67	24.67	18.67	24.67	16.67
1378	87.896	27.67	2.33	8.33	11.33	5.33	22.33	20.33	8.33	2.33	6.33	10.33	17.33	7.33	12.33	19.33	8.33	17.33	20.33	1.33	14.33	11.33	9.33	11.33	8.33	18.33	8.33	5.33
1385	88.352	22.33	6.67	2.67	5.67	15.67	13.67	22.67	13.67	6.67	20.67	15.67	5.67	10.67	7.67	9.67	0.67	16.67	12.67	7.67	22.67	12.67	23.67	19.67	7.67	15.67	12.67	17.67
1392	88.808	20.33	12.67	5.67	7.67	-3.33	19.67	6.67	3.67	-4.33	6.67	15.67	9.67	9.67	12.67	2.67	21.67	5.67	12.67	8.67	6.67	5.67	15.67	19.67	16.67	9.67	9.67	15.67
1399	89.264	21.33	2.67	11.67	9.67	-1.33	3.67	3.67	8.67	15.67	8.67	4.67	11.67	5.67	3.67	8.67	9.67	-4.33	8.67	16.67	22.67	7.67	16.67	11.67	-0.33	8.67	6.67	12.67
1406	89.72	16.0	6.0	3.0	18.0	23.0	18.0	11.0	4.0	20.0	6.0	11.0	12.0	10.0	8.0	20.0	19.0	15.0	17.0	13.0	7.0	10.0	12.0	4.0	13.0	23.0	29.0	7.0
1413	90.177	20.0	-7.0	3.0	-1.0	0.0	0.0	2.0	15.0	2.0	10.0	4.0	5.0	9.0	6.0	22.0	18.0	8.0	-2.0	12.0	8.0	10.0	8.0	12.0	9.0	11.0	-2.0	4.0
1420	90.634	21.0	8.0	-1.0	4.0	1.0	14.0	7.0	8.0	13.0	9.0	6.0	7.0	7.0	15.0	13.0	6.0	4.0	6.0	10.0	9.0	12.0	-3.0	0.0	13.0	18.0	0.0	6.0
1427	91.091	25.33	-2.33	-4.33	-2.33	-7.33	0.67	3.67	6.67	1.67	11.67	15.67	3.67	13.67	5.67	12.67	12.67	7.67	8.67	2.67	13.67	-0.33	5.67	0.67	8.67	5.67	0.67	15.67
1434	91.549	23.33	3.67	0.67	1.67	7.67	15.67	18.67	11.67	9.67	9.67	17.67	14.67	3.67	8.67	15.67	6.67	1.67	5.67	25.67	5.67	6.67	14.67	13.67	5.67	16.67	7.67	16.67
1441	92.006	20.33	1.67	1.67	1.67	7.67	16.67	19.67	10.67	7.67	12.67	24.67	4.67	1.67	27.67	6.67	9.67	10.67	6.67	3.67	4.67	6.67	7.67	21.67	9.67	13.67	9.67	14.67
1448	92.464	25.33	0.67	-4.33	-2.33	9.67	20.67	4.67	8.67	20.67	3.67	15.67	10.67	8.67	0.67	10.67	11.67	6.67	10.67	5.67	4.67	9.67	10.67	10.67	12.67	4.67	6.67	-5.33
1455	92.922	24.33	9.67	-1.33	5.67	3.67	11.67	15.67	7.67	6.67	14.67	18.67	2.67	4.67	10.67	-0.33	1.67	4.67	8.67	12.67	2.67	9.67	8.67	19.67	13.67	11.67	11.67	11.67
1462	93.38	21.0	1.0	3.0	2.0	12.0	16.0	8.0	4.0	13.0	10.0	13.0	1.0	19.0	2.0	9.0	12.0	16.0	7.0	18.0	11.0	1.0	16.0	15.0	1.0	18.0	18.0	7.0
1469	93.839	28.67	-0.67	-4.67	-0.67	6.33	10.33	1.33	1.33	8.33	0.33	10.33	2.33	13.33	6.33	4.33	3.33	4.33	-2.67	10.33	1.33	1.33	-5.67	7.33	-4.67	-6.67	14.33	20.33
1476	94.297	28.0	-8.0	-1.0	-7.0	12.0	3.0	4.0	3.0	1.0	-2.0	7.0	3.0	2.0	1.0	11.0	9.0	-2.0	8.0	5.0	0.0	4.0	4.0	3.0	5.0	14.0	-6.0	3.0
1483	94.756	27.33	-2.33	4.67	-3.33	1.67	5.67	-10.33	11.67	10.67	8.67	10.67	5.67	11.67	5.67	0.67	-1.33	2.67	6.67	0.67	-0.33	3.67	3.67	2.67	-6.33	-5.33	13.67	11.67
1490	95.215	29.0	-9.0	11.0	-1.0	12.0	3.0	9.0	-5.0	0.0	-11.0	9.0	4.0	-2.0	-2.0	12.0	5.0	7.0	11.0	2.0	3.0	5.0	3.0	0.0	2.0	6.0	-4.0	-1.0
1497	95.675	23.67	7.33	-2.67	14.33	7.33	13.33	19.33	11.33	13.33	16.33	14.33	9.33	9.33	12.33	0.33	4.33	8.33	17.33	13.33	11.33	5.33	8.33	19.33	2.33	6.33	16.33	12.33
1504	96.134	26.67	3.33	2.33	6.33	3.33	1.33	10.33	10.33	3.33	7.33	11.33	16.33	4.33	6.33	0.33	9.33	11.33	17.33	-5.67	14.33	5.33	10.33	-1.67	11.33	10.33	-0.67	6.33
1511	96.594	33.0	-6.0	-1.0	-4.0	-7.0	6.0	4.0	-3.0	-2.0	-2.0	5.0	4.0	10.0	12.0	3.0	1.0	0.0	-3.0	6.0	5.0	6.0	23.0	-1.0	0.0	-9.0	0.0	-1.0
1518	97.054	26.33	1.67	1.67	7.67	1.67	17.67	6.67	18.67	7.67	10.67	5.67	12.67	3.67	-3.33	4.67	8.67	0.67	9.67	16.67	15.67	9.67	1.67	9.67	-2.33	14.67	12.67	4.67
1525	97.514	32.67	-0.67	-5.67	1.33	-2.67	2.33	0.33	-2.67	11.33	15.33	-3.67	6.33	12.33	6.33	-1.67	-3.67	5.33	4.33	3.33	-7.67	4.33	3.33	-1.67	4.33	17.33	-3.67	2.33
1532	97.975	27.0	8.0	-3.0	5.0	3.0	1.0	9.0	-3.0	1.0	10.0	17.0	-4.0	4.0	11.0	6.0	5.0	15.0	-2.0	10.0	2.0	16.0	7.0	6.0	9.0	9.0	10.0	5.0
1539	98.436	30.33	2.67	5.67	-5.33	4.67	13.67	2.67	2.67	-0.33	9.67	-3.33	-2.33	6.67	4.67	5.67	1.67	14.67	9.67	5.67	5.67	9.67	-5.33	5.67	9.67	1.67	0.67	7.67
1546	98.897	29.67	-1.67	8.33	-0.67	-3.67	4.33	2.33	27.33	4.33	-2.67	8.33	3.33	5.33	7.33	10.33	1.33	4.33	7.33	14.33	19.33	12.33	13.33	11.33	9.33	-1.67	-0.67	0.33
1553	99.358	28.33	6.67	4.67	-9.33	12.67	6.67	-2.33	2.67	4.67	10.67	-1.33	0.67	1.67	11.67	15.67	-1.33	7.67	18.67	13.67	11.67	6.67	1.67	3.67	10.67	19.67	9.67	16.67
1560	99.82	25.67	3.33	-2.67	12.33	6.33	17.33	19.33	10.33	15.33	4.33	9.33	6.33	4.33	14.33	13.33	12.33	9.33	12.33	19.33	25.33	17.33	17.33	4.33	1.33	14.33	9.33	21.33
1567	100.281	29.33	2.67	-8.33	5.67	3.67	10.67	1.67	11.67	10.67	12.67	5.67	22.67	15.67	-2.33	12.67	10.67	4.67	3.67	9.67	4.67	9.67	8.67	-1.33	18.67	18.67	13.67	8.67
1574	100.743	29.0	6.0	1.0	-2.0	5.0	18.0	19.0	6.0	13.0	5.0	5.0	7.0	10.0	9.0	13.0	9.0	22.0	14.0	13.0	9.0	12.0	13.0	5.0	21.0	8.0	14.0	-2.0
1581	101.206	34.0	2.0	0.0	16.0	18.0	11.0	10.0	7.0	12.0	0.0	10.0	-10.0	9.0	-6.0	6.0	10.0	14.0	7.0	4.0	-3.0	1.0	10.0	0.0	17.0	1.0	13.0	15.0
1588	101.668	26.67	4.33	-3.67	11.33	6.33	-1.67	5.33	12.33	3.33	10.33	8.33	13.33	12.33	5.33	20.33	14.33	3.33	12.33	20.33	17.33	13.33	26.33	4.33	18.33	7.33	11.33	15.33
1595	102.131	30.33	-5.33	6.67	0.67	4.67	7.67	-1.33	7.67	11.67	-1.33	2.67	7.67	4.67	3.67	7.67	11.67	1.67	-0.33	0.67	11.67	19.67	15.67	10.67	14.67	9.67	10.67	7.67
1602	102.594	28.33	6.67	3.67	0.67	7.67	18.67	7.67	-0.33	6.67	-1.33	14.67	4.67	-1.33	9.67	8.67	-1.33	-0.33	24.67	0.67	0.67	18.67	5.67	12.67	9.67	11.67	0.67	-4.33
1609	103.057	28.67	-3.67	11.33	-3.67	10.33	1.33	5.33	-0.67	7.33	-2.67	7.33	8.33	5.33	10.33	2.33	3.33	7.33	3.33	11.33	7.33	2.33	0.33	0.33	14.33	13.33	9.33	10.33
1616	103.521	26.0	10.0	-9.0	-6.0	6.0	3.0	-1.0	-5.0	-1.0	6.0	6.0	9.0	11.0	5.0	6.0	5.0	12.0	18.0	6.0	7.0	3.0	11.0	19.0	6.0	1.0	1.0	11.0
1623	103.985	28.33	-1.33	6.67	2.67	11.67	3.67	13.67	0.67	-6.33	-0.33	8.67	5.67	9.67	10.67	-5.33	3.67	7.67	2.67	7.67	2.67	-1.33	-0.33	8.67	13.67	3.67	2.67	10.67
1630	104.449	26.0	7.0	-4.0	-1.0	13.0	3.0	13.0	3.0	5.0	5.0	11.0	6.0	5.0	8.0	7.0	12.0	1.0	14.0	10.0	-4.0	8.0	-1.0	3.0	8.0	4.0	-10.0	9.0
1637	104.913	30.0	-3.0	-2.0	-1.0	8.0	-1.0	2.0	-3.0	-7.0	-2.0	-5.0	-3.0	5.0	4.0	0.0	2.0	12.0	7.0	3.0	0.0	-1.0	10.0	3.0	-7.0	17.0	11.0	2.0
1644	105.378	27.0	-4.0	-6.0	-5.0	11.0	-6.0	-3.0	5.0	-4.0	-11.0	6.0	-2.0	-2.0	5.0	4.0	-4.0	-3.0	2.0	2.0	4.0	4.0	4.0	3.0	1.0	0.0	12.0	1.0
1651	105.843	24.0	4.0	-1.0	8.0	7.0	8.0	2.0	9.0	7.0	-5.0	3.0	3.0	7.0	3.0	4.0	11.0	7.0	17.0	14.0	10.0	1.0	11.0	7.0	3.0	14.0	6.0	3.0
1658	106.308	27.67	-14.67	-0.67	0.33	1.33	2.33	4.33	1.33	-1.67	3.33	5.33	-4.67	-4.67	-1.67	5.33	-5.67	1.33	-6.67	0.33	-5.67	0.33	2.33	-0.67	-3.67	1.33	-2.67	6.33
1665	106.773	19.67	1.33	5.33	4.33	3.33	14.33	12.33	7.33	12.33	8.33	5.33	5.33	9.33	7.33	3.33	10.33	5.33	12.33	9.33	13.33	5.33	3.33	10.33	9.33	13.33	17.33	9.33
1672	107.239	20.67	0.33	8.33	7.33	5.33	9.33	-0.67	3.33	-5.67	11.33	15.33	2.33	-2.67	12.33	13.33	6.33	2.33	12.33	13.33	11.33	6.33	11.33	11.33	10.33	8.33	3.33	2.33
1679	107.705	26.0	-11.0	-3.0	-1.0	2.0	-1.0	1.0	5.0	-4.0	-10.0	10.0	0.0	0.0	-2.0	-5.0	4.0	-1.0	2.0	-5.0	-2.0	-6.0	12.0	3.0	-4.0	7.0	5.0	-7.0
1686	108.171	21.33	10.67	1.67	0.67	3.67	-2.33	5.67	5.67	4.67	8.67	2.67	4.67	-1.33	4.67	0.67	9.67	2.67	8.67	3.67	2.67	3.67	-2.33	1.67	10.67	7.67	12.67	4.67
1693	108.638	19.67	4.33	-0.67	2.33	5.33	4.33	3.33	5.33	15.33	-0.67	4.33	2.33	3.33	2.33	7.33	-3.67	8.33	3.33	5.33	7.33	-1.67	6.33	1.33	8.33	0.33	6.33	14.33
1700	109.105	26.33	-0.33	1.67	0.67	-0.33	-6.33	-5.33	-1.33	-1.33	-14.33	1.67	2.67	-3.33	-3.33	-2.33	-3.33	1.67	-0.33	10.67	-2.33	-7.33	-7.33	-4.33	0.67	-3.33	-6.33	-0.33
1707	109.572	18.67	0.33	1.33	-3.67	9.33	5.33	6.33	5.33	2.33	-2.67	-1.67	8.33	7.33	1.33	10.33	2.33	7.33	10.33	3.33	4.33	4.33	1.33	0.33	6.33	16.33	3.33	7.33
1714	110.039	20.0	-2.0	10.0	3.0	5.0	6.0	2.0	7.0	5.0	14.0	4.0	8.0	3.0	0.0	2.0	-1.0	-3.0	5.0	1.0	12.0	3.0	3.0	1.0	5.0	4.0	4.0	-1.0
1721	110.507	18.67	-6.67	2.33	-0.67	-1.67	-6.67	0.33	-0.67	-6.67	4.33	1.33	-2.67	0.33	5.33	3.33	9.33	10.33	11.33	3.33	8.33	3.33	12.33	2.33	12.33	7.33	0.33	8.33
1728	110.975	18.0	0.0	5.0	-6.0	3.0	5.0	11.0	-1.0	3.0	10.0	20.0	10.0	10.0	3.0	8.0	4.0	4.0	7.0	9.0	-2.0	13.0	-1.0	-2.0	4.0	14.0	1.0	0.0
1735	111.443	26.0	-1.0	-5.0	-10.0	-4.0	3.0	1.0	-3.0	0.0	-5.0	0.0	-2.0	-2.0	0.0	5.0	-4.0	-2.0	2.0	1.0	-1.0	4.0	-4.0	-5.0	-9.0	0.0	2.0	-10.0
1742	111.912	15.0	4.0	4.0	6.0	9.0	3.0	3.0	9.0	9.0	15.0	4.0	16.0	8.0	-2.0	7.0	13.0	11.0	8.0	6.0	7.0	3.0	2.0	11.0	13.0	2.0	9.0	1.0
1749	112.38	18.0	1.0	4.0	-1.0	4.0	6.0	8.0	0.0	8.0	5.0	6.0	6.0	0.0	9.0	-1.0	12.0	-1.0	2.0	6.0	-3.0	8.0	-7.0	11.0	12.0	11.0	8.0	14.0
1756	112.85	18.33	-1.33	-4.33	-7.33	9.67	-4.33	4.67	-5.33	7.67	4.67	12.67	8.67	-0.33	6.67	8.67	1.67	8.67	5.67	4.67	3.67	5.67	0.67	0.67	4.67	2.67	1.67	10.67
1763	113.319	16.33	-1.33	-4.33	2.67	3.67	2.67	6.67	10.67	3.67	-5.33	18.67	6.67	10.67	3.67	15.67	-1.33	4.67	1.67	-0.33	6.67	4.67	-0.33	5.67	1.67	5.67	5.67	3.67
1770	113.789	15.33	-1.33	6.67	1.67	3.67	3.67	7.67	1.67	10.67	10.67	7.67	13.67	8.67	8.67	4.67	3.67	2.67	4.67	9.67	2.67	2.67	0.67	2.67	2.67	3.67	8.67	7.67
1777	114.259	21.33	-8.33	-4.33	-3.33	-10.33	3.67	4.67	-8.33	-2.33	-3.33	-1.33	-2.33	-6.33	-0.33	-9.33	0.67	-2.33	-2.33	-3.33	4.67	4.67	-1.33	-3.33	-3.33	2.67	5.67	1.67
1784	114.729	13.67	0.33	2.33	5.33	2.33	5.33	0.33	1.33	5.33	1.33	1.33	-1.67	11.33	3.33	4.33	12.33	1.33	4.33	11.33	1.33	9.33	-0.67	10.33	11.33	7.33	9.33	6.33
1791	115.2	16.33	-1.33	-4.33	8.67	1.67	-5.33	3.67	-2.33	1.67	-4.33	5.67	0.67	0.67	-6.33	8.67	2.67	-0.33	-5.33	6.67	5.67	6.67	2.67	5.67	4.67	1.67	-5.33	11.67
1798	115.671	13.67	-1.67	7.33	1.33	7.33	3.33	3.33	0.33	2.33	4.33	4.33	0.33	1.33	2.33	7.33	5.33	12.33	6.33	2.33	3.33	1.33	1.33	1.33	4.33	7.33	7.33	1.33
1805	116.142	12.0	7.0	3.0	8.0	0.0	11.0	0.0	11.0	16.0	22.0	2.0	4.0	4.0	10.0	7.0	3.0	-1.0	5.0	4.0	-2.0	5.0	8.0	5.0	11.0	6.0	1.0	3.0
1812	116.614	12.67	5.33	7.33	9.33	-0.67	1.33	-1.67	1.33	5.33	-1.67	1.33	7.33	6.33	5.33	8.33	2.33	4.33	7.33	0.33	7.33	9.33	5.33	1.33	4.33	4.33	8.33	0.33
1819	117.086	13.33	3.67	-5.33	0.67	7.67	6.67	7.67	4.67	-4.33	8.67	2.67	8.67	1.67	-2.33	5.67	4.67	1.67	0.67	-1.33	0.67	11.67	13.67	2.67	-5.33	10.67	11.67	2.67
1826	117.558	16.67	1.33	3.33	-0.67	-3.67	-0.67	-3.67	-2.67	-4.67	-5.67	3.33	-3.67	0.33	-2.67	3.33	-1.67	2.33	4.33	-1.67	7.33	5.33	0.33	-5.67	-3.67	3.33	0.33	2.33
1833	118.03	14.67	-5.67	-2.67	-5.67	0.33	-4.67	0.33	-1.67	1.33	4.33	4.33	0.33	-0.67	2.33	-1.67	1.33	0.33	6.33	8.33	-2.67	-1.67	5.33	9.33	-1.67	9.33	3.33	6.33
1840	118.503	13.67	-4.67	1.33	-5.67	2.33	4.33	-4.67	3.33	3.33	0.33	-5.67	2.33	2.33	6.33	0.33	2.33	1.33	-6.67	5.33	8.33	5.33	-1.67	0.33	4.33	2.33	-2.67	3.33
1847	118.976	13.33	0.67	-1.33	4.67	-2.33	-2.33	3.67	0.67	4.67	-2.33	4.67	1.67	6.67	-5.33	2.67	3.67	-0.33	12.67	0.67	0.67	1.67	7.67	8.67	16.67	2.67	8.67	7.67
1854	119.45	11.67	6.33	7.33	3.33	4.33	5.33	-4.67	3.33	4.33	4.33	1.33	9.33	1.33	5.33	10.33	9.33	7.33	5.33	-1.67	2.33	1.33	6.33	4.33	12.33	2.33	2.33	18.33
1861	119.924	15.33	-4.33	-1.33	-3.33	-2.33	1.67	-2.33	1.67	-3.33	-0.33	-1.33	0.67	-7.33	-3.33	-1.33	-4.33	-0.33	-0.33	-3.33	-10.33	0.67	-10.33	6.67	8.67	8.67	2.67	-0.33
1868	120.398	13.33	-1.33	8.67	5.67	-2.33	2.67	-1.33	2.67	5.67	0.67	1.67	-4.33	-2.33	4.67	1.67	0.67	-7.33	1.67	7.67	2.67	6.67	-2.33	-0.33	1.67	0.67	-0.33	5.67
1875	120.872	9.0	3.0	3.0	6.0	-3.0	2.0	10.0	3.0	7.0	0.0	1.0	-1.0	4.0	5.0	-1.0	4.0	6.0	10.0	8.0	2.0	-2.0	11.0	5.0	13.0	10.0	7.0	10.0
1882	121.347	13.67	-6.67	-2.67	6.33	1.33	4.33	-7.67	5.33	5.33	5.33	2.33	1.33	-5.67	5.33	-2.67	5.33	10.33	6.33	4.33	1.33	-6.67	0.33	1.33	6.33	0.33	-3.67	5.33
1889	121.822	9.67	2.33	-0.67	4.33	0.33	14.33	6.33	4.33	4.33	2.33	0.33	0.33	3.33	3.33	-0.67	5.33	-2.67	4.33	10.33	6.33	3.33	5.33	3.33	2.33	-1.67	-1.67	5.33
1896	122.298	10.33	3.67	0.67	-1.33	3.67	5.67	2.67	6.67	-3.33	5.67	-0.33	-0.33	6.67	2.67	4.67	2.67	2.67	-3.33	0.67	-1.33	-0.33	4.67	8.67	6.67	0.67	-1.33	7.67
1903	122.773	11.33	3.67	-5.33	0.67	-2.33	0.67	3.67	-7.33	6.67	2.67	3.67	3.67	4.67	-0.33	2.67	8.67	-4.33	2.67	3.67	6.67	9.67	2.67	1.67	5.67	1.67	4.67	5.67
1910	123.25	12.33	-4.33	-2.33	-0.33	0.67	2.67	-6.33	0.67	-0.33	-4.33	-2.33	0.67	7.67	-2.33	1.67	-5.33	2.67	3.67	2.67	-1.33	-0.33	-0.33	-3.33	1.67	5.67	-1.33	3.67
1917	123.726	10.0	5.0	3.0	7.0	2.0	6.0	6.0	1.0	1.0	-1.0	2.0	3.0	-4.0	5.0	4.0	5.0	1.0	4.0	4.0	7.0	12.0	4.0	3.0	3.0	1.0	5.0	-1.0
1924	124.203	10.0	-1.0	-3.0	4.0	-2.0	-4.0	1.0	1.0	1.0	1.0	1.0	2.0	3.0	3.0	4.0	5.0	2.0	3.0	0.0	0.0	4.0	-1.0	0.0	4.0	11.0	6.0	7.0
1931	124.68	7.67	3.33	5.33	-0.67	7.33	0.33	0.33	3.33	0.33	3.33	13.33	4.33	8.33	2.33	3.33	6.33	4.33	7.33	6.33	0.33	-1.67	1.33	7.33	1.33	9.33	8.33	12.33
1938	125.158	12.33	-1.33	-7.33	-3.33	-6.33	-5.33	-5.33	-1.33	-1.33	-2.33	0.67	-1.33	-1.33	-1.33	-3.33	-3.33	-1.33	0.67	-0.33	-0.33	1.67	-1.33	-2.33	-3.33	6.67	-0.33	5.67
1945	125.635	10.0	1.0	0.0	1.0	-5.0	2.0	2.0	5.0	2.0	6.0	1.0	7.0	4.0	4.0	2.0	-3.0	2.0	3.0	-2.0	1.0	5.0	3.0	6.0	-6.0	5.0	1.0	11.0
1952	126.114	10.33	0.67	-1.33	-4.33	4.67	-3.33	-5.33	1.67	-1.33	1.67	-3.33	-2.33	-0.33	4.67	4.67	1.67	3.67	3.67	6.67	3.67	-3.33	3.67	6.67	4.67	0.67	11.67	1.67
1959	126.592	9.33	-2.33	-2.33	-5.33	0.67	-0.33	-2.33	0.67	1.67	5.67	5.67	2.67	-1.33	0.67	0.67	6.67	2.67	-3.33	3.67	10.67	5.67	2.67	-0.33	4.67	0.67	6.67	7.67
1966	127.071	10.0	-1.0	-3.0	3.0	3.0	4.0	0.0	0.0	1.0	0.0	3.0	4.0	1.0	7.0	0.0	5.0	4.0	2.0	-4.0	3.0	4.0	-2.0	-3.0	2.0	-5.0	4.0	-1.0
1973	127.55	8.33	3.67	3.67	5.67	0.67	-3.33	-0.33	4.67	7.67	2.67	7.67	2.67	0.67	3.67	4.67	0.67	0.67	6.67	6.67	9.67	5.67	-2.33	1.67	-0.33	-0.33	3.67	7.67
1980	128.03	9.33	-2.33	-0.33	-2.33	2.67	-0.33	-1.33	1.67	7.67	0.67	0.67	10.67	1.67	-1.33	-3.33	1.67	3.67	4.67	7.67	-1.33	3.67	3.67	1.67	-1.33	1.67	3.67	5.67
1987	128.51	9.33	-1.33	2.67	-2.33	-1.33	-7.33	2.67	3.67	1.67	-3.33	2.67	-3.33	-2.33	2.67	3.67	4.67	-0.33	-1.33	4.67	-0.33	-2.33	1.67	7.67	3.67	-4.33	0.67	-2.33
1994	128.99	10.33	-2.33	3.67	-3.33	0.67	-4.33	-2.33	-0.33	-5.33	-0.33	-0.33	-1.33	-0.33	-0.33	2.67	-1.33	0.67	6.67	2.67	-2.33	6.67	3.67	-2.33	1.67	-3.33	-4.33	0.67
2001	129.471	9.0	-2.0	1.0	2.0	1.0	6.0	-1.0	-4.0	0.0	3.0	3.0	0.0	-3.0	-1.0	1.0	-2.0	-1.0	0.0	2.0	1.0	4.0	0.0	2.0	1.0	4.0	-5.0	0.0
2008	129.952	9.67	-4.67	0.33	-0.67	6.33	3.33	6.33	2.33	1.33	1.33	-4.67	2.33	2.33	-4.67	-1.67	-1.67	-0.67	-2.67	-3.67	1.33	2.33	5.33	-0.67	6.33	-1.67	6.33	1.33
2015	130.433	10.33	-4.33	3.67	-1.33	-0.33	-4.33	0.67	2.67	-0.33	-3.33	0.67	-1.33	1.67	-5.33	-2.33	4.67	-0.33	-2.33	-1.33	-3.33	-3.33	0.67	-0.33	-4.33	0.67	-2.33	-2.33
2022	130.915	7.67	-2.67	1.33	-2.67	0.33	0.33	0.33	1.33	-0.67	2.33	0.33	5.33	2.33	4.33	-3.67	2.33	1.33	2.33	4.33	4.33	0.33	1.33	0.33	0.33	-3.67	6.33	-2.67
2029	131.397	8.0	-3.0	2.0	2.0	1.0	-1.0	5.0	3.0	2.0	5.0	2.0	-6.0	-2.0	-1.0	2.0	-1.0	4.0	-2.0	-1.0	3.0	-4.0	-1.0	0.0	-1.0	-1.0	1.0	12.0
2036	131.879	8.33	-3.33	-3.33	-2.33	-1.33	-2.33	-1.33	3.67	-1.33	-0.33	2.67	2.67	-0.33	-2.33	3.67	-2.33	-1.33	2.67	6.67	4.67	1.67	-3.33	1.67	6.67	-0.33	2.67	3.67
2043	132.362	6.33	5.67	1.67	0.67	1.67	3.67	5.67	7.67	0.67	2.67	0.67	5.67	2.67	-2.33	1.67	7.67	-0.33	4.67	0.67	1.67	1.67	10.67	-1.33	5.67	2.67	3.67	1.67
2047	132.638	9.33	-2.33	-1.33	1.67	-0.33	-3.33	1.67	-1.33	-2.33	0.67	0.67	-2.33	-1.33	0.67	-0.33	0.67	-5.33	1.67	4.67	-2.33	-2.33	-2.33	-0.33	1.67	-2.33	-2.33	1.67