File: EDX Back Ups and Old Files/EDX Processed Data/Low pH SF 25C 4d.txt
Name: Low pH SF 25C 4d
Number of Scans: 29
Positions: [-13.0, -12.75, -12.5, -12.25, -12.0, -11.75, -11.5, -11.25, -11.0, -10.75, -10.5, -10.25, -10.0, -9.75, -9.5, -9.25, -9.0, -8.75, -8.5, -8.25, -8.0, -7.75, -7.5, -7.25, -7.0, -6.75, -6.5, -6.25, -6.0]
Points per Scan: 2048
Sample Edge: 3
Scans Off Sample: [0, 1, 2]
Conversion Features: [(275, 17444.3), (309, 19608.3), (913, 57981.7), (934, 59318.24), (1058, 67244.3)]
Degree of Fit: 3
Fit Coeffecients: [ 8.59183e-07 -0.001482  64.3003 -144.207]
pH: Low
Steel Fiber: True
Aging Temp.: 25
Aging Atm.: 100% CO2
Aging Humidity: None
Aging Time: 4

*********
#Bins	Energy [keV]	Avg. Background	-12.25	-12.0	-11.75	-11.5	-11.25	-11.0	-10.75	-10.5	-10.25	-10.0	-9.75	-9.5	-9.25	-9.0	-8.75	-8.5	-8.25	-8.0	-7.75	-7.5	-7.25	-7.0	-6.75	-6.5	-6.25	-6.0
6	0.242	1879.33	-89.33	38.67	71.67	-108.33	-43.33	-74.33	65.67	-3.33	60.67	-107.33	-56.33	-81.33	-24.33	67.67	27.67	1.67	-60.33	-50.33	16.67	11.67	-11.33	-79.33	-97.33	-12.33	-20.33	-50.33
13	0.691	1220.33	54.67	58.67	61.67	-2.33	7.67	3.67	38.67	-1.33	-6.33	-0.33	-59.33	4.67	55.67	16.67	9.67	7.67	-23.33	12.67	-9.33	6.67	43.67	-27.33	2.67	-9.33	74.67	23.67
20	1.141	305.67	22.33	25.33	17.33	21.33	3.33	-1.67	-3.67	15.33	12.33	-16.67	2.33	11.33	30.33	9.33	-11.67	-7.67	8.33	-3.67	24.33	1.33	32.33	14.33	-2.67	-25.67	23.33	29.33
27	1.591	53.0	-1.0	-2.0	-4.0	1.0	-12.0	-4.0	-9.0	-6.0	-13.0	7.0	2.0	-6.0	13.0	-3.0	-18.0	4.0	-9.0	-13.0	-11.0	-10.0	-7.0	-1.0	-3.0	1.0	1.0	13.0
34	2.04	7.0	-3.0	-5.0	-1.0	0.0	-2.0	-5.0	-2.0	6.0	0.0	-1.0	-4.0	-3.0	0.0	4.0	-3.0	-4.0	7.0	0.0	-3.0	-1.0	-1.0	-4.0	0.0	-2.0	-2.0	0.0
41	2.49	0.67	-0.67	0.33	-0.67	0.33	0.33	2.33	-0.67	2.33	-0.67	0.33	0.33	0.33	0.33	-0.67	-0.67	-0.67	0.33	0.33	1.33	0.33	-0.67	1.33	0.33	0.33	0.33	-0.67
48	2.939	0.33	-0.33	-0.33	0.67	-0.33	-0.33	-0.33	0.67	-0.33	-0.33	-0.33	0.67	-0.33	0.67	1.67	-0.33	-0.33	-0.33	-0.33	-0.33	-0.33	-0.33	-0.33	-0.33	0.67	-0.33	0.67
55	3.388	0.67	0.33	-0.67	-0.67	-0.67	0.33	-0.67	-0.67	-0.67	-0.67	-0.67	0.33	-0.67	-0.67	-0.67	0.33	-0.67	-0.67	-0.67	1.33	-0.67	-0.67	-0.67	-0.67	-0.67	-0.67	-0.67
62	3.837	1.67	-0.67	-1.67	-1.67	-1.67	-1.67	-1.67	-0.67	-1.67	-1.67	-1.67	-1.67	-1.67	-1.67	-1.67	-1.67	-1.67	-1.67	-1.67	-1.67	-0.67	0.33	-0.67	-1.67	-1.67	-1.67	-1.67
69	4.286	0.67	0.33	-0.67	0.33	0.33	-0.67	0.33	-0.67	-0.67	-0.67	-0.67	-0.67	0.33	-0.67	1.33	-0.67	-0.67	1.33	1.33	-0.67	-0.67	-0.67	-0.67	-0.67	0.33	0.33	-0.67
76	4.734	1.33	-1.33	-0.33	-1.33	-0.33	-1.33	0.67	-0.33	-1.33	-1.33	-1.33	-1.33	-1.33	-1.33	0.67	-1.33	0.67	-1.33	-1.33	-1.33	-1.33	-1.33	-1.33	-1.33	-1.33	-1.33	-1.33
83	5.183	0.33	0.67	-0.33	-0.33	0.67	0.67	-0.33	-0.33	-0.33	-0.33	0.67	-0.33	-0.33	-0.33	0.67	-0.33	-0.33	-0.33	-0.33	-0.33	0.67	-0.33	0.67	-0.33	0.67	0.67	0.67
90	5.631	1.0	0.0	-1.0	0.0	1.0	0.0	-1.0	-1.0	-1.0	-1.0	0.0	-1.0	1.0	-1.0	-1.0	0.0	-1.0	0.0	-1.0	1.0	0.0	-1.0	-1.0	0.0	-1.0	-1.0	2.0
97	6.08	0.33	0.67	-0.33	1.67	-0.33	-0.33	0.67	-0.33	0.67	-0.33	2.67	0.67	0.67	0.67	0.67	-0.33	-0.33	1.67	-0.33	-0.33	1.67	0.67	1.67	-0.33	0.67	2.67	1.67
104	6.528	2.0	-1.0	0.0	-1.0	1.0	0.0	0.0	-1.0	-1.0	0.0	-1.0	0.0	0.0	-1.0	-1.0	0.0	-1.0	-2.0	-1.0	-2.0	-2.0	-1.0	-1.0	0.0	2.0	-2.0	0.0
111	6.976	1.67	-0.67	1.33	-0.67	5.33	1.33	-1.67	-0.67	1.33	0.33	0.33	-1.67	-0.67	2.33	1.33	3.33	4.33	-0.67	2.33	1.33	-1.67	-0.67	-0.67	5.33	-0.67	0.33	0.33
118	7.424	3.67	-1.67	1.33	4.33	0.33	-0.67	-3.67	-0.67	0.33	-3.67	0.33	-1.67	-0.67	-3.67	0.33	3.33	-0.67	3.33	-2.67	2.33	0.33	-1.67	1.33	0.33	-0.67	-1.67	0.33
125	7.872	2.67	3.33	2.33	2.33	0.33	3.33	4.33	-0.67	-0.67	3.33	1.33	-0.67	0.33	4.33	1.33	2.33	7.33	3.33	4.33	5.33	5.33	4.33	1.33	2.33	3.33	-0.67	2.33
132	8.32	5.67	0.33	0.33	4.33	-1.67	3.33	3.33	0.33	3.33	-3.67	0.33	1.33	5.33	0.33	-1.67	-1.67	2.33	0.33	1.33	3.33	4.33	-2.67	1.33	5.33	1.33	2.33	-0.67
139	8.767	5.33	2.67	2.67	2.67	2.67	3.67	8.67	2.67	-1.33	-3.33	1.67	1.67	5.67	-2.33	4.67	0.67	-1.33	2.67	1.67	3.67	4.67	10.67	4.67	0.67	6.67	-1.33	1.67
146	9.215	8.33	-0.33	-2.33	-3.33	5.67	2.67	-2.33	2.67	5.67	0.67	-2.33	3.67	-2.33	-0.33	3.67	1.67	-0.33	13.67	4.67	-0.33	-2.33	4.67	-4.33	0.67	0.67	3.67	-1.33
153	9.662	5.67	9.33	4.33	2.33	6.33	0.33	6.33	3.33	0.33	3.33	5.33	1.33	9.33	5.33	4.33	3.33	5.33	4.33	1.33	9.33	13.33	2.33	5.33	3.33	5.33	3.33	6.33
160	10.109	9.0	0.0	0.0	0.0	4.0	1.0	2.0	1.0	-6.0	4.0	6.0	4.0	-1.0	7.0	2.0	11.0	4.0	0.0	5.0	5.0	2.0	4.0	2.0	4.0	3.0	-1.0	1.0
167	10.557	9.67	-1.67	1.33	-1.67	-1.67	0.33	2.33	4.33	6.33	0.33	3.33	4.33	1.33	0.33	-1.67	-2.67	5.33	3.33	5.33	3.33	6.33	3.33	-1.67	3.33	-0.67	2.33	2.33
174	11.004	9.0	-1.0	-4.0	5.0	3.0	4.0	6.0	2.0	4.0	4.0	6.0	3.0	-1.0	4.0	5.0	2.0	2.0	0.0	2.0	-1.0	-3.0	7.0	5.0	6.0	1.0	-1.0	8.0
181	11.451	9.67	-3.67	-1.67	6.33	7.33	1.33	-2.67	7.33	6.33	-2.67	-0.67	4.33	0.33	2.33	7.33	6.33	0.33	5.33	6.33	-1.67	10.33	-0.67	3.33	7.33	2.33	11.33	6.33
188	11.898	8.67	-2.67	6.33	2.33	1.33	2.33	-0.67	-0.67	0.33	8.33	3.33	4.33	6.33	2.33	4.33	0.33	0.33	1.33	6.33	5.33	10.33	-0.67	4.33	4.33	4.33	3.33	3.33
195	12.344	9.67	-4.67	-2.67	-0.67	3.33	3.33	2.33	-6.67	6.33	5.33	3.33	-1.67	4.33	-0.67	0.33	-2.67	0.33	1.33	2.33	3.33	3.33	8.33	-3.67	0.33	1.33	0.33	3.33
202	12.791	12.67	-0.67	1.33	-5.67	-2.67	0.33	-0.67	1.33	-2.67	1.33	7.33	0.33	5.33	-1.67	-0.67	-4.67	-7.67	-1.67	0.33	7.33	-1.67	4.33	-2.67	-2.67	3.33	-5.67	-1.67
209	13.238	6.67	5.33	5.33	4.33	6.33	7.33	5.33	2.33	2.33	4.33	3.33	6.33	0.33	6.33	5.33	4.33	11.33	0.33	4.33	4.33	4.33	4.33	-0.67	8.33	6.33	5.33	4.33
216	13.684	7.0	3.0	9.0	-3.0	8.0	5.0	9.0	7.0	6.0	1.0	3.0	11.0	1.0	2.0	6.0	7.0	6.0	2.0	5.0	7.0	6.0	7.0	9.0	8.0	6.0	0.0	8.0
223	14.131	8.33	0.67	2.67	-2.33	-0.33	1.67	4.67	4.67	-1.33	-2.33	5.67	1.67	2.67	3.67	5.67	-2.33	-0.33	9.67	1.67	7.67	2.67	6.67	1.67	3.67	5.67	4.67	3.67
230	14.577	8.33	3.67	0.67	-3.33	2.67	7.67	2.67	8.67	3.67	10.67	13.67	4.67	11.67	3.67	6.67	-0.33	2.67	8.67	9.67	2.67	4.67	-2.33	2.67	2.67	5.67	5.67	6.67
237	15.023	9.67	0.33	1.33	5.33	5.33	2.33	3.33	3.33	-0.67	7.33	-0.67	7.33	8.33	5.33	2.33	1.33	-1.67	1.33	8.33	4.33	-0.67	-2.67	2.33	2.33	5.33	-0.67	2.33
244	15.469	9.0	-4.0	12.0	4.0	3.0	2.0	-1.0	4.0	4.0	1.0	2.0	8.0	2.0	0.0	-1.0	2.0	6.0	0.0	2.0	11.0	12.0	-3.0	10.0	-1.0	-4.0	13.0	7.0
251	15.915	11.0	-7.0	-5.0	-3.0	0.0	-4.0	-1.0	4.0	4.0	9.0	3.0	3.0	-5.0	5.0	4.0	1.0	0.0	4.0	-3.0	10.0	-2.0	-1.0	6.0	0.0	-2.0	11.0	-1.0
258	16.361	8.0	2.0	-1.0	5.0	5.0	0.0	6.0	3.0	3.0	2.0	5.0	5.0	10.0	5.0	3.0	0.0	5.0	7.0	0.0	2.0	4.0	1.0	5.0	16.0	5.0	2.0	6.0
265	16.807	9.33	-0.33	-0.33	1.67	1.67	5.67	-3.33	-3.33	6.67	-3.33	2.67	-2.33	6.67	4.67	4.67	1.67	7.67	-3.33	-5.33	8.67	5.67	10.67	-6.33	4.67	4.67	4.67	5.67
272	17.253	8.33	-2.33	4.67	0.67	5.67	1.67	7.67	5.67	-0.33	0.67	-0.33	1.67	13.67	4.67	-5.33	7.67	5.67	8.67	1.67	11.67	6.67	2.67	0.67	3.67	2.67	8.67	5.67
279	17.699	9.33	4.67	-4.33	-2.33	3.67	2.67	2.67	3.67	-1.33	1.67	-5.33	4.67	0.67	1.67	-1.33	-0.33	4.67	1.67	3.67	0.67	3.67	2.67	0.67	-4.33	5.67	-0.33	2.67
286	18.145	9.67	-5.67	8.33	8.33	0.33	-5.67	5.33	1.33	3.33	1.33	0.33	-1.67	-0.67	7.33	-0.67	3.33	-2.67	0.33	5.33	2.33	8.33	1.33	2.33	11.33	-3.67	5.33	-3.67
293	18.59	7.33	-0.33	0.67	-0.33	1.67	1.67	-0.33	1.67	4.67	5.67	1.67	-0.33	4.67	3.67	4.67	-0.33	1.67	-1.33	8.67	6.67	6.67	1.67	1.67	1.67	5.67	3.67	9.67
300	19.036	8.67	-5.67	-3.67	6.33	5.33	5.33	3.33	6.33	4.33	-0.67	1.33	-3.67	3.33	7.33	0.33	5.33	8.33	5.33	7.33	-0.67	7.33	6.33	5.33	0.33	2.33	0.33	4.33
307	19.481	9.33	7.67	2.67	-1.33	2.67	-4.33	-1.33	-2.33	-0.33	-3.33	-1.33	3.67	-1.33	1.67	5.67	4.67	8.67	1.67	0.67	0.67	4.67	2.67	0.67	8.67	0.67	3.67	10.67
314	19.927	7.67	-2.67	4.33	-3.67	-1.67	6.33	-2.67	7.33	1.33	1.33	7.33	3.33	-3.67	0.33	4.33	7.33	1.33	6.33	0.33	1.33	4.33	-2.67	4.33	0.33	7.33	2.33	4.33
321	20.372	10.0	-3.0	0.0	-6.0	2.0	-3.0	-2.0	0.0	-4.0	1.0	-2.0	-2.0	1.0	6.0	3.0	-3.0	-4.0	4.0	2.0	5.0	-4.0	1.0	0.0	3.0	-3.0	4.0	4.0
328	20.817	8.0	-2.0	1.0	-3.0	-2.0	5.0	4.0	5.0	4.0	6.0	4.0	1.0	10.0	3.0	6.0	0.0	4.0	10.0	4.0	7.0	1.0	9.0	1.0	-2.0	7.0	1.0	5.0
335	21.262	7.67	-2.67	5.33	1.33	-0.67	0.33	2.33	1.33	4.33	4.33	3.33	-0.67	7.33	4.33	1.33	1.33	1.33	7.33	1.33	4.33	7.33	3.33	7.33	2.33	2.33	3.33	7.33
342	21.708	8.0	0.0	2.0	-2.0	1.0	0.0	0.0	0.0	-2.0	2.0	6.0	5.0	4.0	-1.0	2.0	-2.0	3.0	2.0	1.0	13.0	-1.0	1.0	6.0	2.0	6.0	8.0	3.0
349	22.153	7.67	1.33	0.33	4.33	-0.67	-2.67	3.33	2.33	4.33	0.33	-1.67	-0.67	5.33	11.33	-2.67	-2.67	1.33	2.33	-0.67	2.33	9.33	-0.67	3.33	4.33	6.33	1.33	-1.67
356	22.598	7.67	2.33	5.33	-1.67	-1.67	2.33	1.33	1.33	-1.67	1.33	1.33	2.33	3.33	-1.67	5.33	1.33	-1.67	1.33	-0.67	5.33	2.33	2.33	2.33	4.33	4.33	5.33	7.33
363	23.043	8.0	-4.0	1.0	-2.0	-1.0	3.0	-3.0	-2.0	-2.0	3.0	6.0	3.0	4.0	3.0	0.0	1.0	4.0	5.0	6.0	3.0	-2.0	10.0	-1.0	1.0	-1.0	4.0	2.0
370	23.488	8.33	2.67	2.67	-3.33	0.67	-0.33	0.67	0.67	-0.33	-3.33	2.67	-0.33	0.67	-0.33	-1.33	-4.33	1.67	9.67	0.67	-2.33	-5.33	6.67	-1.33	4.67	1.67	0.67	-0.33
377	23.932	7.67	1.33	-1.67	2.33	0.33	0.33	0.33	-1.67	2.33	3.33	-2.67	1.33	0.33	2.33	5.33	6.33	-2.67	1.33	5.33	2.33	3.33	4.33	3.33	3.33	0.33	2.33	7.33
384	24.377	8.0	-2.0	4.0	4.0	-1.0	4.0	7.0	1.0	1.0	-1.0	-1.0	8.0	-2.0	2.0	4.0	-1.0	-3.0	2.0	2.0	3.0	13.0	-1.0	5.0	6.0	3.0	0.0	4.0
391	24.822	6.67	2.33	0.33	-1.67	-0.67	4.33	2.33	6.33	3.33	3.33	1.33	-0.67	3.33	1.33	2.33	6.33	5.33	2.33	3.33	5.33	1.33	-0.67	-0.67	3.33	1.33	2.33	1.33
398	25.267	7.33	-3.33	0.67	4.67	0.67	-1.33	4.67	-0.33	2.67	-0.33	2.67	-1.33	3.67	-0.33	0.67	-0.33	3.67	9.67	2.67	0.67	-2.33	6.67	-0.33	2.67	8.67	3.67	1.67
405	25.711	8.67	-0.67	-0.67	-2.67	0.33	-0.67	4.33	3.33	-0.67	0.33	-3.67	2.33	2.33	4.33	2.33	2.33	1.33	-1.67	1.33	3.33	1.33	1.33	0.33	-0.67	-2.67	8.33	0.33
412	26.156	7.67	4.33	3.33	0.33	1.33	1.33	-0.67	0.33	9.33	0.33	6.33	5.33	8.33	-3.67	1.33	0.33	1.33	9.33	1.33	4.33	4.33	0.33	-2.67	7.33	-1.67	-0.67	-0.67
419	26.601	6.67	0.33	-0.67	-1.67	0.33	2.33	0.33	0.33	4.33	-2.67	6.33	5.33	0.33	9.33	-0.67	2.33	1.33	3.33	1.33	4.33	3.33	-3.67	2.33	6.33	1.33	-2.67	5.33
426	27.045	8.0	0.0	-3.0	-3.0	-1.0	-1.0	-2.0	-3.0	-4.0	1.0	0.0	2.0	-4.0	3.0	4.0	0.0	-4.0	1.0	0.0	-5.0	0.0	0.0	1.0	-2.0	-1.0	3.0	0.0
433	27.49	6.0	0.0	0.0	2.0	10.0	-2.0	1.0	2.0	-1.0	1.0	2.0	0.0	-2.0	3.0	0.0	3.0	1.0	-4.0	3.0	3.0	2.0	5.0	0.0	0.0	3.0	1.0	2.0
440	27.934	8.0	-4.0	4.0	-1.0	3.0	1.0	-4.0	-1.0	2.0	1.0	2.0	-1.0	-1.0	-2.0	3.0	4.0	-1.0	4.0	-2.0	4.0	-1.0	-5.0	1.0	-6.0	2.0	0.0	2.0
447	28.379	6.0	1.0	6.0	0.0	2.0	4.0	-2.0	0.0	1.0	4.0	4.0	2.0	1.0	2.0	6.0	2.0	0.0	2.0	1.0	3.0	-1.0	0.0	9.0	0.0	13.0	0.0	1.0
454	28.823	6.67	0.33	0.33	-4.67	-3.67	0.33	1.33	0.33	1.33	0.33	4.33	-0.67	-4.67	-1.67	-1.67	-0.67	1.33	0.33	6.33	-2.67	4.33	5.33	5.33	1.33	-1.67	-2.67	1.33
461	29.267	3.67	1.33	2.33	3.33	1.33	1.33	0.33	0.33	7.33	4.33	3.33	8.33	3.33	-1.67	6.33	6.33	-1.67	4.33	1.33	7.33	5.33	0.33	8.33	7.33	4.33	2.33	6.33
468	29.712	5.0	1.0	-1.0	4.0	2.0	0.0	1.0	-1.0	5.0	4.0	0.0	5.0	-2.0	6.0	-2.0	0.0	3.0	8.0	4.0	12.0	3.0	-1.0	4.0	2.0	9.0	1.0	1.0
475	30.156	4.67	-1.67	0.33	1.33	3.33	2.33	1.33	1.33	2.33	4.33	1.33	3.33	-0.67	-1.67	-1.67	0.33	5.33	-0.67	1.33	3.33	1.33	-0.67	6.33	3.33	3.33	5.33	5.33
482	30.6	6.0	1.0	-3.0	-3.0	-3.0	2.0	1.0	5.0	-3.0	2.0	2.0	1.0	0.0	1.0	0.0	-1.0	-3.0	-1.0	-1.0	1.0	0.0	9.0	3.0	1.0	0.0	2.0	5.0
489	31.045	6.33	1.67	-3.33	-2.33	0.67	1.67	-4.33	0.67	-3.33	-1.33	8.67	-0.33	3.67	5.67	1.67	-0.33	2.67	2.67	2.67	1.67	3.67	2.67	-2.33	-0.33	-1.33	-0.33	-3.33
496	31.489	6.67	-0.67	-3.67	-3.67	-1.67	-2.67	1.33	0.33	4.33	-1.67	2.33	1.33	5.33	-2.67	-0.67	0.33	0.33	-0.67	1.33	-0.67	-1.67	4.33	2.33	-0.67	0.33	-0.67	3.33
503	31.933	6.0	0.0	-1.0	-2.0	2.0	4.0	-2.0	1.0	3.0	10.0	1.0	0.0	-2.0	5.0	2.0	0.0	7.0	7.0	-1.0	-3.0	3.0	1.0	4.0	-1.0	-1.0	-2.0	3.0
510	32.377	5.33	0.67	-0.33	2.67	0.67	0.67	2.67	-3.33	3.67	3.67	-0.33	5.67	0.67	1.67	-3.33	1.67	3.67	3.67	-1.33	-0.33	2.67	-4.33	-4.33	-0.33	1.67	2.67	0.67
517	32.822	4.67	-0.67	0.33	4.33	1.33	-1.67	-1.67	-1.67	1.33	4.33	-0.67	0.33	1.33	3.33	5.33	5.33	0.33	1.33	1.33	3.33	3.33	-2.67	0.33	-0.67	5.33	-2.67	6.33
524	33.266	2.33	-0.33	3.67	2.67	3.67	2.67	2.67	3.67	4.67	3.67	2.67	2.67	-1.33	3.67	4.67	-1.33	3.67	4.67	5.67	6.67	4.67	6.67	1.67	1.67	2.67	3.67	4.67
531	33.71	4.0	5.0	2.0	4.0	5.0	6.0	1.0	-2.0	2.0	6.0	2.0	0.0	-3.0	1.0	2.0	-1.0	4.0	1.0	0.0	-1.0	4.0	6.0	7.0	1.0	5.0	5.0	1.0
538	34.154	5.33	2.67	-2.33	0.67	-0.33	-0.33	0.67	-2.33	-3.33	-1.33	-0.33	0.67	2.67	-1.33	-4.33	3.67	-0.33	-3.33	1.67	4.67	0.67	3.67	-1.33	2.67	0.67	1.67	0.67
545	34.598	5.33	1.67	0.67	-1.33	2.67	0.67	0.67	1.67	-0.33	-0.33	3.67	-0.33	-2.33	6.67	3.67	0.67	-0.33	-0.33	4.67	1.67	-1.33	2.67	0.67	-0.33	2.67	-2.33	-0.33
552	35.043	2.0	3.0	5.0	5.0	2.0	8.0	7.0	2.0	3.0	4.0	2.0	1.0	0.0	2.0	4.0	0.0	3.0	4.0	2.0	11.0	1.0	6.0	4.0	4.0	3.0	3.0	3.0
559	35.487	4.0	-1.0	-3.0	0.0	0.0	0.0	0.0	2.0	4.0	8.0	-1.0	3.0	0.0	-3.0	-2.0	-2.0	0.0	2.0	1.0	3.0	4.0	1.0	-2.0	3.0	4.0	11.0	1.0
566	35.931	3.33	1.67	1.67	1.67	2.67	1.67	4.67	-0.33	3.67	4.67	3.67	-0.33	3.67	-1.33	4.67	5.67	5.67	0.67	2.67	0.67	1.67	0.67	3.67	6.67	0.67	0.67	1.67
573	36.375	4.0	0.0	2.0	1.0	3.0	5.0	3.0	7.0	1.0	0.0	-1.0	0.0	2.0	3.0	-2.0	2.0	1.0	2.0	5.0	2.0	0.0	5.0	3.0	-3.0	0.0	2.0	5.0
580	36.819	3.33	0.67	-0.33	5.67	0.67	1.67	-0.33	5.67	7.67	0.67	5.67	0.67	5.67	-1.33	-0.33	1.67	1.67	0.67	2.67	-0.33	-0.33	1.67	2.67	1.67	3.67	5.67	2.67
587	37.263	5.0	-1.0	5.0	4.0	1.0	-1.0	-1.0	1.0	-2.0	5.0	5.0	2.0	-3.0	-1.0	1.0	4.0	1.0	0.0	-3.0	2.0	0.0	2.0	-2.0	1.0	0.0	4.0	-1.0
594	37.707	7.67	-0.67	-3.67	-2.67	0.33	-5.67	-1.67	0.33	-1.67	-1.67	-2.67	-0.67	-0.67	-1.67	0.33	-0.67	-1.67	-3.67	-1.67	-3.67	-4.67	0.33	-2.67	-2.67	-3.67	-1.67	1.33
601	38.152	6.0	-1.0	-2.0	-1.0	0.0	-4.0	-4.0	-2.0	-3.0	0.0	1.0	3.0	-2.0	-2.0	-4.0	-1.0	6.0	-1.0	-4.0	-1.0	1.0	0.0	2.0	1.0	-3.0	3.0	1.0
608	38.596	2.0	3.0	4.0	8.0	5.0	7.0	4.0	2.0	4.0	3.0	3.0	5.0	4.0	0.0	3.0	3.0	8.0	2.0	0.0	6.0	4.0	4.0	3.0	4.0	0.0	2.0	3.0
615	39.04	4.33	-2.33	2.67	1.67	1.67	-0.33	-1.33	-0.33	-2.33	0.67	2.67	3.67	-1.33	-0.33	-2.33	2.67	1.67	-0.33	3.67	0.67	1.67	3.67	-0.33	1.67	6.67	1.67	-1.33
622	39.484	3.67	3.33	1.33	-2.67	-1.67	1.33	2.33	3.33	0.33	-1.67	-0.67	2.33	1.33	-1.67	0.33	4.33	2.33	1.33	2.33	1.33	1.33	3.33	7.33	2.33	0.33	4.33	1.33
629	39.928	0.67	4.33	2.33	3.33	2.33	7.33	1.33	2.33	5.33	4.33	6.33	3.33	4.33	5.33	2.33	4.33	5.33	3.33	2.33	7.33	4.33	7.33	2.33	4.33	6.33	6.33	5.33
636	40.372	3.33	5.67	1.67	0.67	2.67	1.67	0.67	2.67	-0.33	-1.33	1.67	1.67	0.67	-1.33	1.67	0.67	0.67	1.67	-0.33	-1.33	0.67	3.67	1.67	6.67	2.67	3.67	3.67
643	40.817	6.0	0.0	-1.0	0.0	-5.0	-1.0	0.0	-2.0	-2.0	0.0	8.0	-2.0	0.0	1.0	0.0	0.0	-6.0	2.0	0.0	3.0	4.0	1.0	3.0	-2.0	2.0	-3.0	1.0
650	41.261	4.67	1.33	-0.67	6.33	-0.67	1.33	0.33	0.33	-0.67	0.33	1.33	2.33	-1.67	5.33	1.33	1.33	-0.67	0.33	-0.67	-2.67	2.33	2.33	-1.67	-1.67	0.33	3.33	6.33
657	41.705	8.0	1.0	-6.0	-4.0	1.0	3.0	5.0	-5.0	-5.0	-7.0	-3.0	-4.0	-4.0	1.0	-5.0	-1.0	-1.0	0.0	2.0	-3.0	0.0	-1.0	0.0	-2.0	-5.0	-4.0	0.0
664	42.149	7.67	-4.67	1.33	1.33	2.33	-0.67	-0.67	-4.67	-3.67	-2.67	6.33	2.33	-4.67	-1.67	2.33	-1.67	-1.67	-4.67	-4.67	-3.67	-2.67	0.33	0.33	-0.67	0.33	1.33	-3.67
671	42.594	2.67	0.33	5.33	2.33	6.33	1.33	3.33	3.33	4.33	7.33	7.33	1.33	3.33	6.33	0.33	5.33	2.33	-2.67	5.33	1.33	2.33	1.33	3.33	0.33	-0.67	2.33	1.33
678	43.038	6.33	-1.33	2.67	-2.33	-1.33	-2.33	-2.33	-0.33	-0.33	2.67	-0.33	6.67	-0.33	-2.33	-3.33	-0.33	-1.33	1.67	-3.33	-0.33	0.67	1.67	-0.33	-0.33	0.67	-1.33	0.67
685	43.482	9.67	-7.67	-4.67	-6.67	-2.67	-4.67	-6.67	2.33	-4.67	-4.67	-3.67	-0.67	-5.67	-0.67	-3.67	-5.67	-6.67	-3.67	-6.67	-5.67	-3.67	-4.67	-5.67	-3.67	-3.67	-1.67	-1.67
692	43.927	6.0	4.0	-2.0	1.0	5.0	0.0	-2.0	-2.0	7.0	4.0	0.0	-1.0	2.0	-1.0	-2.0	1.0	7.0	1.0	0.0	1.0	-1.0	7.0	-1.0	0.0	3.0	1.0	0.0
699	44.371	8.67	-1.67	-2.67	-2.67	-2.67	3.33	2.33	-4.67	1.33	-0.67	-5.67	-3.67	-0.67	-5.67	-3.67	-4.67	-2.67	-4.67	-1.67	3.33	-2.67	-2.67	-0.67	1.33	1.33	-2.67	-1.67
706	44.815	6.0	-1.0	-3.0	-1.0	2.0	4.0	-2.0	0.0	-1.0	-3.0	-2.0	1.0	0.0	1.0	0.0	5.0	0.0	4.0	3.0	3.0	-2.0	-1.0	1.0	-1.0	-3.0	5.0	0.0
713	45.26	3.0	4.0	0.0	5.0	2.0	9.0	5.0	4.0	8.0	-1.0	1.0	8.0	0.0	6.0	4.0	1.0	6.0	0.0	8.0	0.0	4.0	3.0	3.0	8.0	7.0	1.0	6.0
720	45.704	7.67	-3.67	-0.67	-3.67	-4.67	-0.67	-1.67	-0.67	1.33	2.33	-1.67	-1.67	1.33	-4.67	0.33	0.33	-0.67	7.33	-0.67	-4.67	2.33	-4.67	5.33	0.33	-2.67	1.33	-1.67
727	46.149	4.67	1.33	0.33	-0.67	7.33	4.33	2.33	5.33	10.33	3.33	4.33	3.33	4.33	2.33	3.33	2.33	-1.67	2.33	0.33	0.33	3.33	0.33	-0.67	0.33	3.33	6.33	2.33
734	46.594	5.67	2.33	-1.67	0.33	7.33	0.33	6.33	0.33	-1.67	-2.67	3.33	1.33	-1.67	2.33	1.33	8.33	2.33	4.33	-0.67	1.33	11.33	4.33	2.33	5.33	1.33	3.33	5.33
741	47.038	4.33	0.67	3.67	8.67	2.67	0.67	5.67	3.67	1.67	4.67	3.67	6.67	4.67	4.67	-0.33	3.67	1.67	2.67	4.67	3.67	0.67	7.67	2.67	0.67	4.67	1.67	1.67
748	47.483	5.0	0.0	-2.0	9.0	6.0	7.0	4.0	8.0	9.0	6.0	8.0	4.0	4.0	6.0	2.0	3.0	2.0	1.0	1.0	3.0	2.0	8.0	1.0	4.0	4.0	4.0	1.0
755	47.928	7.67	-4.67	-0.67	0.33	0.33	5.33	-1.67	-3.67	-4.67	2.33	-1.67	1.33	-0.67	-4.67	0.33	-1.67	-1.67	6.33	0.33	-1.67	-1.67	-0.67	0.33	-2.67	2.33	1.33	0.33
762	48.372	8.33	-4.33	-5.33	-1.33	-0.33	3.67	-2.33	-1.33	0.67	4.67	-2.33	5.67	-2.33	0.67	0.67	8.67	-4.33	2.67	-0.33	3.67	1.67	5.67	-0.33	-5.33	0.67	4.67	-0.33
769	48.817	7.67	1.33	-1.67	3.33	2.33	0.33	2.33	10.33	1.33	1.33	2.33	5.33	1.33	-0.67	-2.67	-1.67	2.33	1.33	3.33	4.33	3.33	-1.67	1.33	3.33	12.33	-0.67	-1.67
776	49.262	7.0	0.0	-2.0	0.0	-1.0	1.0	3.0	4.0	5.0	1.0	-1.0	3.0	-2.0	2.0	-3.0	7.0	1.0	3.0	2.0	5.0	1.0	-2.0	0.0	6.0	-1.0	1.0	4.0
783	49.707	6.33	-1.33	-4.33	5.67	3.67	4.67	1.67	5.67	5.67	2.67	5.67	2.67	6.67	8.67	4.67	3.67	1.67	5.67	0.67	7.67	2.67	2.67	11.67	3.67	5.67	6.67	-0.33
790	50.152	8.33	-4.33	-2.33	-1.33	6.67	-1.33	4.67	0.67	11.67	-0.33	0.67	-2.33	2.67	1.67	-0.33	-2.33	2.67	-0.33	3.67	-0.33	3.67	1.67	4.67	2.67	7.67	1.67	-1.33
797	50.597	7.67	5.33	-1.67	-2.67	2.33	1.33	8.33	5.33	9.33	1.33	2.33	5.33	-3.67	0.33	6.33	3.33	5.33	-1.67	2.33	3.33	1.33	3.33	6.33	-2.67	-3.67	2.33	-2.67
804	51.042	8.0	-2.0	3.0	4.0	9.0	4.0	6.0	5.0	12.0	5.0	11.0	0.0	0.0	-3.0	0.0	3.0	3.0	-1.0	4.0	-3.0	8.0	-3.0	3.0	10.0	0.0	3.0	6.0
811	51.487	5.67	-4.67	0.33	6.33	5.33	10.33	10.33	3.33	8.33	7.33	1.33	10.33	7.33	3.33	4.33	1.33	3.33	3.33	2.33	2.33	6.33	1.33	3.33	9.33	10.33	11.33	5.33
818	51.932	6.67	3.33	3.33	5.33	11.33	1.33	7.33	3.33	5.33	4.33	5.33	10.33	6.33	4.33	1.33	11.33	7.33	3.33	1.33	5.33	9.33	5.33	8.33	4.33	5.33	12.33	10.33
825	52.377	8.33	-2.33	2.67	6.67	5.67	-0.33	11.67	2.67	3.67	7.67	-1.33	4.67	8.67	2.67	6.67	5.67	2.67	-1.33	3.67	2.67	0.67	4.67	6.67	2.67	1.67	4.67	2.67
832	52.823	7.33	0.67	4.67	3.67	2.67	-0.33	4.67	4.67	7.67	0.67	7.67	7.67	5.67	4.67	0.67	5.67	6.67	3.67	2.67	2.67	9.67	3.67	7.67	1.67	1.67	8.67	10.67
839	53.268	7.67	-0.67	2.33	4.33	6.33	8.33	7.33	8.33	9.33	4.33	5.33	9.33	2.33	0.33	4.33	3.33	3.33	5.33	0.33	10.33	0.33	-0.67	5.33	9.33	-2.67	5.33	4.33
846	53.713	9.33	-7.33	0.67	6.67	7.67	6.67	3.67	6.67	7.67	-0.33	9.67	2.67	1.67	5.67	0.67	0.67	7.67	11.67	3.67	3.67	10.67	7.67	-0.33	9.67	8.67	-2.33	-1.33
853	54.159	9.33	-2.33	3.67	11.67	11.67	15.67	9.67	14.67	-0.33	11.67	-0.33	7.67	5.67	2.67	5.67	1.67	3.67	6.67	3.67	2.67	-3.33	5.67	2.67	2.67	9.67	0.67	-6.33
860	54.604	10.33	-4.33	1.67	8.67	11.67	9.67	3.67	13.67	11.67	7.67	3.67	10.67	0.67	7.67	4.67	-4.33	8.67	9.67	4.67	4.67	10.67	4.67	3.67	3.67	0.67	5.67	5.67
867	55.05	7.33	0.67	-1.33	4.67	2.67	5.67	5.67	13.67	10.67	8.67	4.67	8.67	5.67	12.67	9.67	8.67	13.67	2.67	3.67	2.67	6.67	7.67	3.67	3.67	8.67	5.67	10.67
874	55.496	8.67	4.33	3.33	4.33	10.33	13.33	9.33	4.33	10.33	6.33	12.33	8.33	2.33	1.33	4.33	6.33	1.33	13.33	7.33	5.33	7.33	7.33	8.33	6.33	2.33	-0.67	6.33
881	55.942	11.33	-1.33	-3.33	5.67	9.67	1.67	10.67	10.67	5.67	7.67	3.67	3.67	-0.33	2.67	-4.33	1.67	3.67	1.67	1.67	0.67	0.67	-0.33	0.67	2.67	1.67	2.67	3.67
888	56.387	12.33	-2.33	-3.33	2.67	1.67	8.67	9.67	4.67	-1.33	1.67	2.67	2.67	3.67	3.67	-3.33	5.67	0.67	-0.33	2.67	-0.33	2.67	5.67	6.67	6.67	4.67	-0.33	6.67
895	56.833	7.67	-2.67	1.33	11.33	8.33	11.33	12.33	16.33	2.33	7.33	11.33	8.33	3.33	7.33	9.33	7.33	6.33	2.33	10.33	4.33	6.33	7.33	3.33	5.33	10.33	4.33	6.33
902	57.279	7.67	5.33	2.33	6.33	15.33	4.33	14.33	16.33	16.33	9.33	10.33	7.33	17.33	2.33	3.33	5.33	10.33	8.33	8.33	4.33	4.33	7.33	8.33	6.33	7.33	-1.67	6.33
909	57.726	14.0	-6.0	0.0	0.0	-4.0	1.0	8.0	5.0	2.0	4.0	3.0	-1.0	5.0	4.0	7.0	4.0	4.0	-1.0	2.0	7.0	-4.0	2.0	14.0	-6.0	3.0	0.0	8.0
916	58.172	11.33	-2.33	4.67	3.67	14.67	12.67	1.67	12.67	16.67	10.67	5.67	-0.33	12.67	5.67	12.67	10.67	0.67	2.67	7.67	8.67	8.67	0.67	8.67	15.67	3.67	10.67	7.67
923	58.618	11.67	-2.67	9.33	-0.67	12.33	2.33	19.33	18.33	16.33	12.33	24.33	0.33	2.33	6.33	3.33	3.33	17.33	7.33	2.33	8.33	6.33	7.33	2.33	5.33	0.33	3.33	0.33
930	59.064	13.33	1.67	8.67	8.67	14.67	18.67	25.67	25.67	20.67	32.67	23.67	15.67	12.67	13.67	5.67	6.67	19.67	1.67	21.67	14.67	25.67	26.67	26.67	11.67	8.67	10.67	9.67
937	59.511	13.0	1.0	39.0	14.0	22.0	39.0	26.0	44.0	53.0	35.0	31.0	18.0	17.0	23.0	26.0	13.0	44.0	27.0	20.0	30.0	30.0	50.0	67.0	19.0	29.0	16.0	22.0
944	59.957	8.0	-2.0	23.0	21.0	13.0	29.0	31.0	40.0	54.0	36.0	8.0	15.0	28.0	20.0	23.0	25.0	35.0	37.0	36.0	37.0	44.0	38.0	54.0	33.0	21.0	35.0	29.0
951	60.404	12.0	3.0	8.0	19.0	1.0	22.0	14.0	17.0	22.0	20.0	13.0	10.0	7.0	2.0	4.0	11.0	10.0	12.0	15.0	18.0	21.0	17.0	14.0	10.0	3.0	9.0	13.0
958	60.851	6.33	5.67	4.67	10.67	11.67	25.67	26.67	23.67	10.67	21.67	10.67	19.67	13.67	16.67	10.67	10.67	9.67	13.67	9.67	5.67	14.67	18.67	8.67	12.67	9.67	12.67	11.67
965	61.298	12.33	-7.33	0.67	4.67	7.67	1.67	8.67	18.67	18.67	8.67	15.67	-3.33	13.67	7.67	-1.33	-2.33	4.67	10.67	2.67	9.67	-0.33	9.67	2.67	6.67	6.67	1.67	6.67
972	61.745	9.67	-3.67	-1.67	5.33	8.33	16.33	12.33	20.33	26.33	13.33	21.33	15.33	15.33	6.33	5.33	13.33	8.33	19.33	17.33	11.33	10.33	11.33	10.33	6.33	10.33	10.33	17.33
979	62.192	8.0	-1.0	4.0	25.0	17.0	20.0	24.0	26.0	48.0	61.0	37.0	36.0	18.0	20.0	17.0	7.0	23.0	25.0	14.0	10.0	11.0	13.0	27.0	13.0	15.0	12.0	14.0
986	62.639	10.0	-2.0	10.0	7.0	27.0	41.0	53.0	32.0	54.0	74.0	40.0	30.0	16.0	31.0	37.0	25.0	27.0	21.0	20.0	19.0	22.0	20.0	15.0	5.0	33.0	15.0	17.0
993	63.086	8.67	0.33	6.33	11.33	51.33	59.33	59.33	49.33	79.33	56.33	40.33	47.33	8.33	19.33	20.33	27.33	30.33	13.33	15.33	20.33	25.33	14.33	13.33	6.33	17.33	15.33	20.33
1000	63.533	6.0	-2.0	5.0	19.0	65.0	57.0	37.0	68.0	71.0	69.0	33.0	21.0	15.0	18.0	19.0	22.0	21.0	16.0	16.0	17.0	20.0	11.0	16.0	6.0	18.0	12.0	27.0
1007	63.981	7.33	7.67	2.67	13.67	19.67	21.67	25.67	23.67	29.67	23.67	19.67	9.67	18.67	16.67	6.67	19.67	13.67	17.67	16.67	21.67	13.67	14.67	13.67	13.67	20.67	22.67	13.67
1014	64.428	11.67	5.33	-2.67	4.33	10.33	11.33	16.33	19.33	9.33	15.33	18.33	16.33	18.33	6.33	6.33	17.33	9.33	15.33	5.33	14.33	5.33	8.33	6.33	7.33	23.33	15.33	11.33
1021	64.876	9.0	0.0	0.0	2.0	14.0	21.0	16.0	20.0	17.0	23.0	19.0	18.0	20.0	13.0	13.0	6.0	14.0	21.0	15.0	14.0	13.0	12.0	26.0	9.0	17.0	14.0	15.0
1028	65.324	8.0	2.0	4.0	10.0	21.0	16.0	24.0	20.0	26.0	27.0	25.0	14.0	18.0	20.0	25.0	13.0	21.0	30.0	21.0	27.0	27.0	16.0	10.0	13.0	12.0	19.0	17.0
1035	65.772	10.33	0.67	6.67	13.67	15.67	14.67	20.67	24.67	13.67	27.67	20.67	23.67	16.67	13.67	14.67	14.67	17.67	11.67	8.67	15.67	12.67	24.67	7.67	13.67	34.67	9.67	30.67
1042	66.22	14.0	0.0	4.0	9.0	7.0	15.0	16.0	20.0	19.0	18.0	12.0	7.0	7.0	5.0	4.0	12.0	14.0	15.0	17.0	9.0	11.0	10.0	11.0	15.0	16.0	24.0	14.0
1049	66.668	11.33	-2.33	-0.33	17.67	17.67	13.67	11.67	28.67	35.67	27.67	17.67	28.67	13.67	20.67	21.67	25.67	25.67	37.67	21.67	24.67	14.67	21.67	15.67	14.67	20.67	43.67	15.67
1056	67.116	12.33	6.67	10.67	30.67	32.67	28.67	29.67	38.67	34.67	32.67	31.67	34.67	35.67	25.67	15.67	56.67	49.67	39.67	42.67	26.67	26.67	29.67	22.67	20.67	29.67	45.67	17.67
1063	67.564	13.0	-6.0	11.0	16.0	29.0	33.0	47.0	47.0	28.0	28.0	35.0	35.0	37.0	23.0	31.0	56.0	35.0	34.0	15.0	22.0	25.0	31.0	46.0	36.0	28.0	18.0	17.0
1070	68.013	10.67	-4.67	9.33	11.33	50.33	20.33	52.33	30.33	27.33	47.33	32.33	38.33	45.33	42.33	21.33	35.33	22.33	22.33	21.33	21.33	31.33	19.33	33.33	25.33	20.33	24.33	3.33
1077	68.462	8.67	-2.67	3.33	7.33	31.33	22.33	40.33	19.33	29.33	27.33	30.33	32.33	36.33	39.33	25.33	23.33	18.33	14.33	20.33	28.33	17.33	7.33	20.33	22.33	15.33	19.33	18.33
1084	68.91	13.0	-3.0	-2.0	20.0	22.0	24.0	18.0	21.0	15.0	28.0	40.0	17.0	28.0	15.0	17.0	12.0	28.0	7.0	15.0	15.0	9.0	15.0	5.0	16.0	22.0	21.0	20.0
1091	69.359	12.67	-5.67	6.33	24.33	26.33	19.33	18.33	19.33	34.33	36.33	43.33	41.33	24.33	18.33	27.33	19.33	18.33	9.33	12.33	13.33	21.33	10.33	18.33	21.33	21.33	21.33	17.33
1098	69.808	9.67	4.33	1.33	19.33	17.33	17.33	17.33	24.33	26.33	28.33	30.33	27.33	15.33	20.33	25.33	10.33	16.33	36.33	7.33	16.33	24.33	15.33	28.33	8.33	19.33	25.33	24.33
1105	70.257	7.33	-1.33	4.67	8.67	21.67	21.67	24.67	16.67	30.67	26.67	20.67	24.67	9.67	8.67	23.67	19.67	13.67	17.67	13.67	14.67	22.67	23.67	9.67	13.67	14.67	13.67	14.67
1112	70.707	10.67	-1.67	-2.67	6.33	10.33	3.33	10.33	15.33	19.33	16.33	13.33	16.33	9.33	14.33	9.33	13.33	17.33	13.33	16.33	8.33	15.33	12.33	8.33	12.33	8.33	3.33	13.33
1119	71.156	10.0	5.0	1.0	2.0	4.0	22.0	14.0	11.0	10.0	25.0	18.0	12.0	11.0	16.0	16.0	8.0	3.0	12.0	14.0	10.0	20.0	9.0	10.0	5.0	14.0	13.0	6.0
1126	71.606	9.0	0.0	1.0	11.0	16.0	10.0	21.0	18.0	18.0	14.0	7.0	15.0	12.0	13.0	13.0	8.0	11.0	11.0	6.0	11.0	12.0	11.0	9.0	10.0	1.0	6.0	14.0
1133	72.055	13.33	-5.33	1.67	2.67	9.67	12.67	11.67	12.67	5.67	11.67	-0.33	5.67	3.67	8.67	7.67	15.67	13.67	1.67	1.67	11.67	1.67	9.67	8.67	1.67	4.67	3.67	18.67
1140	72.505	14.33	3.67	2.67	9.67	21.67	4.67	18.67	7.67	16.67	10.67	13.67	19.67	18.67	3.67	24.67	15.67	12.67	8.67	10.67	13.67	9.67	12.67	13.67	13.67	17.67	18.67	38.67
1147	72.955	19.67	4.33	-0.67	9.33	15.33	8.33	10.33	16.33	22.33	21.33	17.33	25.33	10.33	23.33	32.33	28.33	17.33	15.33	11.33	6.33	19.33	22.33	17.33	13.33	32.33	48.33	55.33
1154	73.405	19.33	-2.33	-1.33	1.67	7.67	10.67	14.67	11.67	8.67	11.67	23.67	28.67	28.67	13.67	23.67	12.67	13.67	14.67	14.67	15.67	15.67	11.67	22.67	2.67	22.67	36.67	32.67
1161	73.855	14.0	-6.0	8.0	-1.0	16.0	14.0	9.0	12.0	11.0	5.0	11.0	11.0	11.0	4.0	10.0	15.0	16.0	15.0	6.0	2.0	15.0	10.0	12.0	10.0	14.0	13.0	10.0
1168	74.306	14.0	-3.0	2.0	4.0	6.0	9.0	12.0	12.0	1.0	8.0	6.0	8.0	8.0	10.0	3.0	6.0	10.0	14.0	4.0	10.0	10.0	12.0	18.0	23.0	2.0	6.0	17.0
1175	74.756	18.0	6.0	9.0	23.0	37.0	33.0	51.0	19.0	37.0	8.0	12.0	13.0	34.0	27.0	25.0	28.0	28.0	49.0	33.0	33.0	26.0	25.0	25.0	19.0	20.0	23.0	29.0
1182	75.207	39.0	-6.0	7.0	33.0	48.0	66.0	93.0	67.0	56.0	64.0	58.0	75.0	84.0	53.0	48.0	16.0	68.0	124.0	132.0	68.0	32.0	27.0	37.0	37.0	59.0	45.0	47.0
1189	75.658	22.0	0.0	32.0	78.0	72.0	116.0	130.0	131.0	158.0	170.0	182.0	140.0	185.0	141.0	71.0	44.0	131.0	188.0	254.0	184.0	99.0	88.0	63.0	105.0	111.0	102.0	90.0
1196	76.109	10.0	4.0	33.0	85.0	126.0	127.0	120.0	136.0	137.0	197.0	220.0	161.0	141.0	124.0	102.0	65.0	105.0	194.0	203.0	203.0	140.0	127.0	115.0	143.0	133.0	113.0	96.0
1203	76.56	12.33	-2.33	22.67	34.67	91.67	77.67	82.67	138.67	72.67	88.67	164.67	164.67	86.67	92.67	58.67	56.67	70.67	124.67	141.67	103.67	141.67	161.67	162.67	112.67	81.67	61.67	35.67
1210	77.011	8.33	3.67	17.67	22.67	66.67	58.67	40.67	78.67	38.67	44.67	67.67	42.67	41.67	37.67	34.67	22.67	40.67	65.67	72.67	31.67	78.67	97.67	140.67	86.67	70.67	38.67	15.67
1217	77.463	13.33	2.67	-5.33	5.67	32.67	36.67	15.67	16.67	28.67	57.67	38.67	27.67	33.67	42.67	29.67	16.67	5.67	17.67	20.67	13.67	22.67	25.67	64.67	66.67	44.67	7.67	5.67
1224	77.915	12.33	-4.33	12.67	51.67	32.67	67.67	26.67	18.67	11.67	42.67	34.67	31.67	33.67	31.67	32.67	26.67	18.67	19.67	13.67	12.67	28.67	15.67	42.67	27.67	26.67	17.67	18.67
1231	78.366	8.0	6.0	45.0	106.0	81.0	115.0	53.0	58.0	37.0	49.0	38.0	35.0	36.0	36.0	34.0	41.0	23.0	32.0	32.0	30.0	32.0	23.0	28.0	30.0	38.0	33.0	31.0
1238	78.818	11.0	4.0	39.0	75.0	87.0	93.0	86.0	77.0	58.0	42.0	60.0	36.0	35.0	37.0	35.0	28.0	35.0	30.0	41.0	33.0	33.0	37.0	27.0	39.0	47.0	36.0	32.0
1245	79.271	12.67	5.33	66.33	45.33	52.33	50.33	86.33	78.33	67.33	64.33	81.33	34.33	40.33	40.33	34.33	20.33	34.33	27.33	36.33	26.33	45.33	38.33	36.33	32.33	46.33	37.33	43.33
1252	79.723	9.67	0.33	83.33	62.33	64.33	43.33	46.33	101.33	84.33	87.33	76.33	40.33	31.33	37.33	26.33	40.33	36.33	41.33	27.33	51.33	50.33	45.33	42.33	38.33	42.33	34.33	47.33
1259	80.175	12.33	-1.33	76.67	36.67	63.67	32.67	44.67	91.67	74.67	41.67	48.67	40.67	31.67	19.67	14.67	14.67	23.67	33.67	41.67	40.67	36.67	30.67	24.67	24.67	25.67	46.67	29.67
1266	80.628	14.67	0.33	45.33	12.33	38.33	29.33	33.33	75.33	51.33	23.33	13.33	19.33	15.33	8.33	12.33	12.33	11.33	24.33	23.33	22.33	24.33	10.33	16.33	12.33	13.33	28.33	31.33
1273	81.081	16.0	-2.0	12.0	12.0	19.0	22.0	13.0	37.0	39.0	10.0	12.0	13.0	14.0	16.0	5.0	11.0	4.0	9.0	15.0	12.0	19.0	9.0	16.0	9.0	18.0	16.0	17.0
1280	81.534	15.67	-10.67	7.33	23.33	16.33	22.33	13.33	20.33	13.33	13.33	11.33	10.33	13.33	8.33	18.33	10.33	16.33	10.33	9.33	13.33	2.33	2.33	11.33	17.33	10.33	11.33	8.33
1287	81.987	14.67	-4.67	7.33	7.33	0.33	6.33	6.33	16.33	15.33	6.33	14.33	14.33	10.33	7.33	9.33	6.33	8.33	11.33	15.33	9.33	0.33	13.33	3.33	9.33	5.33	13.33	11.33
1294	82.441	16.67	-2.67	1.33	7.33	9.33	6.33	5.33	16.33	11.33	17.33	11.33	5.33	8.33	17.33	10.33	7.33	5.33	12.33	3.33	1.33	-0.67	6.33	12.33	10.33	-0.67	9.33	5.33
1301	82.894	12.67	7.33	1.33	14.33	19.33	18.33	23.33	18.33	17.33	26.33	8.33	20.33	29.33	13.33	6.33	12.33	13.33	1.33	10.33	14.33	17.33	6.33	10.33	18.33	21.33	10.33	13.33
1308	83.348	16.33	-0.33	2.67	13.67	7.67	21.67	28.67	22.67	14.67	25.67	16.67	21.67	15.67	5.67	9.67	18.67	24.67	14.67	27.67	16.67	20.67	13.67	9.67	21.67	2.67	9.67	14.67
1315	83.802	18.33	5.67	10.67	29.67	19.67	32.67	22.67	13.67	23.67	14.67	23.67	14.67	10.67	4.67	23.67	15.67	9.67	15.67	13.67	19.67	19.67	17.67	19.67	16.67	15.67	7.67	16.67
1322	84.256	18.0	1.0	-2.0	5.0	32.0	27.0	37.0	35.0	33.0	29.0	24.0	19.0	32.0	21.0	26.0	17.0	32.0	21.0	17.0	22.0	16.0	19.0	12.0	17.0	17.0	11.0	16.0
1329	84.71	18.67	6.33	14.33	23.33	25.33	44.33	37.33	23.33	31.33	30.33	31.33	25.33	25.33	29.33	20.33	17.33	12.33	21.33	23.33	21.33	21.33	23.33	30.33	27.33	12.33	16.33	35.33
1336	85.165	33.33	-4.33	6.67	-0.33	12.67	26.67	30.67	13.67	30.67	16.67	16.67	25.67	19.67	17.67	15.67	13.67	25.67	6.67	7.67	12.67	17.67	13.67	19.67	6.67	19.67	20.67	9.67
1343	85.619	31.67	-14.67	-1.67	5.33	-2.67	22.33	12.33	16.33	16.33	14.33	0.33	11.33	6.33	1.33	13.33	8.33	22.33	11.33	14.33	14.33	24.33	18.33	8.33	18.33	9.33	16.33	10.33
1350	86.074	22.0	-4.0	6.0	-2.0	19.0	16.0	18.0	10.0	8.0	11.0	21.0	19.0	17.0	17.0	18.0	6.0	13.0	6.0	17.0	10.0	5.0	14.0	4.0	11.0	24.0	18.0	21.0
1357	86.529	17.0	-2.0	10.0	12.0	16.0	32.0	34.0	20.0	10.0	25.0	18.0	33.0	20.0	13.0	20.0	12.0	15.0	21.0	13.0	18.0	16.0	26.0	27.0	33.0	26.0	22.0	14.0
1364	86.985	19.33	-2.33	3.67	15.67	13.67	12.67	22.67	12.67	21.67	23.67	15.67	19.67	31.67	7.67	20.67	11.67	22.67	19.67	14.67	17.67	10.67	9.67	19.67	28.67	9.67	19.67	20.67
1371	87.44	25.0	-7.0	1.0	8.0	8.0	10.0	6.0	8.0	21.0	21.0	14.0	38.0	26.0	14.0	9.0	24.0	10.0	26.0	16.0	16.0	4.0	11.0	5.0	15.0	10.0	12.0	7.0
1378	87.896	21.0	4.0	-7.0	7.0	13.0	13.0	28.0	20.0	21.0	23.0	24.0	25.0	32.0	21.0	25.0	5.0	28.0	21.0	22.0	6.0	20.0	10.0	18.0	13.0	13.0	21.0	14.0
1385	88.352	19.33	1.67	-5.33	14.67	15.67	22.67	7.67	11.67	21.67	14.67	20.67	18.67	5.67	11.67	12.67	9.67	11.67	11.67	9.67	7.67	12.67	6.67	19.67	14.67	14.67	8.67	13.67
1392	88.808	18.0	0.0	8.0	12.0	18.0	10.0	18.0	16.0	8.0	17.0	5.0	28.0	12.0	18.0	17.0	7.0	19.0	7.0	15.0	5.0	16.0	5.0	13.0	9.0	14.0	13.0	18.0
1399	89.264	22.33	3.67	-4.33	0.67	4.67	11.67	15.67	11.67	11.67	9.67	7.67	9.67	13.67	10.67	11.67	2.67	8.67	11.67	7.67	5.67	6.67	10.67	3.67	-0.33	6.67	9.67	3.67
1406	89.72	19.0	-5.0	6.0	19.0	9.0	10.0	13.0	4.0	11.0	2.0	16.0	3.0	24.0	38.0	33.0	33.0	8.0	20.0	6.0	3.0	15.0	10.0	3.0	5.0	9.0	7.0	18.0
1413	90.177	24.33	-1.33	-7.33	-1.33	1.67	-4.33	15.67	21.67	18.67	11.67	11.67	-2.33	4.67	15.67	44.67	22.67	7.67	11.67	13.67	5.67	3.67	19.67	3.67	3.67	7.67	15.67	11.67
1420	90.634	19.0	1.0	-4.0	8.0	15.0	11.0	14.0	14.0	23.0	11.0	17.0	13.0	5.0	23.0	23.0	22.0	14.0	10.0	6.0	12.0	6.0	8.0	14.0	6.0	11.0	12.0	1.0
1427	91.091	20.67	-3.67	-0.67	-4.67	0.33	3.33	28.33	8.33	17.33	11.33	5.33	9.33	10.33	15.33	12.33	9.33	13.33	4.33	7.33	22.33	12.33	5.33	7.33	3.33	7.33	4.33	4.33
1434	91.549	23.33	-6.33	3.67	8.67	4.67	9.67	22.67	6.67	15.67	15.67	2.67	2.67	6.67	16.67	4.67	10.67	7.67	10.67	8.67	12.67	-0.33	4.67	9.67	8.67	2.67	3.67	11.67
1441	92.006	19.0	5.0	5.0	4.0	13.0	24.0	19.0	18.0	16.0	12.0	10.0	29.0	18.0	15.0	0.0	11.0	19.0	21.0	26.0	15.0	13.0	17.0	8.0	7.0	9.0	20.0	1.0
1448	92.464	26.33	-4.33	-3.33	4.67	9.67	6.67	14.67	12.67	17.67	10.67	3.67	10.67	4.67	7.67	-5.33	11.67	4.67	7.67	8.67	5.67	8.67	9.67	9.67	3.67	10.67	8.67	5.67
1455	92.922	22.0	2.0	6.0	3.0	20.0	8.0	16.0	21.0	17.0	7.0	-1.0	13.0	9.0	19.0	14.0	6.0	21.0	30.0	19.0	11.0	16.0	15.0	4.0	19.0	11.0	0.0	10.0
1462	93.38	24.67	0.33	0.33	6.33	0.33	4.33	10.33	3.33	5.33	1.33	5.33	19.33	5.33	2.33	7.33	11.33	3.33	5.33	2.33	16.33	5.33	14.33	1.33	-0.67	14.33	12.33	0.33
1469	93.839	24.67	3.33	-2.67	7.33	2.33	22.33	7.33	13.33	7.33	5.33	4.33	11.33	1.33	5.33	10.33	6.33	2.33	1.33	-2.67	7.33	8.33	8.33	11.33	11.33	10.33	15.33	8.33
1476	94.297	21.33	-1.33	1.67	16.67	7.67	7.67	2.67	9.67	20.67	4.67	9.67	13.67	9.67	16.67	8.67	11.67	21.67	13.67	13.67	16.67	17.67	14.67	-2.33	9.67	14.67	19.67	17.67
1483	94.756	24.67	-7.67	-1.67	2.33	2.33	5.33	6.33	13.33	4.33	11.33	7.33	9.33	12.33	9.33	7.33	-3.67	7.33	7.33	19.33	4.33	4.33	16.33	3.33	4.33	6.33	6.33	18.33
1490	95.215	27.67	-5.67	-4.67	-0.67	10.33	1.33	6.33	-5.67	15.33	6.33	7.33	4.33	10.33	6.33	-2.67	15.33	2.33	5.33	1.33	4.33	7.33	4.33	10.33	11.33	12.33	9.33	1.33
1497	95.675	24.33	-7.33	12.67	3.67	0.67	10.67	3.67	4.67	9.67	0.67	12.67	12.67	8.67	21.67	6.67	12.67	3.67	3.67	3.67	13.67	13.67	15.67	7.67	4.67	13.67	-3.33	7.67
1504	96.134	22.0	8.0	5.0	9.0	6.0	25.0	5.0	6.0	14.0	16.0	12.0	2.0	11.0	22.0	11.0	17.0	10.0	17.0	11.0	16.0	10.0	12.0	29.0	5.0	18.0	16.0	18.0
1511	96.594	23.33	-0.33	4.67	3.67	16.67	-0.33	5.67	10.67	6.67	17.67	11.67	8.67	6.67	11.67	7.67	0.67	16.67	5.67	6.67	6.67	7.67	13.67	21.67	14.67	18.67	9.67	0.67
1518	97.054	27.67	-2.67	-1.67	-2.67	11.33	9.33	4.33	7.33	11.33	1.33	-3.67	7.33	23.33	-1.67	2.33	1.33	9.33	10.33	3.33	5.33	5.33	-0.67	9.33	8.33	13.33	3.33	18.33
1525	97.514	27.0	0.0	-1.0	11.0	17.0	10.0	1.0	8.0	-1.0	5.0	13.0	4.0	20.0	13.0	3.0	0.0	2.0	12.0	4.0	15.0	15.0	3.0	20.0	-7.0	0.0	13.0	15.0
1532	97.975	32.0	4.0	4.0	4.0	-1.0	-7.0	-6.0	-1.0	9.0	14.0	4.0	2.0	5.0	0.0	12.0	0.0	4.0	6.0	6.0	7.0	-4.0	18.0	5.0	3.0	-7.0	-6.0	11.0
1539	98.436	28.33	7.67	-1.33	-0.33	5.67	13.67	6.67	14.67	6.67	-0.33	7.67	12.67	15.67	8.67	0.67	11.67	1.67	1.67	0.67	13.67	0.67	13.67	9.67	12.67	7.67	8.67	5.67
1546	98.897	27.67	8.33	2.33	3.33	10.33	11.33	13.33	4.33	-2.67	5.33	11.33	15.33	19.33	3.33	4.33	-5.67	6.33	11.33	11.33	14.33	21.33	8.33	17.33	19.33	19.33	5.33	21.33
1553	99.358	28.33	-5.33	0.67	17.67	4.67	8.67	9.67	10.67	9.67	8.67	-2.33	16.67	16.67	11.67	4.67	18.67	1.67	1.67	16.67	3.67	11.67	4.67	12.67	14.67	13.67	5.67	-1.33
1560	99.82	31.33	-3.33	3.67	-1.33	-0.33	-3.33	-0.33	3.67	2.67	-3.33	-2.33	-4.33	13.67	7.67	4.67	17.67	15.67	7.67	-1.33	-1.33	7.67	4.67	10.67	6.67	-2.33	15.67	-3.33
1567	100.281	25.0	-1.0	-4.0	8.0	22.0	10.0	18.0	14.0	18.0	14.0	12.0	25.0	20.0	19.0	24.0	16.0	15.0	22.0	29.0	19.0	20.0	13.0	5.0	19.0	12.0	16.0	19.0
1574	100.743	26.67	-0.67	-10.67	1.33	4.33	3.33	5.33	4.33	3.33	6.33	11.33	9.33	8.33	10.33	27.33	6.33	8.33	22.33	17.33	25.33	32.33	21.33	18.33	6.33	19.33	17.33	13.33
1581	101.206	28.33	-3.33	-1.33	1.67	7.67	9.67	8.67	5.67	6.67	19.67	10.67	7.67	15.67	10.67	-4.33	19.67	26.67	13.67	5.67	20.67	16.67	15.67	13.67	15.67	14.67	10.67	2.67
1588	101.668	25.0	7.0	-9.0	0.0	10.0	3.0	20.0	16.0	10.0	7.0	8.0	7.0	12.0	23.0	6.0	11.0	11.0	7.0	14.0	17.0	23.0	13.0	13.0	10.0	20.0	11.0	25.0
1595	102.131	29.0	-11.0	-9.0	10.0	-2.0	15.0	5.0	4.0	7.0	6.0	11.0	3.0	7.0	5.0	7.0	8.0	2.0	5.0	15.0	10.0	11.0	8.0	4.0	20.0	5.0	11.0	15.0
1602	102.594	25.33	4.67	-0.33	11.67	5.67	14.67	9.67	28.67	11.67	21.67	18.67	2.67	8.67	7.67	21.67	14.67	13.67	9.67	13.67	6.67	9.67	10.67	1.67	5.67	11.67	-1.33	12.67
1609	103.057	26.67	-1.67	-0.67	5.33	5.33	-5.67	7.33	10.33	12.33	11.33	3.33	13.33	1.33	0.33	3.33	3.33	5.33	2.33	7.33	18.33	9.33	14.33	22.33	21.33	16.33	17.33	6.33
1616	103.521	29.67	-1.67	0.33	7.33	7.33	5.33	12.33	4.33	1.33	9.33	4.33	-2.67	-0.67	-0.67	3.33	7.33	7.33	4.33	10.33	-2.67	-5.67	5.33	9.33	7.33	8.33	-2.67	4.33
1623	103.985	23.0	5.0	13.0	7.0	16.0	17.0	3.0	13.0	2.0	15.0	12.0	6.0	14.0	23.0	11.0	11.0	-2.0	16.0	12.0	6.0	7.0	11.0	27.0	5.0	14.0	6.0	3.0
1630	104.449	27.33	-4.33	7.67	5.67	17.67	13.67	8.67	3.67	12.67	7.67	6.67	5.67	9.67	8.67	-3.33	2.67	3.67	7.67	18.67	4.67	4.67	19.67	7.67	3.67	3.67	-3.33	9.67
1637	104.913	27.67	-0.67	10.33	3.33	11.33	5.33	-1.67	3.33	-4.67	-2.67	5.33	4.33	13.33	-1.67	0.33	2.33	2.33	-1.67	5.33	1.33	6.33	15.33	18.33	9.33	6.33	2.33	4.33
1644	105.378	24.0	-4.0	15.0	-2.0	9.0	11.0	4.0	-1.0	14.0	19.0	-11.0	9.0	1.0	10.0	5.0	10.0	1.0	6.0	-2.0	12.0	18.0	15.0	17.0	1.0	6.0	2.0	9.0
1651	105.843	26.33	0.67	-0.33	-6.33	0.67	6.67	1.67	-7.33	10.67	3.67	4.67	-5.33	3.67	11.67	-1.33	-5.33	-8.33	1.67	1.67	4.67	-3.33	0.67	3.67	-4.33	-0.33	5.67	9.67
1658	106.308	22.0	8.0	-5.0	-2.0	9.0	-2.0	2.0	11.0	7.0	4.0	17.0	8.0	16.0	5.0	13.0	7.0	1.0	6.0	2.0	6.0	0.0	8.0	8.0	13.0	5.0	5.0	3.0
1665	106.773	24.0	-7.0	-4.0	1.0	7.0	-1.0	3.0	9.0	5.0	5.0	14.0	6.0	7.0	10.0	5.0	2.0	14.0	7.0	12.0	11.0	0.0	-7.0	-9.0	12.0	7.0	9.0	7.0
1672	107.239	19.0	-1.0	1.0	15.0	9.0	21.0	6.0	20.0	8.0	5.0	9.0	14.0	7.0	13.0	12.0	14.0	7.0	15.0	4.0	9.0	7.0	13.0	3.0	9.0	5.0	2.0	8.0
1679	107.705	23.33	-6.33	-7.33	-3.33	-3.33	5.67	-0.33	3.67	12.67	7.67	10.67	5.67	3.67	8.67	4.67	7.67	-3.33	-1.33	-5.33	9.67	11.67	-2.33	-2.33	0.67	1.67	2.67	15.67
1686	108.171	26.33	6.67	-5.33	-3.33	-10.33	2.67	-8.33	-0.33	-7.33	0.67	-3.33	-3.33	-4.33	-2.33	2.67	-3.33	-6.33	5.67	8.67	4.67	5.67	-6.33	-6.33	-2.33	7.67	8.67	1.67
1693	108.638	22.0	-5.0	0.0	-1.0	1.0	-10.0	1.0	0.0	-1.0	2.0	0.0	6.0	-1.0	-6.0	2.0	3.0	5.0	4.0	-3.0	6.0	3.0	4.0	1.0	1.0	7.0	15.0	9.0
1700	109.105	24.67	-0.67	-5.67	-12.67	-5.67	4.33	2.33	3.33	4.33	2.33	0.33	-0.67	-2.67	10.33	-3.67	7.33	-0.67	-3.67	6.33	1.33	-4.67	7.33	-7.67	4.33	4.33	4.33	-6.67
1707	109.572	17.67	12.33	5.33	4.33	6.33	6.33	8.33	10.33	4.33	-1.67	1.33	2.33	8.33	12.33	7.33	12.33	8.33	-5.67	6.33	8.33	6.33	7.33	5.33	9.33	8.33	8.33	5.33
1714	110.039	17.33	4.67	5.67	7.67	10.67	-1.33	-2.33	2.67	3.67	0.67	7.67	3.67	-1.33	-0.33	-0.33	2.67	7.67	9.67	3.67	10.67	6.67	9.67	7.67	9.67	-0.33	7.67	8.67
1721	110.507	20.67	0.33	-0.67	0.33	-3.67	-3.67	4.33	8.33	-0.67	-0.67	3.33	3.33	-9.67	8.33	7.33	6.33	-0.67	1.33	1.33	-3.67	9.33	7.33	-5.67	4.33	2.33	3.33	8.33
1728	110.975	18.0	4.0	7.0	3.0	-2.0	5.0	1.0	9.0	15.0	8.0	19.0	-7.0	8.0	18.0	2.0	2.0	6.0	15.0	10.0	6.0	7.0	-5.0	1.0	4.0	14.0	12.0	5.0
1735	111.443	22.33	-1.33	-5.33	0.67	2.67	5.67	-8.33	-6.33	10.67	-1.33	-1.33	6.67	0.67	-8.33	2.67	-3.33	0.67	-3.33	0.67	-1.33	2.67	0.67	1.67	10.67	-6.33	2.67	12.67
1742	111.912	15.33	7.67	8.67	7.67	1.67	3.67	5.67	10.67	5.67	2.67	10.67	9.67	7.67	1.67	-2.33	5.67	12.67	5.67	8.67	17.67	5.67	15.67	13.67	8.67	11.67	-1.33	14.67
1749	112.38	20.0	-6.0	-2.0	-7.0	3.0	-2.0	-1.0	4.0	3.0	5.0	5.0	6.0	2.0	8.0	9.0	9.0	-2.0	-2.0	3.0	0.0	-5.0	0.0	9.0	0.0	6.0	12.0	6.0
1756	112.85	17.67	1.33	-3.67	5.33	4.33	1.33	10.33	3.33	9.33	4.33	8.33	4.33	0.33	9.33	2.33	3.33	10.33	7.33	6.33	7.33	11.33	5.33	0.33	4.33	3.33	-2.67	3.33
1763	113.319	13.67	5.33	7.33	8.33	3.33	9.33	7.33	7.33	16.33	9.33	7.33	9.33	2.33	10.33	3.33	11.33	20.33	0.33	1.33	10.33	10.33	10.33	5.33	6.33	11.33	12.33	10.33
1770	113.789	14.67	3.33	3.33	4.33	10.33	6.33	18.33	5.33	-0.67	2.33	2.33	7.33	9.33	0.33	5.33	3.33	2.33	3.33	7.33	14.33	4.33	12.33	6.33	7.33	2.33	10.33	2.33
1777	114.259	19.67	-6.67	-6.67	-3.67	0.33	5.33	-1.67	-1.67	-0.67	-0.67	-1.67	-0.67	-0.67	5.33	4.33	3.33	-7.67	-8.67	-5.67	10.33	11.33	-3.67	12.33	-1.67	11.33	1.33	0.33
1784	114.729	15.33	-2.33	7.67	4.67	0.67	2.67	9.67	11.67	-1.33	11.67	1.67	3.67	7.67	-1.33	-0.33	7.67	1.67	-2.33	-1.33	1.67	12.67	1.67	10.67	0.67	12.67	9.67	-3.33
1791	115.2	15.67	-2.67	-0.67	-2.67	13.33	2.33	9.33	5.33	-3.67	1.33	-3.67	-1.67	2.33	1.33	0.33	4.33	7.33	-4.67	5.33	6.33	2.33	4.33	3.33	9.33	14.33	4.33	-1.67
1798	115.671	15.33	8.67	-5.33	-1.33	4.67	-1.33	-2.33	3.67	2.67	2.67	1.67	2.67	9.67	4.67	-1.33	5.67	-1.33	4.67	6.67	-5.33	-0.33	7.67	2.67	4.67	2.67	4.67	3.67
1805	116.142	16.0	-1.0	0.0	4.0	3.0	-1.0	8.0	5.0	3.0	-4.0	4.0	-2.0	10.0	8.0	0.0	3.0	9.0	2.0	4.0	-2.0	5.0	8.0	4.0	0.0	3.0	5.0	11.0
1812	116.614	13.67	2.33	2.33	-2.67	-2.67	2.33	5.33	3.33	3.33	-1.67	3.33	8.33	4.33	-2.67	3.33	6.33	3.33	9.33	-2.67	6.33	3.33	0.33	8.33	2.33	3.33	-2.67	6.33
1819	117.086	15.33	-1.33	3.67	-1.33	-1.33	0.67	5.67	-9.33	5.67	-3.33	-6.33	0.67	-0.33	1.67	3.67	1.67	6.67	-3.33	0.67	1.67	1.67	1.67	3.67	6.67	-1.33	8.67	8.67
1826	117.558	12.33	-0.33	0.67	1.67	2.67	5.67	1.67	5.67	3.67	4.67	-0.33	4.67	3.67	-2.33	-0.33	12.67	6.67	-2.33	8.67	5.67	2.67	1.67	0.67	9.67	11.67	5.67	5.67
1833	118.03	13.33	4.67	-5.33	-2.33	-3.33	3.67	-3.33	3.67	10.67	-0.33	5.67	-0.33	-3.33	1.67	3.67	8.67	4.67	3.67	1.67	-6.33	11.67	5.67	8.67	6.67	2.67	-2.33	-1.33
1840	118.503	15.33	-5.33	-4.33	-3.33	-1.33	-5.33	4.67	7.67	2.67	3.67	0.67	-1.33	-4.33	0.67	1.67	0.67	0.67	-4.33	4.67	-1.33	6.67	6.67	4.67	7.67	5.67	9.67	1.67
1847	118.976	14.67	-6.67	-0.67	1.33	-2.67	-5.67	6.33	6.33	2.33	5.33	-5.67	-0.67	7.33	-1.67	-0.67	4.33	3.33	3.33	-5.67	2.33	-9.67	1.33	-4.67	6.33	3.33	3.33	4.33
1854	119.45	10.67	1.33	-8.67	11.33	2.33	10.33	3.33	4.33	2.33	7.33	5.33	5.33	6.33	2.33	9.33	3.33	14.33	12.33	5.33	2.33	3.33	8.33	7.33	3.33	6.33	-1.67	11.33
1861	119.924	11.0	0.0	4.0	0.0	-2.0	5.0	2.0	-1.0	5.0	7.0	10.0	2.0	6.0	14.0	11.0	4.0	11.0	0.0	-2.0	3.0	4.0	5.0	-2.0	3.0	7.0	1.0	12.0
1868	120.398	15.0	-2.0	3.0	1.0	-4.0	-3.0	-4.0	6.0	1.0	-4.0	0.0	0.0	0.0	3.0	-3.0	4.0	-4.0	-6.0	2.0	2.0	4.0	2.0	3.0	-2.0	0.0	4.0	4.0
1875	120.872	10.67	2.33	-0.67	4.33	-1.67	2.33	8.33	6.33	3.33	-0.67	0.33	5.33	0.33	4.33	11.33	-2.67	6.33	-0.67	6.33	9.33	10.33	1.33	5.33	6.33	7.33	1.33	4.33
1882	121.347	11.67	-2.67	0.33	5.33	0.33	0.33	-0.67	5.33	3.33	0.33	2.33	-1.67	0.33	3.33	-2.67	4.33	-3.67	-1.67	2.33	1.33	7.33	8.33	4.33	2.33	6.33	0.33	6.33
1889	121.822	9.67	-1.67	1.33	1.33	0.33	8.33	1.33	6.33	0.33	8.33	8.33	5.33	2.33	5.33	10.33	4.33	9.33	5.33	5.33	5.33	12.33	9.33	9.33	12.33	3.33	4.33	6.33
1896	122.298	10.67	-2.67	3.33	9.33	5.33	2.33	2.33	5.33	3.33	6.33	0.33	5.33	3.33	-0.67	2.33	0.33	7.33	3.33	4.33	6.33	1.33	-0.67	-3.67	9.33	4.33	1.33	10.33
1903	122.773	7.67	9.33	4.33	8.33	6.33	5.33	4.33	8.33	3.33	7.33	3.33	-2.67	3.33	7.33	10.33	7.33	1.33	8.33	3.33	8.33	3.33	8.33	5.33	4.33	11.33	3.33	5.33
1910	123.25	8.67	-1.67	0.33	7.33	2.33	9.33	8.33	11.33	0.33	8.33	-0.67	1.33	-2.67	1.33	-1.67	-0.67	4.33	3.33	8.33	2.33	5.33	0.33	6.33	12.33	0.33	3.33	3.33
1917	123.726	8.33	0.67	1.67	2.67	-2.33	1.67	0.67	0.67	12.67	3.67	2.67	9.67	2.67	5.67	7.67	4.67	7.67	0.67	14.67	-0.33	11.67	5.67	1.67	8.67	1.67	10.67	5.67
1924	124.203	6.33	2.67	10.67	5.67	7.67	6.67	13.67	4.67	9.67	4.67	12.67	-2.33	7.67	2.67	3.67	5.67	-1.33	8.67	0.67	2.67	9.67	-0.33	2.67	3.67	5.67	6.67	7.67
1931	124.68	9.67	2.33	6.33	2.33	-3.67	-2.67	3.33	-3.67	2.33	-0.67	3.33	6.33	0.33	1.33	-0.67	-0.67	1.33	0.33	3.33	-0.67	0.33	2.33	-1.67	3.33	4.33	10.33	3.33
1938	125.158	8.33	0.67	-4.33	7.67	3.67	-4.33	1.67	4.67	3.67	6.67	-1.33	1.67	-2.33	6.67	4.67	1.67	8.67	5.67	-0.33	-3.33	4.67	1.67	2.67	6.67	3.67	-0.33	2.67
1945	125.635	12.33	-2.33	5.67	0.67	3.67	2.67	2.67	-4.33	-4.33	0.67	-3.33	-2.33	3.67	-1.33	1.67	-1.33	-2.33	-2.33	1.67	2.67	2.67	1.67	-3.33	-7.33	-1.33	9.67	-1.33
1952	126.114	10.33	0.67	-2.33	2.67	-2.33	2.67	0.67	5.67	3.67	-2.33	4.67	-2.33	2.67	7.67	0.67	1.67	3.67	7.67	2.67	1.67	-0.33	2.67	-4.33	4.67	4.67	3.67	-0.33
1959	126.592	11.67	0.33	-1.67	5.33	0.33	0.33	-1.67	2.33	-0.67	-2.67	-2.67	1.33	-3.67	0.33	-0.67	-7.67	-3.67	1.33	-1.67	-2.67	6.33	6.33	-2.67	3.33	-0.67	-4.67	3.33
1966	127.071	8.33	-5.33	4.67	-0.33	3.67	1.67	3.67	2.67	1.67	5.67	5.67	8.67	6.67	4.67	6.67	-0.33	6.67	0.67	-1.33	3.67	8.67	0.67	1.67	-1.33	4.67	7.67	2.67
1973	127.55	10.0	-4.0	-1.0	-1.0	0.0	0.0	2.0	1.0	0.0	1.0	6.0	3.0	8.0	3.0	3.0	5.0	2.0	2.0	1.0	-2.0	3.0	8.0	7.0	6.0	3.0	-6.0	4.0
1980	128.03	8.33	-3.33	7.67	-2.33	3.67	2.67	6.67	-0.33	1.67	0.67	7.67	5.67	7.67	2.67	-0.33	13.67	7.67	0.67	2.67	3.67	0.67	11.67	9.67	0.67	-1.33	2.67	0.67
1987	128.51	11.33	0.67	-6.33	-5.33	0.67	-2.33	-6.33	-1.33	1.67	-2.33	2.67	-4.33	4.67	3.67	1.67	1.67	-2.33	-4.33	-4.33	-1.33	-3.33	3.67	-7.33	0.67	0.67	-1.33	-3.33
1994	128.99	12.67	-2.67	-8.67	-8.67	-5.67	-6.67	-0.67	-0.67	4.33	-5.67	-5.67	0.33	-6.67	-1.67	-3.67	1.33	-2.67	-2.67	-3.67	1.33	-2.67	-1.67	0.33	2.33	-0.67	-0.67	1.33
2001	129.471	7.0	5.0	4.0	2.0	4.0	8.0	2.0	0.0	2.0	2.0	2.0	3.0	0.0	6.0	0.0	0.0	3.0	4.0	2.0	0.0	3.0	3.0	1.0	5.0	3.0	1.0	3.0
2008	129.952	7.67	-2.67	-0.67	7.33	4.33	-0.67	6.33	2.33	-1.67	-0.67	-0.67	-0.67	0.33	5.33	0.33	-5.67	2.33	-3.67	-1.67	6.33	-2.67	4.33	1.33	1.33	5.33	0.33	2.33
2015	130.433	7.33	0.67	2.67	-0.33	-2.33	4.67	5.67	1.67	3.67	8.67	0.67	-0.33	2.67	2.67	0.67	-0.33	-0.33	3.67	1.67	8.67	3.67	6.67	5.67	4.67	2.67	0.67	8.67
2022	130.915	8.33	-1.33	-0.33	1.67	3.67	-2.33	1.67	-2.33	-2.33	-0.33	-0.33	-1.33	4.67	10.67	-0.33	1.67	5.67	2.67	-1.33	-0.33	-6.33	5.67	4.67	-1.33	9.67	5.67	5.67
2029	131.397	6.67	-0.67	1.33	-1.67	5.33	4.33	0.33	3.33	-1.67	4.33	6.33	1.33	2.33	2.33	-1.67	7.33	0.33	4.33	-0.67	4.33	0.33	0.33	4.33	1.33	2.33	9.33	10.33
2036	131.879	7.33	1.67	-1.33	-0.33	5.67	4.67	-0.33	3.67	1.67	0.67	1.67	3.67	-2.33	3.67	3.67	4.67	1.67	1.67	1.67	0.67	-1.33	2.67	3.67	-2.33	8.67	0.67	2.67
2043	132.362	8.0	-2.0	-3.0	-5.0	-3.0	-2.0	-1.0	-4.0	1.0	4.0	4.0	-4.0	-3.0	-2.0	0.0	5.0	0.0	-3.0	1.0	0.0	-1.0	-2.0	1.0	0.0	3.0	-1.0	-1.0
2047	132.638	7.67	1.33	-2.67	-1.67	-0.67	-2.67	-1.67	4.33	6.33	0.33	4.33	-1.67	1.33	0.33	-1.67	2.33	6.33	1.33	-0.67	-2.67	-4.67	6.33	2.33	9.33	3.33	-1.67	2.33