File: EDX Back Ups and Old Files/EDX Processed Data/Low pH SF 25C 14d.txt
Name: Low pH SF 25C 14d
Number of Scans: 29
Positions: [-13.0, -12.75, -12.5, -12.25, -12.0, -11.75, -11.5, -11.25, -11.0, -10.75, -10.5, -10.25, -10.0, -9.75, -9.5, -9.25, -9.0, -8.75, -8.5, -8.25, -8.0, -7.75, -7.5, -7.25, -7.0, -6.75, -6.5, -6.25, -6.0]
Points per Scan: 2048
Sample Edge: 3
Scans Off Sample: [0, 1, 2]
Conversion Features: [(275, 17444.3), (309, 19608.3), (913, 57981.7), (934, 59318.24), (1058, 67244.3)]
Degree of Fit: 3
Fit Coeffecients: [ 8.59183e-07 -0.001482  64.3003 -144.207]
pH: Low
Steel Fiber: True
Aging Temp.: 25
Aging Atm.: 100% CO2
Aging Humidity: None
Aging Time: 14

*********
#Bins	Energy [keV]	Avg. Background	-12.25	-12.0	-11.75	-11.5	-11.25	-11.0	-10.75	-10.5	-10.25	-10.0	-9.75	-9.5	-9.25	-9.0	-8.75	-8.5	-8.25	-8.0	-7.75	-7.5	-7.25	-7.0	-6.75	-6.5	-6.25	-6.0
6	0.242	1929.0	-64.0	126.0	-39.0	-91.0	-28.0	6.0	-3.0	-93.0	-126.0	-55.0	-45.0	-18.0	28.0	-27.0	-14.0	-60.0	10.0	-24.0	-21.0	-64.0	-69.0	-140.0	-20.0	6.0	-27.0	-48.0
13	0.691	1261.0	10.0	24.0	23.0	41.0	-22.0	-34.0	16.0	8.0	56.0	-43.0	-12.0	11.0	25.0	8.0	-46.0	-70.0	66.0	61.0	9.0	-50.0	-16.0	62.0	39.0	53.0	32.0	31.0
20	1.141	315.0	43.0	-18.0	30.0	1.0	-2.0	-19.0	40.0	-16.0	2.0	-10.0	44.0	21.0	16.0	30.0	0.0	-37.0	17.0	18.0	-4.0	18.0	19.0	10.0	12.0	13.0	7.0	-9.0
27	1.591	56.67	10.33	-5.67	-2.67	-10.67	-6.67	-16.67	-18.67	7.33	-7.67	2.33	1.33	-5.67	-6.67	14.33	-11.67	-4.67	7.33	-2.67	-3.67	-6.67	-4.67	-1.67	-10.67	-2.67	9.33	-4.67
34	2.04	10.33	1.67	-5.33	-1.33	-7.33	-4.33	-4.33	-0.33	-4.33	-2.33	-5.33	-5.33	-9.33	-5.33	-8.33	-3.33	-0.33	-6.33	-1.33	-4.33	-6.33	-0.33	-4.33	-7.33	-1.33	0.67	-1.33
41	2.49	1.0	-1.0	-1.0	1.0	1.0	-1.0	0.0	0.0	-1.0	-1.0	0.0	2.0	-1.0	-1.0	0.0	0.0	0.0	-1.0	2.0	-1.0	0.0	-1.0	-1.0	0.0	2.0	-1.0	-1.0
48	2.939	0.33	-0.33	-0.33	-0.33	-0.33	-0.33	0.67	0.67	0.67	-0.33	-0.33	-0.33	0.67	-0.33	-0.33	-0.33	-0.33	-0.33	0.67	1.67	0.67	0.67	-0.33	-0.33	1.67	0.67	0.67
55	3.388	0.33	-0.33	-0.33	-0.33	0.67	0.67	-0.33	-0.33	1.67	0.67	-0.33	1.67	-0.33	0.67	-0.33	-0.33	-0.33	0.67	-0.33	-0.33	0.67	-0.33	0.67	0.67	-0.33	0.67	1.67
62	3.837	0.0	0.0	1.0	0.0	0.0	1.0	0.0	0.0	0.0	0.0	1.0	1.0	0.0	0.0	0.0	0.0	0.0	1.0	0.0	0.0	1.0	0.0	1.0	0.0	0.0	1.0	0.0
69	4.286	0.33	-0.33	0.67	-0.33	-0.33	-0.33	-0.33	0.67	0.67	-0.33	-0.33	-0.33	0.67	-0.33	0.67	-0.33	-0.33	-0.33	-0.33	-0.33	1.67	-0.33	-0.33	-0.33	-0.33	1.67	-0.33
76	4.734	0.67	-0.67	-0.67	0.33	0.33	-0.67	-0.67	-0.67	-0.67	1.33	-0.67	0.33	-0.67	0.33	-0.67	-0.67	-0.67	-0.67	-0.67	-0.67	1.33	0.33	-0.67	0.33	-0.67	0.33	-0.67
83	5.183	0.33	-0.33	-0.33	-0.33	0.67	0.67	-0.33	0.67	-0.33	-0.33	-0.33	-0.33	-0.33	-0.33	-0.33	0.67	-0.33	0.67	-0.33	-0.33	0.67	0.67	-0.33	1.67	-0.33	-0.33	-0.33
90	5.631	0.33	-0.33	2.67	-0.33	-0.33	-0.33	-0.33	0.67	2.67	0.67	-0.33	0.67	0.67	-0.33	-0.33	-0.33	-0.33	0.67	1.67	0.67	0.67	-0.33	1.67	1.67	0.67	1.67	-0.33
97	6.08	0.67	-0.67	-0.67	-0.67	-0.67	-0.67	0.33	0.33	1.33	-0.67	-0.67	-0.67	0.33	0.33	1.33	-0.67	0.33	0.33	-0.67	-0.67	0.33	0.33	0.33	2.33	0.33	0.33	0.33
104	6.528	2.0	0.0	0.0	0.0	-1.0	-1.0	2.0	-1.0	0.0	-2.0	0.0	-2.0	-1.0	-2.0	-1.0	0.0	-1.0	-1.0	-1.0	0.0	-2.0	3.0	-1.0	-2.0	0.0	-1.0	-1.0
111	6.976	2.67	-2.67	-2.67	-1.67	-1.67	-1.67	1.33	0.33	-2.67	-1.67	-1.67	1.33	-0.67	-0.67	1.33	1.33	-0.67	0.33	-0.67	2.33	-1.67	0.33	5.33	-1.67	1.33	0.33	-2.67
118	7.424	2.0	1.0	2.0	3.0	0.0	3.0	3.0	3.0	1.0	-1.0	1.0	0.0	3.0	1.0	2.0	2.0	1.0	0.0	1.0	2.0	-1.0	1.0	2.0	6.0	2.0	4.0	2.0
125	7.872	5.0	0.0	-2.0	-1.0	-3.0	7.0	4.0	-3.0	1.0	1.0	4.0	-2.0	-2.0	-2.0	1.0	3.0	1.0	-2.0	1.0	-2.0	0.0	0.0	6.0	-1.0	0.0	2.0	1.0
132	8.32	5.0	-2.0	-1.0	0.0	-3.0	1.0	-1.0	2.0	1.0	1.0	1.0	1.0	3.0	6.0	-1.0	4.0	2.0	5.0	4.0	5.0	0.0	-1.0	0.0	9.0	2.0	4.0	0.0
139	8.767	6.0	0.0	3.0	2.0	1.0	3.0	-2.0	-1.0	0.0	4.0	4.0	4.0	9.0	-3.0	7.0	2.0	4.0	3.0	5.0	2.0	8.0	-2.0	3.0	3.0	4.0	8.0	8.0
146	9.215	8.67	-4.67	4.33	2.33	0.33	0.33	3.33	0.33	1.33	10.33	0.33	2.33	1.33	-0.67	0.33	1.33	-0.67	1.33	1.33	0.33	1.33	3.33	2.33	4.33	-3.67	1.33	-1.67
153	9.662	8.33	-6.33	-1.33	-1.33	4.67	0.67	5.67	-1.33	5.67	3.67	2.67	1.67	1.67	9.67	9.67	5.67	9.67	6.67	3.67	7.67	3.67	4.67	4.67	7.67	-0.33	-0.33	4.67
160	10.109	8.0	-2.0	-1.0	5.0	6.0	1.0	2.0	3.0	2.0	2.0	4.0	8.0	-2.0	2.0	3.0	-1.0	4.0	1.0	6.0	3.0	0.0	6.0	0.0	8.0	13.0	2.0	3.0
167	10.557	9.33	1.67	0.67	0.67	10.67	-4.33	0.67	4.67	-3.33	1.67	0.67	3.67	-2.33	-0.33	4.67	1.67	1.67	5.67	1.67	0.67	1.67	3.67	-1.33	1.67	2.67	3.67	0.67
174	11.004	7.67	3.33	3.33	5.33	3.33	4.33	-0.67	-0.67	4.33	2.33	1.33	2.33	4.33	5.33	4.33	3.33	5.33	3.33	10.33	6.33	4.33	3.33	5.33	4.33	1.33	4.33	1.33
181	11.451	12.67	-4.67	-4.67	-1.67	-4.67	3.33	-8.67	-2.67	3.33	2.33	-5.67	0.33	2.33	-3.67	0.33	-0.67	-0.67	7.33	-2.67	-3.67	3.33	2.33	-5.67	0.33	-3.67	5.33	-2.67
188	11.898	8.0	4.0	0.0	3.0	5.0	-3.0	2.0	4.0	-1.0	3.0	2.0	1.0	1.0	3.0	8.0	3.0	4.0	2.0	8.0	2.0	6.0	7.0	12.0	0.0	5.0	8.0	-2.0
195	12.344	7.67	2.33	1.33	7.33	-0.67	3.33	8.33	9.33	-0.67	8.33	5.33	7.33	0.33	1.33	3.33	-1.67	3.33	7.33	1.33	10.33	7.33	10.33	6.33	6.33	-1.67	4.33	4.33
202	12.791	9.33	6.67	3.67	1.67	4.67	2.67	0.67	-4.33	-1.33	-1.33	4.67	1.67	6.67	0.67	5.67	9.67	-0.33	6.67	4.67	1.67	-0.33	8.67	-0.33	-1.33	7.67	1.67	7.67
209	13.238	13.67	-4.67	-5.67	-4.67	-4.67	-5.67	-5.67	1.33	-1.67	4.33	-2.67	-1.67	-1.67	-1.67	-0.67	-2.67	-3.67	-0.67	-4.67	-0.67	-3.67	1.33	-1.67	-4.67	2.33	-4.67	2.33
216	13.684	10.33	-1.33	8.67	-4.33	1.67	-2.33	-1.33	4.67	-3.33	0.67	2.67	-1.33	2.67	0.67	-0.33	3.67	-3.33	0.67	4.67	10.67	-1.33	1.67	1.67	4.67	6.67	1.67	1.67
223	14.131	10.67	-1.67	-1.67	-4.67	0.33	1.33	5.33	0.33	4.33	2.33	-1.67	0.33	8.33	1.33	3.33	2.33	-0.67	5.33	-1.67	3.33	3.33	-1.67	9.33	0.33	1.33	0.33	5.33
230	14.577	7.33	5.67	-1.33	7.67	2.67	4.67	6.67	8.67	7.67	5.67	4.67	3.67	-1.33	2.67	1.67	2.67	8.67	3.67	6.67	3.67	3.67	6.67	10.67	7.67	3.67	4.67	1.67
237	15.023	9.33	-1.33	3.67	3.67	8.67	3.67	-1.33	5.67	1.67	3.67	1.67	6.67	4.67	-0.33	3.67	3.67	1.67	4.67	6.67	5.67	2.67	-0.33	6.67	5.67	0.67	1.67	13.67
244	15.469	7.33	-2.33	0.67	3.67	2.67	4.67	6.67	-2.33	2.67	4.67	0.67	4.67	1.67	-1.33	6.67	-0.33	7.67	5.67	4.67	-0.33	4.67	8.67	6.67	5.67	3.67	2.67	6.67
251	15.915	9.33	2.67	-4.33	3.67	-6.33	4.67	9.67	-0.33	5.67	2.67	5.67	2.67	-6.33	-0.33	5.67	0.67	2.67	2.67	-3.33	2.67	7.67	2.67	3.67	3.67	4.67	3.67	4.67
258	16.361	6.33	-1.33	4.67	3.67	5.67	0.67	3.67	6.67	7.67	4.67	5.67	4.67	-1.33	2.67	8.67	16.67	6.67	6.67	3.67	4.67	3.67	2.67	10.67	5.67	5.67	7.67	11.67
265	16.807	11.33	-5.33	2.67	-1.33	3.67	-2.33	-1.33	-0.33	4.67	-3.33	-2.33	-2.33	-0.33	-2.33	1.67	-2.33	4.67	-2.33	2.67	-3.33	-1.33	-5.33	3.67	-0.33	2.67	3.67	4.67
272	17.253	12.0	-1.0	0.0	-7.0	-1.0	4.0	2.0	-2.0	-4.0	1.0	1.0	-2.0	-2.0	0.0	-1.0	-5.0	1.0	2.0	2.0	-2.0	7.0	0.0	6.0	-1.0	-5.0	0.0	0.0
279	17.699	5.0	6.0	5.0	3.0	10.0	8.0	5.0	8.0	1.0	7.0	3.0	12.0	8.0	5.0	9.0	3.0	5.0	1.0	13.0	12.0	2.0	3.0	7.0	3.0	4.0	7.0	5.0
286	18.145	7.33	-1.33	2.67	1.67	4.67	7.67	0.67	6.67	-2.33	9.67	0.67	5.67	8.67	1.67	3.67	6.67	2.67	-1.33	2.67	6.67	2.67	5.67	1.67	4.67	6.67	4.67	10.67
293	18.59	5.67	10.33	4.33	7.33	-0.67	6.33	7.33	5.33	0.33	0.33	2.33	9.33	5.33	5.33	1.33	8.33	8.33	8.33	0.33	11.33	4.33	10.33	3.33	16.33	9.33	7.33	4.33
300	19.036	8.67	3.33	6.33	-0.67	0.33	2.33	4.33	-5.67	0.33	7.33	-0.67	5.33	2.33	-2.67	6.33	-1.67	3.33	2.33	4.33	8.33	-1.67	5.33	5.33	2.33	-0.67	2.33	0.33
307	19.481	8.67	4.33	-4.67	5.33	7.33	-4.67	8.33	6.33	3.33	-2.67	1.33	3.33	-1.67	1.33	7.33	0.33	2.33	4.33	-1.67	0.33	-2.67	-3.67	-0.67	-2.67	7.33	-0.67	1.33
314	19.927	9.33	-4.33	0.67	1.67	5.67	-0.33	-4.33	-3.33	3.67	-1.33	3.67	7.67	6.67	4.67	5.67	0.67	-2.33	1.67	1.67	4.67	2.67	0.67	0.67	2.67	2.67	1.67	-5.33
321	20.372	9.0	5.0	7.0	4.0	3.0	-2.0	0.0	-3.0	7.0	-1.0	-1.0	-3.0	4.0	-7.0	0.0	2.0	3.0	2.0	2.0	3.0	7.0	1.0	1.0	2.0	5.0	-5.0	0.0
328	20.817	7.33	-2.33	-1.33	0.67	-3.33	1.67	3.67	2.67	0.67	-0.33	5.67	0.67	2.67	5.67	7.67	1.67	4.67	9.67	7.67	4.67	-0.33	0.67	1.67	1.67	0.67	3.67	2.67
335	21.262	9.67	-1.67	-3.67	-0.67	-1.67	4.33	0.33	-0.67	-1.67	-0.67	4.33	2.33	-0.67	-3.67	2.33	3.33	-0.67	4.33	2.33	-0.67	5.33	-0.67	-0.67	3.33	6.33	-3.67	2.33
342	21.708	7.0	9.0	-5.0	4.0	3.0	-4.0	1.0	2.0	1.0	4.0	9.0	7.0	4.0	1.0	12.0	10.0	4.0	7.0	6.0	7.0	4.0	10.0	8.0	6.0	9.0	3.0	3.0
349	22.153	8.67	-1.67	-0.67	0.33	-0.67	1.33	5.33	-0.67	6.33	-1.67	2.33	1.33	3.33	2.33	-3.67	7.33	-1.67	1.33	9.33	2.33	0.33	-1.67	-1.67	-0.67	-1.67	2.33	7.33
356	22.598	9.33	3.67	0.67	-4.33	-0.33	1.67	3.67	-0.33	-0.33	2.67	-2.33	0.67	2.67	-1.33	2.67	1.67	-1.33	-1.33	-1.33	-1.33	-3.33	0.67	0.67	0.67	-2.33	6.67	-1.33
363	23.043	10.0	-2.0	-1.0	-5.0	4.0	0.0	1.0	-2.0	-1.0	-5.0	0.0	1.0	-3.0	0.0	-3.0	1.0	-3.0	-2.0	3.0	3.0	-3.0	2.0	-3.0	-3.0	1.0	5.0	-3.0
370	23.488	6.0	-2.0	-1.0	1.0	0.0	6.0	-2.0	0.0	3.0	1.0	2.0	5.0	3.0	-1.0	1.0	2.0	4.0	1.0	-3.0	4.0	3.0	0.0	1.0	4.0	2.0	5.0	6.0
377	23.932	11.33	-3.33	-4.33	-5.33	-1.33	-9.33	-3.33	-2.33	-1.33	-6.33	-0.33	1.67	-0.33	-2.33	-6.33	0.67	-3.33	-3.33	-2.33	-2.33	2.67	-5.33	-0.33	-1.33	-5.33	0.67	-5.33
384	24.377	8.67	7.33	-1.67	-1.67	0.33	-3.67	1.33	-3.67	-3.67	0.33	-1.67	-1.67	-1.67	-3.67	-4.67	2.33	-3.67	-5.67	6.33	-2.67	-1.67	-1.67	-5.67	7.33	-1.67	0.33	-3.67
391	24.822	9.67	7.33	0.33	3.33	0.33	-0.67	-1.67	-2.67	7.33	-6.67	-0.67	-2.67	-3.67	2.33	1.33	4.33	-2.67	-2.67	-3.67	-3.67	0.33	0.33	-0.67	2.33	-2.67	-3.67	4.33
398	25.267	8.67	2.33	-5.67	-2.67	0.33	-1.67	-1.67	1.33	-4.67	2.33	-1.67	-3.67	-2.67	-0.67	0.33	1.33	3.33	3.33	-1.67	4.33	-4.67	-0.67	0.33	-0.67	-1.67	-1.67	4.33
405	25.711	6.67	-1.67	-0.67	0.33	0.33	2.33	2.33	-1.67	3.33	1.33	10.33	3.33	-0.67	6.33	-4.67	3.33	1.33	0.33	4.33	5.33	2.33	-0.67	4.33	0.33	-0.67	4.33	4.33
412	26.156	5.67	6.33	2.33	0.33	-0.67	3.33	2.33	7.33	-1.67	4.33	-0.67	1.33	1.33	0.33	7.33	2.33	0.33	8.33	1.33	5.33	6.33	0.33	10.33	3.33	-0.67	9.33	7.33
419	26.601	7.0	-2.0	-2.0	0.0	0.0	6.0	0.0	3.0	-2.0	0.0	6.0	4.0	6.0	-4.0	6.0	3.0	4.0	1.0	2.0	3.0	-1.0	2.0	-1.0	8.0	5.0	-2.0	-2.0
426	27.045	5.67	-0.67	0.33	-1.67	0.33	0.33	-0.67	-0.67	2.33	3.33	3.33	1.33	5.33	0.33	5.33	-2.67	3.33	-0.67	6.33	-1.67	3.33	5.33	4.33	-0.67	6.33	-0.67	3.33
433	27.49	6.0	1.0	1.0	-2.0	3.0	1.0	2.0	1.0	-1.0	5.0	5.0	0.0	-3.0	0.0	2.0	1.0	2.0	4.0	0.0	5.0	2.0	7.0	8.0	-2.0	-2.0	5.0	9.0
440	27.934	7.67	0.33	-1.67	-2.67	3.33	-1.67	-1.67	3.33	0.33	-0.67	-2.67	1.33	0.33	-0.67	-0.67	-0.67	0.33	2.33	0.33	2.33	2.33	3.33	-2.67	-6.67	-3.67	-2.67	4.33
447	28.379	9.0	-2.0	-1.0	1.0	-1.0	0.0	0.0	-1.0	0.0	-4.0	-1.0	-3.0	5.0	-2.0	-2.0	0.0	-1.0	-6.0	0.0	3.0	0.0	1.0	-6.0	-1.0	0.0	-1.0	0.0
454	28.823	8.0	-4.0	4.0	-1.0	0.0	-1.0	-5.0	-1.0	-2.0	-2.0	-5.0	1.0	2.0	-2.0	-2.0	0.0	-2.0	6.0	-1.0	3.0	-2.0	-1.0	1.0	-1.0	-1.0	0.0	-1.0
461	29.267	4.33	4.67	7.67	0.67	0.67	2.67	5.67	5.67	3.67	0.67	2.67	1.67	3.67	3.67	1.67	-1.33	7.67	2.67	1.67	-0.33	4.67	8.67	5.67	2.67	3.67	5.67	3.67
468	29.712	4.33	0.67	1.67	5.67	0.67	0.67	1.67	11.67	10.67	1.67	3.67	-0.33	-1.33	7.67	-0.33	2.67	3.67	5.67	2.67	2.67	2.67	0.67	8.67	2.67	4.67	2.67	1.67
475	30.156	4.0	1.0	1.0	0.0	0.0	0.0	0.0	2.0	-1.0	10.0	1.0	6.0	8.0	2.0	7.0	2.0	2.0	4.0	0.0	0.0	3.0	7.0	2.0	3.0	6.0	1.0	6.0
482	30.6	5.33	-1.33	-3.33	0.67	-0.33	0.67	2.67	3.67	2.67	-1.33	0.67	4.67	-3.33	0.67	-0.33	6.67	-1.33	2.67	0.67	1.67	0.67	3.67	4.67	-0.33	0.67	-1.33	1.67
489	31.045	5.67	1.33	-0.67	-2.67	-1.67	-4.67	-0.67	1.33	2.33	-1.67	2.33	0.33	-1.67	1.33	0.33	1.33	4.33	0.33	0.33	4.33	0.33	0.33	5.33	1.33	1.33	3.33	3.33
496	31.489	5.33	3.67	5.67	1.67	0.67	3.67	3.67	1.67	-2.33	1.67	0.67	1.67	4.67	4.67	1.67	2.67	1.67	2.67	4.67	1.67	0.67	-0.33	5.67	1.67	6.67	-1.33	2.67
503	31.933	7.67	-1.67	4.33	-1.67	0.33	3.33	-1.67	-5.67	-1.67	-2.67	1.33	-1.67	2.33	1.33	-4.67	0.33	0.33	-3.67	0.33	1.33	1.33	-2.67	-0.67	-2.67	0.33	-5.67	2.33
510	32.377	5.33	0.67	4.67	-1.33	-0.33	2.67	-1.33	-1.33	-0.33	7.67	3.67	-0.33	2.67	-1.33	-2.33	-1.33	-1.33	-1.33	0.67	-2.33	-1.33	2.67	1.67	3.67	-2.33	2.67	5.67
517	32.822	5.0	-2.0	4.0	1.0	-2.0	2.0	-1.0	7.0	5.0	4.0	-1.0	0.0	-2.0	1.0	2.0	3.0	1.0	0.0	2.0	-3.0	6.0	-2.0	0.0	0.0	6.0	2.0	5.0
524	33.266	5.0	-1.0	-3.0	-1.0	-2.0	-3.0	-2.0	-3.0	0.0	-3.0	0.0	8.0	-2.0	2.0	3.0	-4.0	2.0	5.0	1.0	2.0	-2.0	3.0	4.0	3.0	-1.0	1.0	6.0
531	33.71	6.0	-5.0	0.0	0.0	-2.0	-1.0	1.0	-4.0	-2.0	-1.0	-1.0	0.0	-3.0	-1.0	-2.0	2.0	0.0	-3.0	1.0	1.0	4.0	6.0	1.0	5.0	-2.0	5.0	-1.0
538	34.154	4.67	-0.67	0.33	3.33	0.33	6.33	5.33	3.33	3.33	2.33	3.33	2.33	-0.67	0.33	2.33	-0.67	4.33	-0.67	-1.67	0.33	3.33	-1.67	3.33	-0.67	4.33	-0.67	2.33
545	34.598	3.67	4.33	0.33	5.33	0.33	2.33	-1.67	5.33	2.33	1.33	-0.67	4.33	0.33	0.33	0.33	-0.67	5.33	-1.67	4.33	0.33	-0.67	-0.67	6.33	0.33	-1.67	2.33	5.33
552	35.043	4.33	-2.33	-1.33	0.67	-2.33	2.67	1.67	0.67	2.67	-0.33	3.67	-0.33	0.67	-0.33	0.67	3.67	0.67	0.67	0.67	4.67	3.67	-0.33	-1.33	2.67	3.67	1.67	0.67
559	35.487	4.0	-1.0	3.0	2.0	0.0	0.0	-3.0	-1.0	0.0	0.0	7.0	-2.0	0.0	0.0	-1.0	0.0	-2.0	5.0	7.0	0.0	-2.0	-4.0	2.0	1.0	2.0	-1.0	0.0
566	35.931	5.0	-2.0	-2.0	4.0	-3.0	5.0	1.0	0.0	2.0	4.0	4.0	1.0	2.0	0.0	3.0	-1.0	0.0	1.0	5.0	4.0	-1.0	-1.0	2.0	9.0	1.0	-3.0	3.0
573	36.375	4.0	-1.0	-1.0	2.0	4.0	5.0	1.0	2.0	3.0	3.0	1.0	1.0	2.0	-2.0	-1.0	2.0	2.0	4.0	0.0	4.0	2.0	3.0	4.0	1.0	0.0	0.0	3.0
580	36.819	5.33	1.67	-1.33	0.67	1.67	-1.33	-1.33	-2.33	1.67	-2.33	-0.33	-0.33	-2.33	1.67	2.67	-1.33	-0.33	0.67	-2.33	0.67	0.67	-3.33	3.67	0.67	0.67	-2.33	2.67
587	37.263	4.67	4.33	8.33	7.33	1.33	0.33	0.33	-3.67	-1.67	6.33	3.33	0.33	5.33	0.33	4.33	0.33	-0.67	3.33	1.33	4.33	0.33	-0.67	0.33	3.33	0.33	7.33	0.33
594	37.707	6.33	-6.33	0.67	3.67	-2.33	-3.33	-0.33	1.67	2.67	-2.33	-4.33	-3.33	-2.33	1.67	0.67	-0.33	-0.33	-1.33	-3.33	0.67	-4.33	-4.33	-1.33	1.67	0.67	-0.33	-1.33
601	38.152	5.0	3.0	-1.0	0.0	1.0	3.0	-2.0	0.0	0.0	0.0	-1.0	1.0	-1.0	0.0	0.0	1.0	0.0	-3.0	-2.0	-1.0	3.0	2.0	1.0	0.0	0.0	-3.0	2.0
608	38.596	4.0	0.0	0.0	2.0	2.0	-2.0	4.0	-1.0	8.0	0.0	3.0	2.0	2.0	1.0	2.0	0.0	-1.0	2.0	4.0	3.0	4.0	1.0	2.0	7.0	3.0	2.0	5.0
615	39.04	4.33	-0.33	-1.33	6.67	-2.33	1.67	-0.33	-1.33	0.67	0.67	-1.33	1.67	6.67	0.67	3.67	1.67	-3.33	-0.33	2.67	3.67	-1.33	1.67	0.67	-2.33	2.67	2.67	0.67
622	39.484	4.0	1.0	3.0	2.0	0.0	1.0	3.0	0.0	3.0	-1.0	-3.0	2.0	5.0	3.0	3.0	1.0	1.0	3.0	0.0	-2.0	3.0	2.0	2.0	1.0	0.0	0.0	7.0
629	39.928	5.0	-3.0	4.0	-1.0	4.0	0.0	-3.0	2.0	3.0	0.0	-1.0	1.0	-2.0	0.0	-1.0	-1.0	2.0	-2.0	2.0	-2.0	2.0	0.0	2.0	-1.0	-1.0	0.0	0.0
636	40.372	3.0	5.0	5.0	1.0	4.0	2.0	7.0	-1.0	3.0	2.0	2.0	-1.0	3.0	4.0	6.0	4.0	5.0	2.0	5.0	4.0	1.0	2.0	8.0	0.0	3.0	1.0	8.0
643	40.817	6.67	-2.67	-3.67	-1.67	-2.67	-0.67	-1.67	-3.67	-0.67	-0.67	-4.67	1.33	1.33	-0.67	-3.67	-1.67	0.33	1.33	-3.67	1.33	-4.67	3.33	2.33	-3.67	2.33	-1.67	-3.67
650	41.261	5.0	2.0	3.0	1.0	1.0	4.0	2.0	-2.0	-1.0	-1.0	0.0	0.0	0.0	3.0	2.0	-3.0	5.0	1.0	3.0	2.0	6.0	3.0	0.0	1.0	1.0	-2.0	0.0
657	41.705	6.67	-2.67	-1.67	-2.67	-2.67	-2.67	-2.67	-1.67	-1.67	2.33	1.33	1.33	-2.67	-1.67	-2.67	-4.67	0.33	0.33	-0.67	2.33	-0.67	0.33	-3.67	-1.67	1.33	-1.67	4.33
664	42.149	6.33	-2.33	-0.33	-3.33	-3.33	-3.33	0.67	-0.33	0.67	-0.33	-2.33	-2.33	4.67	-0.33	1.67	-1.33	0.67	-0.33	0.67	2.67	1.67	-0.33	1.67	-2.33	1.67	2.67	-0.33
671	42.594	7.0	-2.0	-1.0	5.0	0.0	1.0	-3.0	4.0	-6.0	-2.0	-3.0	-2.0	0.0	-3.0	4.0	-2.0	-2.0	-2.0	-1.0	-4.0	-1.0	-2.0	-4.0	-4.0	2.0	2.0	-3.0
678	43.038	4.67	4.33	2.33	1.33	4.33	3.33	5.33	2.33	-0.67	-2.67	-0.67	-2.67	0.33	8.33	0.33	4.33	-0.67	4.33	7.33	2.33	0.33	-2.67	-2.67	-0.67	5.33	4.33	6.33
685	43.482	4.67	0.33	8.33	3.33	-0.67	3.33	-1.67	3.33	1.33	2.33	-2.67	1.33	-2.67	4.33	0.33	2.33	3.33	8.33	1.33	2.33	4.33	-0.67	3.33	3.33	2.33	-1.67	0.33
692	43.927	6.67	-2.67	1.33	1.33	-2.67	1.33	-3.67	-0.67	-5.67	2.33	-1.67	0.33	-3.67	6.33	-1.67	2.33	2.33	-0.67	0.33	-3.67	2.33	2.33	1.33	-2.67	-2.67	3.33	2.33
699	44.371	7.33	-5.33	-1.33	-0.33	-3.33	2.67	2.67	0.67	4.67	-2.33	-1.33	-1.33	2.67	-3.33	-4.33	-3.33	-0.33	4.67	-1.33	-2.33	1.67	-2.33	-0.33	-2.33	-0.33	3.67	2.67
706	44.815	2.67	1.33	1.33	16.33	2.33	6.33	3.33	4.33	2.33	3.33	4.33	6.33	6.33	2.33	6.33	8.33	2.33	-0.67	0.33	3.33	3.33	5.33	4.33	7.33	4.33	6.33	9.33
713	45.26	5.67	0.33	9.33	0.33	-0.67	1.33	3.33	1.33	0.33	6.33	0.33	-4.67	7.33	-3.67	4.33	-1.67	0.33	-1.67	5.33	-2.67	4.33	1.33	4.33	-3.67	0.33	5.33	0.33
720	45.704	7.67	-2.67	0.33	-0.67	1.33	-0.67	-0.67	0.33	5.33	-1.67	-0.67	-3.67	1.33	-5.67	6.33	1.33	5.33	-0.67	-1.67	4.33	-4.67	-1.67	-1.67	0.33	1.33	-2.67	-1.67
727	46.149	4.0	6.0	-3.0	5.0	2.0	8.0	0.0	-1.0	5.0	1.0	1.0	4.0	2.0	0.0	1.0	0.0	1.0	3.0	5.0	2.0	4.0	5.0	5.0	4.0	1.0	2.0	1.0
734	46.594	9.33	-4.33	-4.33	-1.33	1.67	1.67	-4.33	-5.33	-0.33	1.67	2.67	-1.33	-1.33	0.67	3.67	-1.33	-7.33	-2.33	-4.33	1.67	-1.33	-2.33	-2.33	-2.33	-0.33	-0.33	-0.33
741	47.038	7.33	-4.33	2.67	-0.33	2.67	-0.33	3.67	-0.33	4.67	0.67	0.67	0.67	-0.33	-0.33	1.67	-2.33	-2.33	-0.33	-0.33	-4.33	-3.33	-4.33	1.67	-0.33	-3.33	-4.33	2.67
748	47.483	7.0	2.0	-2.0	-1.0	2.0	2.0	0.0	4.0	-3.0	-3.0	1.0	5.0	1.0	3.0	1.0	5.0	0.0	1.0	0.0	0.0	-1.0	2.0	1.0	8.0	2.0	-2.0	-1.0
755	47.928	6.0	3.0	0.0	4.0	4.0	4.0	3.0	2.0	5.0	0.0	7.0	3.0	3.0	5.0	-1.0	3.0	-2.0	4.0	2.0	6.0	0.0	-5.0	5.0	3.0	0.0	6.0	3.0
762	48.372	4.67	2.33	3.33	-0.67	2.33	6.33	3.33	6.33	3.33	4.33	4.33	4.33	8.33	-2.67	5.33	1.33	7.33	3.33	6.33	3.33	5.33	1.33	1.33	3.33	2.33	3.33	4.33
769	48.817	5.0	6.0	4.0	0.0	2.0	7.0	11.0	5.0	7.0	2.0	4.0	6.0	3.0	9.0	2.0	3.0	7.0	3.0	0.0	3.0	7.0	-2.0	3.0	-1.0	1.0	6.0	4.0
776	49.262	7.33	-1.33	3.67	-0.33	1.67	-0.33	-1.33	3.67	1.67	1.67	-5.33	-0.33	-3.33	-4.33	2.67	4.67	3.67	1.67	3.67	2.67	3.67	-1.33	-3.33	-0.33	-2.33	-3.33	2.67
783	49.707	7.0	5.0	3.0	2.0	-2.0	5.0	-1.0	5.0	0.0	1.0	-1.0	6.0	4.0	3.0	1.0	6.0	0.0	0.0	3.0	4.0	8.0	2.0	-4.0	-4.0	4.0	1.0	5.0
790	50.152	6.33	-1.33	-0.33	7.67	-0.33	4.67	2.67	2.67	11.67	1.67	7.67	8.67	0.67	4.67	3.67	0.67	0.67	2.67	6.67	9.67	5.67	1.67	-1.33	6.67	0.67	4.67	3.67
797	50.597	6.67	-3.67	1.33	4.33	3.33	11.33	3.33	10.33	5.33	3.33	5.33	-0.67	15.33	4.33	6.33	-0.67	-0.67	-0.67	5.33	6.33	3.33	0.33	5.33	4.33	4.33	1.33	-3.67
804	51.042	9.0	2.0	3.0	-2.0	-3.0	2.0	3.0	4.0	5.0	2.0	-1.0	3.0	4.0	5.0	4.0	-2.0	-2.0	-1.0	4.0	3.0	-1.0	9.0	6.0	-1.0	1.0	1.0	-2.0
811	51.487	8.33	-6.33	2.67	6.67	7.67	12.67	-3.33	6.67	6.67	7.67	6.67	-1.33	2.67	4.67	2.67	6.67	0.67	-2.33	0.67	0.67	1.67	2.67	1.67	4.67	5.67	1.67	7.67
818	51.932	7.67	-1.67	-2.67	1.33	6.33	5.33	-0.67	4.33	1.33	5.33	1.33	5.33	7.33	1.33	3.33	3.33	2.33	1.33	4.33	3.33	8.33	3.33	1.33	4.33	3.33	-3.67	3.33
825	52.377	6.67	2.33	1.33	8.33	5.33	4.33	4.33	6.33	6.33	13.33	11.33	3.33	4.33	6.33	3.33	3.33	2.33	1.33	9.33	5.33	4.33	1.33	2.33	8.33	6.33	6.33	1.33
832	52.823	6.33	4.67	6.67	7.67	2.67	9.67	6.67	4.67	5.67	1.67	6.67	8.67	1.67	0.67	5.67	6.67	4.67	2.67	-1.33	6.67	8.67	5.67	10.67	5.67	7.67	2.67	1.67
839	53.268	10.0	-4.0	-1.0	2.0	2.0	6.0	5.0	4.0	6.0	2.0	-1.0	6.0	-1.0	0.0	-3.0	6.0	3.0	2.0	-2.0	1.0	-1.0	0.0	6.0	3.0	3.0	-5.0	4.0
846	53.713	8.33	-0.33	-1.33	7.67	7.67	1.67	4.67	7.67	2.67	5.67	5.67	2.67	6.67	5.67	4.67	2.67	9.67	7.67	0.67	1.67	6.67	-0.33	4.67	12.67	4.67	7.67	4.67
853	54.159	7.67	1.33	9.33	-0.67	6.33	0.33	15.33	5.33	4.33	8.33	14.33	5.33	10.33	8.33	5.33	6.33	3.33	9.33	2.33	11.33	8.33	7.33	6.33	8.33	13.33	5.33	8.33
860	54.604	6.67	-2.67	4.33	7.33	12.33	5.33	5.33	13.33	3.33	2.33	12.33	10.33	3.33	15.33	10.33	4.33	10.33	5.33	12.33	8.33	7.33	8.33	7.33	6.33	7.33	12.33	13.33
867	55.05	10.33	-3.33	-0.33	-0.33	14.67	1.67	7.67	0.67	5.67	9.67	2.67	9.67	0.67	5.67	-0.33	4.67	6.67	3.67	-1.33	4.67	6.67	2.67	1.67	3.67	-0.33	3.67	-1.33
874	55.496	11.33	-5.33	-2.33	2.67	6.67	3.67	7.67	1.67	-2.33	5.67	7.67	2.67	1.67	4.67	-4.33	5.67	-3.33	-2.33	6.67	-1.33	-4.33	-1.33	2.67	-3.33	-1.33	-5.33	0.67
881	55.942	8.0	-2.0	2.0	4.0	1.0	11.0	4.0	5.0	4.0	10.0	14.0	8.0	4.0	5.0	4.0	4.0	5.0	11.0	10.0	2.0	8.0	5.0	6.0	3.0	8.0	5.0	5.0
888	56.387	7.33	-4.33	0.67	2.67	10.67	16.67	7.67	13.67	5.67	7.67	3.67	14.67	13.67	11.67	6.67	10.67	7.67	10.67	9.67	2.67	2.67	15.67	5.67	6.67	3.67	7.67	14.67
895	56.833	7.33	3.67	10.67	6.67	5.67	7.67	11.67	11.67	12.67	9.67	7.67	19.67	11.67	9.67	8.67	13.67	11.67	8.67	10.67	5.67	10.67	3.67	15.67	11.67	4.67	-2.33	3.67
902	57.279	7.0	8.0	11.0	9.0	14.0	15.0	11.0	13.0	11.0	11.0	8.0	15.0	22.0	6.0	5.0	3.0	4.0	6.0	7.0	8.0	0.0	8.0	18.0	16.0	3.0	12.0	10.0
909	57.726	12.0	-4.0	2.0	3.0	2.0	4.0	10.0	17.0	12.0	5.0	8.0	10.0	-1.0	9.0	4.0	12.0	7.0	9.0	5.0	10.0	7.0	8.0	-2.0	13.0	11.0	13.0	5.0
916	58.172	13.0	-3.0	0.0	2.0	6.0	5.0	-2.0	5.0	10.0	1.0	1.0	13.0	1.0	8.0	10.0	5.0	2.0	5.0	11.0	6.0	2.0	1.0	6.0	5.0	0.0	8.0	9.0
923	58.618	13.0	-9.0	-4.0	15.0	24.0	10.0	12.0	11.0	7.0	16.0	5.0	1.0	5.0	8.0	14.0	4.0	6.0	8.0	8.0	2.0	10.0	12.0	2.0	9.0	5.0	6.0	2.0
930	59.064	10.33	-3.33	18.67	11.67	41.67	54.67	35.67	17.67	23.67	26.67	60.67	38.67	38.67	23.67	20.67	22.67	15.67	16.67	25.67	16.67	10.67	19.67	13.67	14.67	24.67	18.67	10.67
937	59.511	11.67	-2.67	-2.67	31.33	61.33	70.33	67.33	22.33	44.33	61.33	137.33	111.33	84.33	41.33	30.33	36.33	33.33	19.33	9.33	21.33	20.33	37.33	32.33	17.33	28.33	26.33	21.33
944	59.957	9.33	1.67	8.67	39.67	56.67	83.67	79.67	79.67	66.67	78.67	97.67	61.67	83.67	50.67	38.67	41.67	56.67	17.67	13.67	15.67	17.67	28.67	34.67	20.67	20.67	20.67	20.67
951	60.404	8.0	-2.0	7.0	57.0	75.0	137.0	111.0	104.0	92.0	63.0	26.0	18.0	39.0	23.0	42.0	19.0	25.0	14.0	16.0	6.0	13.0	14.0	27.0	14.0	6.0	11.0	7.0
958	60.851	7.33	-0.33	3.67	25.67	47.67	55.67	30.67	39.67	34.67	30.67	14.67	16.67	13.67	13.67	20.67	8.67	10.67	13.67	5.67	7.67	6.67	15.67	6.67	10.67	7.67	7.67	13.67
965	61.298	10.0	1.0	-1.0	8.0	9.0	5.0	10.0	14.0	21.0	17.0	14.0	18.0	9.0	7.0	9.0	4.0	8.0	7.0	8.0	9.0	8.0	8.0	8.0	12.0	7.0	8.0	7.0
972	61.745	9.67	0.33	1.33	12.33	15.33	18.33	8.33	12.33	21.33	28.33	20.33	25.33	20.33	13.33	17.33	4.33	4.33	14.33	12.33	12.33	8.33	6.33	9.33	12.33	13.33	8.33	13.33
979	62.192	10.67	-3.67	1.33	19.33	11.33	30.33	10.33	35.33	44.33	50.33	58.33	60.33	51.33	35.33	31.33	11.33	14.33	20.33	10.33	19.33	14.33	17.33	17.33	21.33	16.33	17.33	10.33
986	62.639	6.33	4.67	11.67	16.67	42.67	58.67	47.67	24.67	41.67	47.67	48.67	63.67	63.67	56.67	58.67	43.67	20.67	24.67	17.67	28.67	37.67	28.67	29.67	29.67	31.67	22.67	16.67
993	63.086	6.67	4.33	16.33	32.33	42.33	73.33	55.33	45.33	34.33	27.33	24.33	38.33	28.33	29.33	39.33	33.33	14.33	18.33	18.33	17.33	31.33	26.33	23.33	34.33	29.33	29.33	17.33
1000	63.533	9.33	1.67	1.67	19.67	23.67	31.67	35.67	17.67	23.67	16.67	21.67	17.67	31.67	12.67	22.67	12.67	8.67	9.67	14.67	13.67	16.67	8.67	6.67	28.67	17.67	14.67	11.67
1007	63.981	9.67	-2.67	1.33	20.33	10.33	19.33	15.33	6.33	15.33	17.33	2.33	12.33	20.33	9.33	11.33	11.33	14.33	10.33	9.33	2.33	11.33	8.33	9.33	7.33	10.33	3.33	10.33
1014	64.428	9.0	9.0	1.0	13.0	25.0	14.0	6.0	20.0	10.0	9.0	16.0	4.0	5.0	13.0	18.0	24.0	9.0	8.0	6.0	17.0	4.0	9.0	12.0	14.0	6.0	9.0	5.0
1021	64.876	9.0	5.0	8.0	7.0	10.0	20.0	14.0	18.0	13.0	11.0	15.0	14.0	8.0	11.0	17.0	15.0	18.0	9.0	15.0	6.0	9.0	18.0	16.0	6.0	10.0	8.0	11.0
1028	65.324	10.67	-4.67	11.33	20.33	14.33	19.33	15.33	15.33	14.33	16.33	12.33	12.33	13.33	18.33	27.33	6.33	15.33	15.33	11.33	15.33	17.33	13.33	16.33	17.33	15.33	2.33	21.33
1035	65.772	8.0	-1.0	12.0	36.0	33.0	31.0	25.0	23.0	16.0	15.0	23.0	29.0	23.0	17.0	25.0	16.0	16.0	9.0	17.0	16.0	19.0	14.0	11.0	20.0	22.0	11.0	14.0
1042	66.22	8.33	-2.33	18.67	19.67	50.67	30.67	22.67	18.67	20.67	34.67	24.67	24.67	17.67	15.67	19.67	8.67	13.67	9.67	38.67	26.67	20.67	25.67	22.67	32.67	23.67	10.67	11.67
1049	66.668	10.33	-0.33	26.67	44.67	44.67	37.67	27.67	32.67	18.67	20.67	30.67	17.67	23.67	15.67	13.67	12.67	11.67	21.67	43.67	53.67	36.67	13.67	19.67	31.67	11.67	11.67	16.67
1056	67.116	12.0	-1.0	44.0	67.0	37.0	62.0	42.0	34.0	25.0	27.0	49.0	21.0	30.0	18.0	21.0	44.0	29.0	18.0	48.0	38.0	53.0	40.0	38.0	22.0	25.0	12.0	34.0
1063	67.564	9.33	6.67	28.67	60.67	44.67	53.67	45.67	55.67	53.67	40.67	53.67	40.67	45.67	29.67	37.67	54.67	21.67	40.67	42.67	41.67	45.67	48.67	34.67	26.67	29.67	14.67	35.67
1070	68.013	9.67	2.33	16.33	45.33	30.33	31.33	62.33	51.33	41.33	39.33	45.33	37.33	51.33	22.33	33.33	35.33	20.33	37.33	21.33	40.33	49.33	43.33	33.33	16.33	15.33	16.33	27.33
1077	68.462	8.0	9.0	12.0	34.0	39.0	33.0	35.0	63.0	41.0	32.0	40.0	39.0	23.0	32.0	31.0	32.0	13.0	28.0	21.0	32.0	56.0	49.0	40.0	23.0	30.0	28.0	27.0
1084	68.91	8.0	0.0	6.0	40.0	45.0	32.0	51.0	52.0	30.0	19.0	26.0	36.0	27.0	25.0	14.0	27.0	16.0	13.0	18.0	28.0	45.0	37.0	39.0	19.0	19.0	15.0	28.0
1091	69.359	11.67	3.33	11.33	28.33	25.33	23.33	32.33	43.33	33.33	18.33	22.33	26.33	18.33	20.33	20.33	22.33	5.33	18.33	9.33	34.33	23.33	23.33	22.33	15.33	24.33	19.33	30.33
1098	69.808	10.67	-2.67	-0.67	25.33	30.33	18.33	17.33	19.33	20.33	22.33	10.33	17.33	19.33	28.33	7.33	22.33	9.33	20.33	10.33	36.33	14.33	18.33	19.33	15.33	8.33	19.33	16.33
1105	70.257	7.0	1.0	10.0	19.0	25.0	17.0	28.0	18.0	21.0	23.0	14.0	15.0	11.0	21.0	7.0	7.0	14.0	11.0	16.0	37.0	20.0	16.0	21.0	16.0	15.0	19.0	15.0
1112	70.707	10.67	-4.67	2.33	20.33	20.33	10.33	17.33	23.33	14.33	11.33	16.33	11.33	18.33	12.33	8.33	3.33	8.33	4.33	9.33	13.33	14.33	12.33	7.33	13.33	10.33	13.33	13.33
1119	71.156	12.67	-1.67	8.33	10.33	10.33	7.33	1.33	3.33	3.33	6.33	5.33	9.33	21.33	12.33	13.33	17.33	3.33	5.33	8.33	8.33	11.33	4.33	4.33	4.33	12.33	9.33	2.33
1126	71.606	14.0	-7.0	1.0	-3.0	4.0	12.0	11.0	8.0	10.0	4.0	8.0	2.0	11.0	5.0	2.0	4.0	8.0	-3.0	8.0	9.0	4.0	6.0	-2.0	7.0	7.0	3.0	8.0
1133	72.055	10.67	3.33	4.33	9.33	6.33	11.33	11.33	20.33	13.33	9.33	16.33	11.33	11.33	11.33	18.33	5.33	8.33	15.33	11.33	2.33	9.33	9.33	11.33	23.33	15.33	15.33	13.33
1140	72.505	14.67	1.33	5.33	13.33	13.33	21.33	17.33	18.33	8.33	16.33	7.33	11.33	10.33	14.33	8.33	11.33	22.33	25.33	11.33	24.33	15.33	10.33	12.33	5.33	25.33	6.33	10.33
1147	72.955	21.33	0.67	7.67	13.67	27.67	16.67	29.67	17.67	8.67	23.67	19.67	19.67	36.67	15.67	12.67	19.67	27.67	29.67	11.67	13.67	18.67	28.67	12.67	9.67	8.67	16.67	21.67
1154	73.405	16.0	9.0	20.0	22.0	25.0	35.0	36.0	29.0	20.0	12.0	17.0	12.0	22.0	20.0	15.0	23.0	13.0	26.0	25.0	15.0	7.0	6.0	16.0	8.0	14.0	12.0	7.0
1161	73.855	13.33	8.67	11.67	14.67	20.67	5.67	12.67	11.67	8.67	12.67	14.67	17.67	9.67	7.67	25.67	12.67	17.67	20.67	17.67	10.67	21.67	9.67	6.67	3.67	5.67	4.67	5.67
1168	74.306	13.33	-4.33	2.67	9.67	25.67	13.67	23.67	30.67	12.67	15.67	5.67	12.67	12.67	10.67	29.67	15.67	26.67	18.67	14.67	7.67	12.67	10.67	8.67	11.67	15.67	18.67	10.67
1175	74.756	19.67	5.33	14.33	23.33	56.33	38.33	36.33	24.33	26.33	18.33	15.33	19.33	26.33	36.33	30.33	17.33	33.33	42.33	23.33	17.33	42.33	22.33	24.33	32.33	14.33	23.33	33.33
1182	75.207	34.33	-0.33	21.67	44.67	87.67	128.67	99.67	56.67	51.67	52.67	43.67	25.67	28.67	61.67	67.67	71.67	75.67	93.67	73.67	72.67	62.67	60.67	43.67	50.67	71.67	60.67	76.67
1189	75.658	23.67	2.33	23.33	75.33	108.33	159.33	134.33	86.33	75.33	93.33	97.33	68.33	70.33	79.33	87.33	104.33	129.33	128.33	116.33	77.33	80.33	62.33	61.33	112.33	152.33	154.33	148.33
1196	76.109	13.0	-8.0	24.0	82.0	106.0	127.0	97.0	99.0	92.0	134.0	158.0	83.0	88.0	75.0	68.0	108.0	131.0	136.0	134.0	99.0	130.0	60.0	66.0	102.0	131.0	127.0	162.0
1203	76.56	12.0	-5.0	19.0	58.0	84.0	99.0	76.0	75.0	58.0	112.0	135.0	83.0	74.0	42.0	53.0	59.0	68.0	55.0	68.0	99.0	106.0	68.0	35.0	49.0	59.0	105.0	101.0
1210	77.011	11.0	-6.0	10.0	40.0	40.0	60.0	54.0	68.0	52.0	67.0	56.0	48.0	43.0	35.0	25.0	29.0	30.0	30.0	39.0	46.0	74.0	55.0	47.0	48.0	17.0	40.0	51.0
1217	77.463	10.0	3.0	3.0	29.0	11.0	25.0	40.0	51.0	43.0	33.0	38.0	31.0	42.0	42.0	24.0	17.0	18.0	25.0	18.0	42.0	50.0	87.0	61.0	18.0	21.0	17.0	26.0
1224	77.915	12.0	-3.0	0.0	31.0	24.0	22.0	32.0	35.0	37.0	38.0	18.0	40.0	35.0	23.0	15.0	18.0	27.0	35.0	26.0	62.0	92.0	76.0	52.0	17.0	19.0	16.0	7.0
1231	78.366	9.67	2.33	15.33	28.33	34.33	36.33	47.33	52.33	67.33	54.33	35.33	37.33	32.33	38.33	43.33	45.33	24.33	36.33	41.33	55.33	76.33	43.33	24.33	39.33	39.33	20.33	23.33
1238	78.818	12.67	2.33	8.33	23.33	41.33	33.33	55.33	63.33	105.33	93.33	34.33	48.33	21.33	48.33	38.33	40.33	39.33	63.33	40.33	36.33	55.33	50.33	24.33	52.33	36.33	27.33	13.33
1245	79.271	12.67	-2.67	40.33	42.33	47.33	43.33	69.33	48.33	80.33	92.33	38.33	72.33	18.33	49.33	52.33	37.33	30.33	70.33	71.33	61.33	78.33	67.33	57.33	69.33	23.33	41.33	25.33
1252	79.723	12.67	-5.67	59.33	57.33	32.33	24.33	45.33	65.33	73.33	56.33	54.33	74.33	17.33	39.33	32.33	27.33	34.33	52.33	34.33	49.33	79.33	42.33	50.33	63.33	46.33	45.33	27.33
1259	80.175	14.33	0.67	45.67	35.67	23.67	24.67	34.67	50.67	30.67	41.67	30.67	48.67	20.67	21.67	18.67	13.67	20.67	41.67	42.67	35.67	51.67	34.67	32.67	29.67	30.67	30.67	29.67
1266	80.628	13.0	13.0	10.0	23.0	31.0	28.0	21.0	25.0	31.0	15.0	23.0	19.0	19.0	27.0	16.0	14.0	14.0	42.0	32.0	18.0	25.0	26.0	24.0	27.0	16.0	20.0	25.0
1273	81.081	10.67	8.33	12.33	14.33	18.33	25.33	10.33	15.33	17.33	16.33	22.33	19.33	23.33	23.33	19.33	12.33	17.33	13.33	21.33	20.33	23.33	19.33	14.33	11.33	16.33	18.33	27.33
1280	81.534	15.0	2.0	-2.0	-2.0	7.0	21.0	10.0	20.0	21.0	13.0	11.0	8.0	16.0	14.0	12.0	13.0	5.0	9.0	6.0	1.0	10.0	0.0	3.0	17.0	16.0	11.0	21.0
1287	81.987	20.67	-5.67	-4.67	4.33	1.33	5.33	6.33	2.33	2.33	-0.67	3.33	5.33	-2.67	0.33	5.33	12.33	3.33	2.33	11.33	2.33	-0.67	-3.67	-1.67	7.33	4.33	1.33	4.33
1294	82.441	12.33	-0.33	4.67	7.67	17.67	15.67	20.67	17.67	8.67	4.67	13.67	14.67	15.67	13.67	21.67	15.67	5.67	8.67	18.67	11.67	24.67	13.67	8.67	14.67	6.67	19.67	7.67
1301	82.894	15.0	5.0	8.0	20.0	19.0	9.0	13.0	13.0	23.0	7.0	9.0	7.0	14.0	15.0	20.0	15.0	7.0	10.0	12.0	9.0	20.0	16.0	17.0	15.0	19.0	8.0	26.0
1308	83.348	14.33	0.67	12.67	22.67	25.67	23.67	12.67	16.67	22.67	21.67	24.67	30.67	35.67	23.67	18.67	19.67	13.67	24.67	16.67	19.67	5.67	20.67	25.67	21.67	22.67	26.67	21.67
1315	83.802	17.33	2.67	15.67	33.67	19.67	25.67	17.67	30.67	24.67	31.67	18.67	24.67	29.67	29.67	15.67	24.67	29.67	22.67	22.67	23.67	8.67	28.67	20.67	23.67	28.67	22.67	28.67
1322	84.256	20.33	-0.33	14.67	39.67	26.67	18.67	38.67	29.67	16.67	31.67	39.67	21.67	22.67	27.67	27.67	31.67	47.67	27.67	27.67	30.67	15.67	36.67	15.67	32.67	9.67	27.67	18.67
1329	84.71	20.0	5.0	22.0	27.0	39.0	27.0	32.0	37.0	43.0	39.0	34.0	29.0	43.0	41.0	34.0	13.0	42.0	39.0	47.0	34.0	36.0	29.0	34.0	21.0	36.0	37.0	36.0
1336	85.165	26.0	10.0	11.0	19.0	12.0	39.0	34.0	37.0	27.0	18.0	38.0	24.0	16.0	24.0	21.0	22.0	23.0	26.0	29.0	21.0	38.0	22.0	22.0	24.0	19.0	29.0	39.0
1343	85.619	25.33	-9.33	10.67	8.67	21.67	12.67	33.67	20.67	-0.33	22.67	26.67	19.67	13.67	32.67	7.67	22.67	13.67	29.67	27.67	14.67	20.67	12.67	27.67	13.67	10.67	21.67	29.67
1350	86.074	17.0	3.0	20.0	34.0	26.0	34.0	22.0	21.0	23.0	23.0	42.0	25.0	29.0	17.0	9.0	11.0	22.0	16.0	23.0	21.0	20.0	17.0	26.0	25.0	17.0	21.0	27.0
1357	86.529	18.0	-2.0	5.0	23.0	23.0	42.0	14.0	36.0	32.0	30.0	21.0	25.0	14.0	10.0	16.0	11.0	12.0	24.0	18.0	21.0	13.0	13.0	15.0	21.0	15.0	21.0	30.0
1364	86.985	22.33	-7.33	3.67	19.67	39.67	48.67	25.67	20.67	29.67	29.67	21.67	39.67	17.67	10.67	6.67	6.67	-1.33	6.67	8.67	10.67	10.67	3.67	16.67	17.67	28.67	22.67	12.67
1371	87.44	17.67	-1.67	4.33	28.33	45.33	50.33	31.33	49.33	44.33	23.33	23.33	27.33	14.33	20.33	16.33	23.33	12.33	19.33	18.33	25.33	19.33	22.33	25.33	25.33	22.33	28.33	20.33
1378	87.896	25.33	-3.33	5.67	-0.33	23.67	29.67	9.67	21.67	25.67	23.67	28.67	14.67	17.67	0.67	7.67	14.67	3.67	-1.33	6.67	9.67	6.67	7.67	11.67	19.67	11.67	11.67	9.67
1385	88.352	19.0	8.0	6.0	17.0	27.0	13.0	13.0	28.0	27.0	10.0	19.0	11.0	7.0	20.0	13.0	19.0	4.0	13.0	15.0	20.0	25.0	10.0	17.0	22.0	25.0	12.0	23.0
1392	88.808	19.33	7.67	0.67	11.67	7.67	9.67	6.67	20.67	5.67	8.67	9.67	19.67	6.67	6.67	12.67	4.67	2.67	9.67	9.67	3.67	6.67	18.67	9.67	4.67	14.67	25.67	0.67
1399	89.264	21.0	2.0	4.0	4.0	5.0	8.0	-1.0	15.0	7.0	7.0	7.0	5.0	8.0	2.0	15.0	10.0	21.0	-2.0	12.0	2.0	2.0	-1.0	-1.0	5.0	11.0	12.0	9.0
1406	89.72	21.33	-8.33	7.67	6.67	4.67	16.67	5.67	3.67	13.67	0.67	10.67	12.67	4.67	-1.33	2.67	5.67	4.67	7.67	0.67	4.67	8.67	11.67	2.67	8.67	7.67	5.67	19.67
1413	90.177	21.67	2.33	-2.67	10.33	0.33	7.33	8.33	16.33	12.33	17.33	13.33	4.33	10.33	14.33	5.33	10.33	0.33	12.33	5.33	10.33	2.33	7.33	-0.67	23.33	10.33	2.33	8.33
1420	90.634	21.67	-7.67	-2.67	0.33	8.33	14.33	6.33	9.33	5.33	10.33	21.33	5.33	15.33	6.33	10.33	9.33	14.33	1.33	10.33	1.33	1.33	9.33	17.33	6.33	9.33	17.33	13.33
1427	91.091	26.33	-8.33	-5.33	-4.33	2.67	10.67	-0.33	14.67	6.67	6.67	2.67	-1.33	13.67	3.67	1.67	5.67	-6.33	-0.33	1.67	13.67	12.67	6.67	-2.33	-0.33	10.67	2.67	5.67
1434	91.549	27.67	4.33	3.33	1.33	3.33	10.33	-0.67	3.33	10.33	12.33	8.33	-0.67	6.33	-1.67	4.33	-6.67	8.33	3.33	4.33	-0.67	1.33	9.33	3.33	5.33	-0.67	-4.67	15.33
1441	92.006	23.0	-2.0	5.0	3.0	9.0	20.0	3.0	2.0	17.0	23.0	6.0	5.0	10.0	13.0	10.0	15.0	16.0	8.0	16.0	6.0	4.0	10.0	12.0	5.0	14.0	2.0	6.0
1448	92.464	22.33	3.67	-1.33	1.67	7.67	15.67	8.67	15.67	1.67	16.67	5.67	3.67	-0.33	11.67	7.67	5.67	-0.33	9.67	11.67	15.67	3.67	12.67	10.67	11.67	6.67	9.67	13.67
1455	92.922	25.33	-9.33	-1.33	-0.33	-0.33	9.67	1.67	12.67	11.67	1.67	15.67	12.67	5.67	12.67	0.67	24.67	12.67	8.67	5.67	-2.33	12.67	0.67	0.67	1.67	5.67	14.67	9.67
1462	93.38	28.33	-8.33	-8.33	1.67	9.67	-0.33	4.67	8.67	-0.33	5.67	-0.33	-0.33	4.67	-1.33	-1.33	19.67	1.67	1.67	-3.33	-2.33	7.67	1.67	6.67	-0.33	5.67	5.67	5.67
1469	93.839	23.67	0.33	5.33	3.33	0.33	18.33	9.33	24.33	19.33	10.33	15.33	5.33	10.33	3.33	8.33	20.33	11.33	17.33	2.33	11.33	8.33	9.33	15.33	10.33	17.33	10.33	14.33
1476	94.297	27.67	7.33	-4.67	3.33	-3.67	0.33	1.33	5.33	3.33	1.33	12.33	0.33	1.33	5.33	4.33	-5.67	-4.67	7.33	6.33	2.33	7.33	7.33	8.33	1.33	8.33	4.33	10.33
1483	94.756	25.0	0.0	10.0	16.0	2.0	7.0	15.0	14.0	22.0	6.0	6.0	8.0	15.0	13.0	4.0	7.0	0.0	11.0	13.0	10.0	15.0	9.0	16.0	9.0	15.0	18.0	7.0
1490	95.215	27.33	1.67	5.67	-3.33	5.67	-6.33	18.67	0.67	9.67	15.67	2.67	10.67	6.67	7.67	8.67	10.67	-3.33	5.67	-0.33	-0.33	6.67	-9.33	16.67	4.67	2.67	7.67	7.67
1497	95.675	24.67	-7.67	-0.67	9.33	19.33	4.33	-0.67	4.33	8.33	3.33	7.33	7.33	7.33	12.33	3.33	1.33	8.33	2.33	5.33	14.33	9.33	5.33	1.33	5.33	5.33	12.33	13.33
1504	96.134	25.67	13.33	5.33	0.33	9.33	-2.67	8.33	6.33	4.33	4.33	14.33	16.33	7.33	8.33	4.33	0.33	10.33	6.33	7.33	4.33	24.33	-0.67	12.33	4.33	17.33	19.33	0.33
1511	96.594	24.33	6.67	3.67	7.67	6.67	5.67	12.67	6.67	4.67	4.67	14.67	13.67	13.67	16.67	0.67	19.67	8.67	21.67	12.67	4.67	16.67	13.67	21.67	21.67	5.67	24.67	9.67
1518	97.054	22.0	5.0	7.0	9.0	12.0	15.0	14.0	4.0	22.0	2.0	5.0	14.0	31.0	13.0	13.0	11.0	3.0	6.0	11.0	8.0	14.0	34.0	15.0	21.0	18.0	7.0	5.0
1525	97.514	22.67	-3.67	24.33	8.33	15.33	5.33	19.33	15.33	21.33	21.33	16.33	-3.67	10.33	10.33	8.33	20.33	17.33	15.33	14.33	16.33	16.33	15.33	13.33	-0.67	16.33	8.33	22.33
1532	97.975	25.67	1.33	4.33	-4.67	19.33	6.33	5.33	-0.67	-1.67	4.33	4.33	4.33	13.33	21.33	14.33	16.33	0.33	7.33	4.33	9.33	4.33	16.33	9.33	4.33	8.33	8.33	13.33
1539	98.436	28.67	2.33	1.33	0.33	-1.67	10.33	1.33	12.33	15.33	8.33	6.33	11.33	7.33	6.33	-0.67	10.33	11.33	2.33	9.33	4.33	0.33	12.33	18.33	21.33	12.33	12.33	12.33
1546	98.897	21.67	0.33	-0.67	14.33	9.33	20.33	11.33	6.33	22.33	6.33	17.33	7.33	8.33	16.33	27.33	12.33	17.33	24.33	6.33	20.33	15.33	16.33	18.33	23.33	21.33	19.33	20.33
1553	99.358	30.33	-4.33	-4.33	5.67	-10.33	-6.33	7.67	6.67	23.67	8.67	10.67	5.67	22.67	5.67	10.67	2.67	1.67	11.67	12.67	24.67	8.67	8.67	8.67	4.67	3.67	12.67	17.67
1560	99.82	28.0	1.0	9.0	2.0	-4.0	0.0	14.0	1.0	15.0	6.0	9.0	15.0	3.0	5.0	0.0	5.0	20.0	10.0	18.0	12.0	10.0	10.0	2.0	9.0	6.0	15.0	8.0
1567	100.281	24.33	5.67	-4.33	8.67	15.67	16.67	8.67	19.67	3.67	26.67	26.67	26.67	11.67	11.67	29.67	11.67	15.67	18.67	14.67	17.67	23.67	25.67	24.67	19.67	23.67	17.67	11.67
1574	100.743	26.33	-3.33	-0.33	-1.33	9.67	9.67	15.67	11.67	9.67	13.67	14.67	13.67	10.67	19.67	22.67	2.67	19.67	24.67	13.67	16.67	16.67	8.67	21.67	19.67	6.67	15.67	20.67
1581	101.206	31.67	-2.67	-0.67	-6.67	1.33	4.33	6.33	5.33	4.33	4.33	5.33	8.33	-0.67	9.33	12.33	8.33	11.33	7.33	-0.67	14.33	12.33	10.33	24.33	11.33	12.33	16.33	8.33
1588	101.668	24.33	-3.33	6.67	7.67	14.67	13.67	14.67	33.67	25.67	7.67	8.67	7.67	15.67	17.67	15.67	20.67	19.67	14.67	5.67	15.67	11.67	24.67	28.67	21.67	9.67	11.67	20.67
1595	102.131	25.33	3.67	12.67	18.67	17.67	8.67	5.67	7.67	0.67	11.67	13.67	8.67	5.67	11.67	17.67	3.67	8.67	6.67	19.67	3.67	0.67	8.67	27.67	8.67	11.67	18.67	20.67
1602	102.594	28.33	-1.33	-1.33	1.67	-9.33	14.67	5.67	5.67	2.67	-4.33	-4.33	13.67	3.67	2.67	8.67	6.67	-0.33	-3.33	5.67	5.67	18.67	3.67	15.67	7.67	16.67	2.67	8.67
1609	103.057	24.67	0.33	5.33	-1.67	3.33	13.33	20.33	3.33	10.33	4.33	13.33	12.33	8.33	6.33	10.33	4.33	10.33	3.33	9.33	7.33	8.33	10.33	12.33	12.33	13.33	5.33	7.33
1616	103.521	27.33	7.67	7.67	-6.33	6.67	11.67	-2.33	-0.33	2.67	9.67	9.67	0.67	-9.33	-1.33	5.67	12.67	5.67	0.67	8.67	-2.33	8.67	11.67	4.67	0.67	5.67	-1.33	14.67
1623	103.985	27.67	4.33	-7.67	2.33	1.33	-0.67	9.33	3.33	7.33	5.33	-5.67	8.33	9.33	16.33	6.33	5.33	0.33	12.33	3.33	4.33	11.33	-2.67	6.33	12.33	10.33	13.33	13.33
1630	104.449	21.0	1.0	12.0	9.0	10.0	15.0	16.0	14.0	9.0	8.0	12.0	20.0	15.0	24.0	25.0	17.0	14.0	4.0	15.0	15.0	8.0	8.0	11.0	12.0	7.0	23.0	19.0
1637	104.913	20.33	4.67	9.67	15.67	8.67	25.67	20.67	21.67	11.67	8.67	10.67	4.67	10.67	7.67	21.67	17.67	3.67	12.67	16.67	9.67	19.67	16.67	19.67	10.67	13.67	9.67	9.67
1644	105.378	20.33	-4.33	5.67	11.67	10.67	2.67	12.67	13.67	5.67	1.67	8.67	14.67	8.67	11.67	13.67	7.67	0.67	2.67	8.67	16.67	5.67	-2.33	11.67	5.67	14.67	17.67	15.67
1651	105.843	21.0	-4.0	12.0	13.0	12.0	8.0	17.0	10.0	18.0	10.0	13.0	13.0	10.0	7.0	11.0	-5.0	9.0	0.0	4.0	12.0	18.0	5.0	0.0	11.0	5.0	-1.0	2.0
1658	106.308	21.0	5.0	15.0	7.0	11.0	20.0	10.0	5.0	11.0	16.0	5.0	2.0	13.0	5.0	11.0	2.0	6.0	14.0	13.0	2.0	1.0	6.0	12.0	11.0	0.0	9.0	11.0
1665	106.773	27.33	-8.33	4.67	9.67	6.67	13.67	14.67	9.67	11.67	10.67	-3.33	3.67	3.67	2.67	7.67	-2.33	-3.33	-8.33	-6.33	-5.33	-5.33	-1.33	-0.33	-0.33	-0.33	2.67	-3.33
1672	107.239	21.0	-3.0	10.0	7.0	13.0	6.0	9.0	11.0	15.0	10.0	2.0	5.0	15.0	6.0	6.0	1.0	7.0	12.0	11.0	10.0	15.0	7.0	2.0	11.0	10.0	9.0	2.0
1679	107.705	21.67	3.33	-0.67	-2.67	-0.67	0.33	4.33	8.33	16.33	8.33	7.33	0.33	2.33	-1.67	-3.67	1.33	-0.67	-3.67	1.33	4.33	17.33	4.33	10.33	-2.67	14.33	3.33	5.33
1686	108.171	22.33	2.67	-2.33	-5.33	6.67	-0.33	8.67	0.67	0.67	9.67	1.67	5.67	-1.33	7.67	2.67	8.67	9.67	2.67	1.67	6.67	0.67	9.67	1.67	4.67	1.67	9.67	5.67
1693	108.638	21.0	2.0	0.0	0.0	-2.0	-2.0	-4.0	-5.0	9.0	1.0	3.0	1.0	8.0	1.0	0.0	0.0	6.0	-4.0	1.0	3.0	11.0	-1.0	4.0	11.0	4.0	10.0	-2.0
1700	109.105	22.0	-4.0	1.0	-1.0	2.0	-1.0	11.0	5.0	1.0	2.0	3.0	9.0	-2.0	11.0	0.0	-5.0	-4.0	-2.0	3.0	4.0	0.0	4.0	3.0	3.0	2.0	5.0	1.0
1707	109.572	19.33	-1.33	0.67	2.67	10.67	7.67	0.67	-4.33	11.67	2.67	-2.33	1.67	8.67	10.67	2.67	2.67	1.67	1.67	5.67	1.67	12.67	2.67	1.67	12.67	2.67	1.67	12.67
1714	110.039	27.33	-0.33	-9.33	4.67	-1.33	-1.33	-10.33	-12.33	-3.33	-1.33	-1.33	-11.33	1.67	-4.33	-8.33	-4.33	-7.33	-11.33	-9.33	12.67	-4.33	-4.33	-6.33	9.67	-6.33	-10.33	-12.33
1721	110.507	18.67	-3.67	-0.67	2.33	6.33	4.33	-1.67	3.33	1.33	-0.67	4.33	7.33	9.33	4.33	13.33	11.33	3.33	4.33	10.33	11.33	-0.67	7.33	3.33	2.33	2.33	1.33	9.33
1728	110.975	20.67	5.33	3.33	-4.67	5.33	5.33	-1.67	0.33	-1.67	-0.67	4.33	0.33	-4.67	-1.67	0.33	6.33	5.33	-4.67	5.33	13.33	4.33	-7.67	8.33	3.33	1.33	2.33	2.33
1735	111.443	20.33	-8.33	2.67	4.67	-9.33	-2.33	-1.33	1.67	-1.33	2.67	-3.33	12.67	6.67	7.67	4.67	3.67	13.67	1.67	6.67	10.67	-2.33	-2.33	-3.33	0.67	3.67	8.67	-3.33
1742	111.912	20.67	-7.67	2.33	-3.67	1.33	2.33	2.33	4.33	-8.67	-6.67	-9.67	-4.67	6.33	8.33	-1.67	3.33	-0.67	-2.67	2.33	-11.67	4.33	8.33	-2.67	6.33	7.33	6.33	-0.67
1749	112.38	14.0	8.0	-1.0	7.0	7.0	13.0	9.0	17.0	7.0	10.0	13.0	13.0	12.0	11.0	10.0	7.0	11.0	8.0	14.0	7.0	12.0	7.0	6.0	8.0	11.0	10.0	11.0
1756	112.85	18.0	3.0	-4.0	-2.0	5.0	3.0	-3.0	5.0	0.0	5.0	6.0	10.0	5.0	-1.0	3.0	4.0	5.0	4.0	-4.0	2.0	8.0	18.0	4.0	1.0	12.0	9.0	9.0
1763	113.319	15.0	1.0	2.0	3.0	1.0	6.0	5.0	11.0	10.0	6.0	4.0	11.0	12.0	-1.0	6.0	-3.0	13.0	8.0	13.0	0.0	16.0	10.0	-1.0	5.0	2.0	1.0	4.0
1770	113.789	19.33	-7.33	-1.33	-5.33	5.67	-3.33	3.67	1.67	-0.33	-3.33	-5.33	-2.33	-6.33	-1.33	-5.33	5.67	8.67	-6.33	0.67	-3.33	-2.33	-0.33	0.67	8.67	6.67	2.67	2.67
1777	114.259	17.0	-2.0	0.0	2.0	-3.0	-7.0	1.0	8.0	3.0	8.0	2.0	5.0	0.0	4.0	4.0	6.0	-1.0	2.0	1.0	5.0	5.0	6.0	3.0	7.0	2.0	9.0	4.0
1784	114.729	21.0	-1.0	-8.0	-2.0	-5.0	-2.0	3.0	-4.0	-8.0	2.0	-2.0	-1.0	-9.0	5.0	1.0	-3.0	2.0	1.0	-8.0	2.0	-4.0	-5.0	11.0	-4.0	3.0	-2.0	4.0
1791	115.2	12.33	1.67	0.67	1.67	5.67	9.67	8.67	11.67	7.67	2.67	6.67	10.67	10.67	3.67	9.67	3.67	7.67	8.67	7.67	4.67	6.67	12.67	8.67	16.67	0.67	3.67	3.67
1798	115.671	14.0	-8.0	4.0	0.0	6.0	-1.0	7.0	0.0	3.0	0.0	2.0	3.0	8.0	5.0	1.0	15.0	5.0	2.0	-1.0	3.0	5.0	4.0	3.0	4.0	3.0	2.0	6.0
1805	116.142	12.0	9.0	3.0	11.0	2.0	2.0	-1.0	4.0	0.0	10.0	5.0	7.0	4.0	7.0	1.0	13.0	5.0	5.0	1.0	11.0	14.0	16.0	13.0	12.0	5.0	2.0	4.0
1812	116.614	15.33	0.67	-2.33	-2.33	0.67	-1.33	5.67	1.67	0.67	2.67	1.67	-6.33	2.67	-8.33	-1.33	2.67	-1.33	-3.33	-2.33	-7.33	2.67	-2.33	2.67	4.67	2.67	2.67	-4.33
1819	117.086	14.67	-0.67	-7.67	5.33	7.33	2.33	5.33	-3.67	-0.67	2.33	-3.67	-0.67	-4.67	3.33	8.33	12.33	0.33	-0.67	2.33	-1.67	-2.67	2.33	-2.67	4.33	5.33	-3.67	0.33
1826	117.558	12.33	0.67	-5.33	0.67	5.67	2.67	7.67	4.67	4.67	2.67	8.67	6.67	10.67	8.67	12.67	7.67	0.67	2.67	1.67	5.67	5.67	2.67	3.67	2.67	3.67	8.67	6.67
1833	118.03	12.33	-2.33	6.67	-0.33	7.67	11.67	7.67	8.67	7.67	-0.33	3.67	7.67	3.67	0.67	1.67	4.67	-0.33	-1.33	7.67	5.67	3.67	3.67	10.67	6.67	6.67	2.67	15.67
1840	118.503	14.67	-4.67	-1.67	0.33	2.33	5.33	-3.67	-3.67	9.33	-3.67	-0.67	0.33	-5.67	-5.67	-6.67	1.33	-1.67	8.33	0.33	-3.67	-1.67	0.33	9.33	-3.67	-2.67	1.33	6.33
1847	118.976	13.33	3.67	0.67	-5.33	-3.33	2.67	2.67	4.67	-1.33	3.67	1.67	5.67	3.67	16.67	-0.33	2.67	-2.33	13.67	5.67	1.67	10.67	-0.33	2.67	-0.33	7.67	4.67	9.67
1854	119.45	10.33	2.67	1.67	-1.33	-3.33	2.67	6.67	6.67	5.67	11.67	4.67	0.67	1.67	0.67	0.67	3.67	2.67	3.67	4.67	1.67	6.67	2.67	6.67	6.67	2.67	2.67	7.67
1861	119.924	11.0	1.0	3.0	5.0	2.0	8.0	0.0	2.0	2.0	0.0	6.0	10.0	5.0	3.0	2.0	2.0	7.0	7.0	9.0	2.0	-1.0	3.0	8.0	8.0	3.0	-2.0	3.0
1868	120.398	13.0	-4.0	-3.0	-3.0	4.0	11.0	0.0	-4.0	5.0	8.0	-3.0	6.0	-1.0	-2.0	-3.0	3.0	0.0	13.0	8.0	8.0	8.0	7.0	-1.0	5.0	1.0	-2.0	2.0
1875	120.872	11.0	0.0	5.0	6.0	5.0	-1.0	2.0	2.0	0.0	11.0	9.0	2.0	4.0	-1.0	2.0	2.0	6.0	11.0	0.0	5.0	3.0	5.0	-1.0	3.0	3.0	9.0	12.0
1882	121.347	13.0	0.0	-1.0	2.0	5.0	-5.0	-2.0	4.0	0.0	-4.0	-2.0	8.0	-1.0	3.0	-1.0	4.0	1.0	-2.0	3.0	6.0	5.0	0.0	0.0	2.0	6.0	0.0	4.0
1889	121.822	12.0	-1.0	-3.0	-3.0	5.0	7.0	3.0	0.0	6.0	5.0	-1.0	9.0	6.0	5.0	6.0	3.0	-6.0	14.0	2.0	4.0	4.0	2.0	3.0	1.0	3.0	0.0	3.0
1896	122.298	12.33	-2.33	3.67	1.67	3.67	0.67	-2.33	0.67	1.67	0.67	-1.33	1.67	1.67	0.67	2.67	-4.33	4.67	-0.33	-1.33	-6.33	-2.33	-0.33	3.67	-2.33	1.67	-1.33	7.67
1903	122.773	11.33	-3.33	5.67	5.67	-6.33	0.67	0.67	-0.33	7.67	8.67	-4.33	0.67	4.67	-4.33	4.67	-0.33	0.67	-2.33	-1.33	6.67	1.67	-3.33	1.67	2.67	2.67	1.67	-3.33
1910	123.25	10.0	0.0	4.0	3.0	2.0	11.0	1.0	11.0	15.0	8.0	1.0	2.0	9.0	6.0	7.0	0.0	8.0	-1.0	-1.0	0.0	6.0	5.0	4.0	2.0	3.0	4.0	-1.0
1917	123.726	10.0	1.0	4.0	7.0	4.0	3.0	0.0	3.0	7.0	1.0	4.0	11.0	3.0	7.0	-3.0	-2.0	-1.0	1.0	7.0	5.0	1.0	4.0	3.0	-4.0	4.0	0.0	-2.0
1924	124.203	9.67	-2.67	6.33	1.33	6.33	2.33	2.33	2.33	3.33	6.33	5.33	4.33	7.33	3.33	-2.67	0.33	2.33	1.33	-0.67	4.33	0.33	0.33	11.33	3.33	10.33	3.33	6.33
1931	124.68	13.33	-6.33	-5.33	-2.33	2.67	-1.33	-2.33	-3.33	-1.33	-1.33	0.67	5.67	-1.33	-6.33	-6.33	1.67	-2.33	-5.33	-1.33	-0.33	6.67	-3.33	-2.33	-0.33	0.67	4.67	4.67
1938	125.158	10.0	2.0	-2.0	3.0	9.0	-1.0	3.0	1.0	-4.0	1.0	2.0	-1.0	4.0	-3.0	2.0	0.0	1.0	7.0	5.0	-5.0	3.0	-1.0	5.0	7.0	-1.0	-1.0	0.0
1945	125.635	10.67	-3.67	-1.67	-3.67	-3.67	-4.67	-1.67	6.33	-1.67	0.33	0.33	-2.67	5.33	-3.67	0.33	-4.67	-3.67	-1.67	-3.67	-4.67	2.33	-0.67	6.33	7.33	-0.67	7.33	-2.67
1952	126.114	6.0	1.0	5.0	-1.0	4.0	-1.0	3.0	7.0	3.0	6.0	4.0	8.0	3.0	8.0	9.0	6.0	9.0	5.0	8.0	6.0	8.0	4.0	6.0	5.0	5.0	1.0	4.0
1959	126.592	9.0	1.0	1.0	2.0	4.0	-3.0	-3.0	1.0	-2.0	1.0	9.0	9.0	5.0	-2.0	-1.0	-2.0	1.0	-1.0	7.0	3.0	9.0	5.0	2.0	1.0	5.0	6.0	1.0
1966	127.071	9.33	2.67	-3.33	-1.33	4.67	-2.33	-0.33	8.67	2.67	7.67	4.67	9.67	-2.33	4.67	9.67	-0.33	-1.33	5.67	-1.33	-2.33	1.67	1.67	-1.33	1.67	6.67	1.67	6.67
1973	127.55	9.33	0.67	-1.33	-0.33	5.67	3.67	0.67	-1.33	5.67	2.67	-2.33	0.67	5.67	10.67	-2.33	-0.33	-2.33	1.67	-3.33	6.67	-1.33	5.67	-0.33	4.67	0.67	5.67	3.67
1980	128.03	11.33	-1.33	-1.33	-1.33	3.67	-5.33	-4.33	1.67	-2.33	1.67	-3.33	-4.33	-0.33	-2.33	3.67	1.67	-3.33	-6.33	-6.33	5.67	5.67	3.67	5.67	0.67	1.67	-1.33	-4.33
1987	128.51	7.0	7.0	1.0	9.0	6.0	2.0	10.0	2.0	7.0	5.0	0.0	3.0	6.0	6.0	5.0	2.0	0.0	4.0	7.0	3.0	5.0	6.0	9.0	4.0	7.0	11.0	1.0
1994	128.99	5.67	8.33	8.33	2.33	5.33	1.33	8.33	1.33	5.33	9.33	5.33	5.33	3.33	7.33	6.33	3.33	8.33	9.33	-2.67	-0.67	-0.67	9.33	4.33	7.33	6.33	2.33	6.33
2001	129.471	6.67	3.33	9.33	1.33	0.33	3.33	2.33	7.33	1.33	0.33	1.33	6.33	3.33	2.33	3.33	5.33	3.33	1.33	15.33	6.33	2.33	0.33	7.33	7.33	6.33	8.33	5.33
2008	129.952	8.0	1.0	-1.0	3.0	3.0	2.0	1.0	7.0	7.0	1.0	5.0	4.0	5.0	3.0	0.0	6.0	1.0	4.0	0.0	3.0	1.0	4.0	1.0	0.0	5.0	-2.0	3.0
2015	130.433	4.67	1.33	6.33	-0.67	2.33	0.33	2.33	7.33	3.33	0.33	1.33	4.33	4.33	-0.67	6.33	3.33	5.33	5.33	2.33	-0.67	5.33	7.33	2.33	2.33	0.33	6.33	3.33
2022	130.915	6.33	3.67	1.67	2.67	6.67	0.67	-1.33	-1.33	5.67	0.67	-0.33	-2.33	8.67	6.67	9.67	6.67	-0.33	10.67	2.67	2.67	2.67	1.67	5.67	-5.33	2.67	5.67	6.67
2029	131.397	7.33	-0.33	1.67	-4.33	-1.33	-2.33	2.67	-5.33	0.67	2.67	3.67	-0.33	3.67	-0.33	-4.33	-1.33	2.67	-3.33	0.67	6.67	0.67	1.67	-2.33	0.67	3.67	0.67	0.67
2036	131.879	6.67	2.33	0.33	0.33	-1.67	1.33	1.33	-1.67	5.33	0.33	1.33	-1.67	3.33	1.33	-0.67	3.33	2.33	-4.67	1.33	5.33	4.33	-2.67	3.33	-1.67	3.33	2.33	11.33
2043	132.362	9.33	1.67	-2.33	-1.33	-4.33	-0.33	-2.33	1.67	-3.33	-2.33	1.67	0.67	-7.33	-1.33	-0.33	2.67	0.67	-4.33	-2.33	-1.33	-1.33	0.67	-2.33	1.67	-0.33	-2.33	1.67
2047	132.638	8.0	-5.0	2.0	4.0	-4.0	4.0	2.0	-5.0	6.0	-2.0	0.0	7.0	0.0	3.0	3.0	2.0	0.0	2.0	0.0	1.0	-3.0	7.0	1.0	-2.0	1.0	4.0	2.0