File: EDX Back Ups and Old Files/EDX Processed Data/Low pH SF 60C 2d.txt
Name: Low pH SF 60C 2d
Number of Scans: 29
Positions: [-13.0, -12.75, -12.5, -12.25, -12.0, -11.75, -11.5, -11.25, -11.0, -10.75, -10.5, -10.25, -10.0, -9.75, -9.5, -9.25, -9.0, -8.75, -8.5, -8.25, -8.0, -7.75, -7.5, -7.25, -7.0, -6.75, -6.5, -6.25, -6.0]
Points per Scan: 2048
Sample Edge: 3
Scans Off Sample: [0, 1, 2]
Conversion Features: [(275, 17444.3), (309, 19608.3), (913, 57981.7), (934, 59318.24), (1058, 67244.3)]
Degree of Fit: 3
Fit Coeffecients: [ 8.59183e-07 -0.001482  64.3003 -144.207]
pH: Low
Steel Fiber: True
Aging Temp.: 60
Aging Atm.: 100% CO2
Aging Humidity: None
Aging Time: 2

*********
#Bins	Energy [keV]	Avg. Background	-12.25	-12.0	-11.75	-11.5	-11.25	-11.0	-10.75	-10.5	-10.25	-10.0	-9.75	-9.5	-9.25	-9.0	-8.75	-8.5	-8.25	-8.0	-7.75	-7.5	-7.25	-7.0	-6.75	-6.5	-6.25	-6.0
6	0.242	1823.67	-8.67	-81.67	36.33	29.33	45.33	-111.67	-112.67	19.33	14.33	-44.67	11.33	-120.67	26.33	54.33	100.33	27.33	4.33	-57.67	-21.67	49.33	56.33	85.33	77.33	99.33	25.33	46.33
13	0.691	1240.33	-8.33	22.67	-1.33	-33.33	-0.33	-36.33	0.67	20.67	28.67	-19.33	-3.33	28.67	-55.33	-6.33	21.67	33.67	-7.33	-30.33	16.67	57.67	8.67	61.67	-66.33	38.67	-60.33	65.67
20	1.141	328.67	-20.67	-33.67	-17.67	21.33	-2.67	-37.67	-10.67	-21.67	-27.67	4.33	1.33	-26.67	-13.67	-54.67	29.33	11.33	-23.67	-2.67	-11.67	-44.67	2.33	-12.67	-23.67	2.33	-24.67	-4.67
27	1.591	47.67	17.33	-0.67	1.33	-1.67	0.33	-2.67	2.33	5.33	10.33	11.33	-1.67	0.33	10.33	-0.67	-0.67	0.33	19.33	-1.67	5.33	7.33	-2.67	15.33	-7.67	5.33	7.33	10.33
34	2.04	6.67	-1.67	-3.67	2.33	-4.67	-1.67	6.33	-0.67	-2.67	1.33	-1.67	-2.67	-1.67	-3.67	4.33	1.33	0.33	-0.67	0.33	3.33	0.33	7.33	-0.67	0.33	-1.67	-0.67	1.33
41	2.49	0.33	-0.33	2.67	0.67	0.67	-0.33	1.67	0.67	-0.33	0.67	0.67	-0.33	0.67	-0.33	1.67	0.67	0.67	-0.33	0.67	-0.33	0.67	3.67	-0.33	-0.33	-0.33	-0.33	2.67
48	2.939	1.33	-1.33	-1.33	-0.33	-1.33	-1.33	-0.33	-1.33	-0.33	0.67	-1.33	-0.33	-0.33	-1.33	0.67	-1.33	-0.33	-1.33	-1.33	-1.33	0.67	-1.33	-1.33	-1.33	-1.33	-0.33	-1.33
55	3.388	0.0	1.0	0.0	0.0	1.0	1.0	0.0	0.0	0.0	0.0	0.0	1.0	1.0	0.0	2.0	1.0	0.0	1.0	0.0	1.0	1.0	0.0	0.0	1.0	1.0	0.0	0.0
62	3.837	0.0	1.0	1.0	0.0	0.0	1.0	0.0	1.0	0.0	1.0	0.0	0.0	2.0	0.0	0.0	0.0	2.0	0.0	0.0	0.0	1.0	0.0	1.0	1.0	0.0	0.0	0.0
69	4.286	1.0	0.0	-1.0	-1.0	0.0	0.0	0.0	0.0	0.0	0.0	-1.0	0.0	-1.0	-1.0	0.0	-1.0	-1.0	-1.0	-1.0	-1.0	0.0	0.0	-1.0	0.0	-1.0	-1.0	3.0
76	4.734	0.0	0.0	0.0	0.0	0.0	0.0	0.0	0.0	0.0	1.0	0.0	2.0	0.0	1.0	0.0	0.0	1.0	1.0	1.0	0.0	0.0	0.0	0.0	1.0	0.0	0.0	0.0
83	5.183	0.67	1.33	0.33	1.33	-0.67	-0.67	0.33	-0.67	-0.67	-0.67	-0.67	1.33	0.33	0.33	1.33	-0.67	-0.67	1.33	-0.67	0.33	-0.67	0.33	0.33	1.33	-0.67	0.33	-0.67
90	5.631	1.33	-1.33	0.67	-1.33	1.67	-0.33	-1.33	-0.33	-0.33	-0.33	-1.33	-1.33	-0.33	-0.33	0.67	-0.33	-1.33	-0.33	-0.33	-0.33	0.67	-1.33	-0.33	-1.33	-1.33	-0.33	0.67
97	6.08	0.0	0.0	2.0	0.0	0.0	2.0	0.0	3.0	0.0	2.0	2.0	0.0	0.0	1.0	0.0	1.0	0.0	2.0	1.0	1.0	2.0	1.0	0.0	2.0	4.0	2.0	2.0
104	6.528	0.67	1.33	0.33	-0.67	2.33	0.33	2.33	0.33	3.33	0.33	-0.67	0.33	0.33	0.33	0.33	1.33	-0.67	0.33	1.33	1.33	2.33	-0.67	0.33	0.33	-0.67	0.33	1.33
111	6.976	1.33	0.67	2.67	0.67	0.67	0.67	0.67	0.67	-0.33	4.67	3.67	0.67	0.67	3.67	2.67	2.67	2.67	1.67	1.67	3.67	0.67	0.67	1.67	-1.33	1.67	-1.33	0.67
118	7.424	2.67	2.33	2.33	-0.67	0.33	2.33	0.33	0.33	2.33	-2.67	0.33	1.33	-0.67	-1.67	3.33	5.33	-0.67	2.33	1.33	-0.67	2.33	0.33	0.33	-0.67	1.33	4.33	-0.67
125	7.872	2.33	3.67	-0.33	1.67	1.67	1.67	2.67	-0.33	1.67	1.67	3.67	6.67	0.67	-1.33	-0.33	2.67	0.67	5.67	0.67	4.67	2.67	4.67	0.67	4.67	5.67	-0.33	5.67
132	8.32	5.67	-1.67	0.33	-1.67	1.33	0.33	0.33	3.33	2.33	0.33	1.33	3.33	2.33	0.33	4.33	0.33	-2.67	0.33	-0.67	3.33	0.33	-2.67	7.33	-5.67	1.33	-1.67	2.33
139	8.767	5.33	2.67	-1.33	6.67	0.67	5.67	5.67	3.67	6.67	0.67	6.67	7.67	2.67	1.67	-0.33	7.67	-1.33	8.67	4.67	8.67	0.67	1.67	2.67	9.67	-0.33	1.67	5.67
146	9.215	8.33	5.67	0.67	0.67	2.67	0.67	4.67	-0.33	0.67	4.67	-2.33	0.67	4.67	2.67	3.67	4.67	1.67	1.67	6.67	3.67	2.67	0.67	0.67	-2.33	3.67	2.67	4.67
153	9.662	7.67	4.33	1.33	3.33	0.33	7.33	0.33	3.33	3.33	6.33	4.33	-1.67	4.33	4.33	5.33	6.33	10.33	7.33	4.33	2.33	13.33	4.33	8.33	4.33	7.33	3.33	4.33
160	10.109	9.33	-4.33	0.67	2.67	-4.33	-2.33	1.67	6.67	10.67	0.67	-1.33	0.67	1.67	-0.33	3.67	6.67	0.67	4.67	5.67	2.67	2.67	1.67	2.67	4.67	0.67	0.67	-6.33
167	10.557	9.67	-1.67	-3.67	3.33	2.33	8.33	-1.67	2.33	-2.67	0.33	-1.67	5.33	-1.67	1.33	9.33	-0.67	0.33	2.33	9.33	6.33	3.33	-3.67	8.33	1.33	4.33	6.33	0.33
174	11.004	11.67	1.33	-3.67	-1.67	0.33	4.33	-1.67	-1.67	-3.67	3.33	-1.67	-3.67	2.33	-1.67	4.33	4.33	0.33	5.33	-3.67	0.33	11.33	1.33	-4.67	-0.67	0.33	1.33	0.33
181	11.451	7.33	6.67	0.67	7.67	6.67	2.67	2.67	0.67	2.67	5.67	1.67	4.67	2.67	9.67	12.67	1.67	-1.33	6.67	1.67	8.67	6.67	2.67	7.67	7.67	10.67	4.67	9.67
188	11.898	6.33	7.67	6.67	3.67	5.67	3.67	5.67	12.67	-1.33	8.67	4.67	0.67	1.67	4.67	6.67	6.67	10.67	4.67	5.67	10.67	3.67	9.67	4.67	4.67	4.67	6.67	10.67
195	12.344	7.33	0.67	2.67	1.67	5.67	3.67	2.67	-1.33	1.67	4.67	-1.33	5.67	5.67	8.67	6.67	4.67	1.67	2.67	14.67	5.67	-0.33	4.67	-0.33	3.67	-0.33	6.67	7.67
202	12.791	8.0	2.0	8.0	9.0	8.0	4.0	6.0	5.0	7.0	9.0	3.0	6.0	12.0	12.0	3.0	5.0	6.0	5.0	5.0	10.0	-1.0	-4.0	4.0	8.0	8.0	3.0	5.0
209	13.238	9.0	0.0	1.0	0.0	5.0	-1.0	6.0	7.0	5.0	-2.0	1.0	8.0	-4.0	0.0	3.0	7.0	6.0	7.0	2.0	4.0	4.0	3.0	13.0	2.0	7.0	3.0	3.0
216	13.684	10.33	2.67	1.67	0.67	-1.33	6.67	-2.33	-3.33	0.67	-1.33	7.67	5.67	2.67	3.67	-1.33	3.67	5.67	7.67	4.67	2.67	9.67	-2.33	6.67	2.67	-4.33	5.67	1.67
223	14.131	10.67	-1.67	0.33	5.33	6.33	-2.67	3.33	0.33	3.33	-4.67	-2.67	0.33	3.33	2.33	0.33	11.33	2.33	5.33	4.33	2.33	3.33	4.33	5.33	0.33	3.33	-0.67	-0.67
230	14.577	7.0	7.0	6.0	4.0	8.0	6.0	6.0	6.0	8.0	6.0	4.0	9.0	5.0	3.0	8.0	3.0	4.0	6.0	1.0	5.0	3.0	6.0	7.0	9.0	6.0	13.0	4.0
237	15.023	12.33	-2.33	2.67	2.67	-5.33	-2.33	2.67	-1.33	-4.33	-0.33	-4.33	-3.33	-1.33	3.67	-1.33	-2.33	-3.33	4.67	-0.33	-1.33	8.67	-1.33	-0.33	9.67	0.67	3.67	3.67
244	15.469	7.67	-0.67	6.33	3.33	7.33	3.33	4.33	1.33	8.33	3.33	7.33	6.33	2.33	11.33	0.33	3.33	4.33	1.33	0.33	9.33	8.33	2.33	4.33	9.33	-1.67	3.33	8.33
251	15.915	13.0	-3.0	-1.0	-5.0	2.0	-1.0	-1.0	3.0	1.0	0.0	0.0	2.0	2.0	-5.0	-4.0	1.0	1.0	1.0	1.0	-2.0	-3.0	-2.0	-3.0	6.0	4.0	3.0	3.0
258	16.361	10.33	-0.33	-0.33	0.67	1.67	-0.33	7.67	5.67	5.67	0.67	0.67	0.67	1.67	-0.33	-2.33	0.67	-1.33	2.67	-3.33	2.67	5.67	-0.33	4.67	4.67	8.67	2.67	-1.33
265	16.807	6.67	-2.67	2.33	6.33	5.33	11.33	7.33	6.33	6.33	8.33	12.33	5.33	9.33	0.33	16.33	10.33	2.33	6.33	3.33	2.33	9.33	2.33	4.33	7.33	9.33	8.33	5.33
272	17.253	9.33	3.67	3.67	0.67	5.67	0.67	1.67	4.67	3.67	2.67	0.67	-1.33	-0.33	-0.33	-1.33	-2.33	2.67	5.67	1.67	6.67	-2.33	2.67	1.67	-2.33	7.67	5.67	1.67
279	17.699	8.0	6.0	7.0	5.0	4.0	6.0	2.0	4.0	2.0	10.0	3.0	1.0	9.0	0.0	5.0	1.0	0.0	9.0	12.0	2.0	7.0	9.0	6.0	8.0	6.0	7.0	4.0
286	18.145	11.0	-1.0	-4.0	0.0	7.0	5.0	-5.0	-1.0	8.0	0.0	0.0	-1.0	1.0	-4.0	2.0	-4.0	5.0	1.0	0.0	-1.0	-4.0	2.0	2.0	7.0	-5.0	-3.0	0.0
293	18.59	9.33	2.67	1.67	0.67	4.67	-0.33	1.67	-2.33	3.67	5.67	-0.33	5.67	4.67	8.67	-1.33	2.67	3.67	0.67	-0.33	9.67	1.67	-0.33	2.67	-1.33	3.67	4.67	-1.33
300	19.036	8.67	-0.67	7.33	2.33	8.33	-1.67	4.33	-0.67	2.33	8.33	4.33	11.33	5.33	-1.67	5.33	5.33	-2.67	3.33	2.33	3.33	3.33	5.33	2.33	3.33	-1.67	9.33	4.33
307	19.481	9.67	-3.67	5.33	2.33	1.33	5.33	3.33	0.33	-4.67	3.33	4.33	3.33	4.33	1.33	2.33	-1.67	4.33	9.33	1.33	0.33	2.33	-1.67	3.33	0.33	0.33	4.33	4.33
314	19.927	9.0	1.0	0.0	2.0	0.0	6.0	0.0	-3.0	5.0	6.0	11.0	1.0	5.0	2.0	1.0	6.0	1.0	-1.0	4.0	7.0	4.0	3.0	0.0	3.0	8.0	4.0	3.0
321	20.372	7.67	6.33	1.33	4.33	3.33	4.33	6.33	6.33	4.33	-1.67	10.33	8.33	1.33	6.33	7.33	6.33	-0.67	2.33	1.33	3.33	5.33	11.33	0.33	8.33	4.33	4.33	4.33
328	20.817	7.67	4.33	1.33	-1.67	5.33	0.33	3.33	1.33	-0.67	10.33	-0.67	0.33	3.33	5.33	5.33	-0.67	2.33	0.33	4.33	1.33	0.33	5.33	1.33	7.33	1.33	6.33	5.33
335	21.262	5.67	6.33	3.33	6.33	7.33	4.33	3.33	9.33	11.33	2.33	4.33	7.33	4.33	7.33	4.33	2.33	2.33	3.33	3.33	6.33	5.33	3.33	2.33	5.33	0.33	7.33	6.33
342	21.708	10.33	-2.33	-4.33	0.67	0.67	-2.33	-0.33	-0.33	2.67	-0.33	-0.33	-4.33	1.67	2.67	-3.33	4.67	3.67	-6.33	0.67	-0.33	-2.33	9.67	-1.33	0.67	6.67	4.67	2.67
349	22.153	12.67	-3.67	3.33	8.33	-3.67	-1.67	2.33	-4.67	-3.67	-0.67	-0.67	-0.67	5.33	-0.67	0.33	0.33	-1.67	-2.67	-4.67	2.33	-1.67	0.33	-1.67	-3.67	-6.67	-7.67	-1.67
356	22.598	7.0	0.0	-1.0	2.0	6.0	4.0	0.0	4.0	3.0	7.0	2.0	7.0	4.0	9.0	4.0	9.0	6.0	3.0	2.0	2.0	2.0	-1.0	3.0	1.0	10.0	1.0	5.0
363	23.043	7.0	0.0	3.0	6.0	0.0	4.0	0.0	-2.0	2.0	4.0	1.0	6.0	3.0	3.0	0.0	7.0	3.0	4.0	-1.0	3.0	4.0	5.0	4.0	5.0	4.0	10.0	5.0
370	23.488	9.33	-3.33	-3.33	-1.33	5.67	1.67	0.67	-4.33	-1.33	0.67	-1.33	-3.33	-1.33	3.67	-2.33	3.67	-0.33	-0.33	0.67	11.67	6.67	-1.33	2.67	2.67	1.67	2.67	8.67
377	23.932	7.33	1.67	1.67	5.67	2.67	-3.33	-2.33	1.67	7.67	2.67	0.67	5.67	7.67	-1.33	2.67	0.67	5.67	1.67	2.67	1.67	7.67	0.67	0.67	0.67	6.67	2.67	5.67
384	24.377	7.67	1.33	-3.67	1.33	3.33	-1.67	2.33	0.33	-0.67	-0.67	0.33	0.33	3.33	3.33	-2.67	-2.67	3.33	-1.67	5.33	3.33	-2.67	9.33	1.33	4.33	11.33	6.33	7.33
391	24.822	10.0	1.0	-2.0	0.0	-1.0	0.0	-5.0	-3.0	-6.0	3.0	-2.0	2.0	-1.0	2.0	-3.0	-4.0	-5.0	5.0	2.0	-1.0	1.0	-4.0	-2.0	1.0	8.0	0.0	2.0
398	25.267	7.33	2.67	-0.33	1.67	-1.33	4.67	-0.33	3.67	13.67	8.67	0.67	8.67	-0.33	4.67	0.67	3.67	2.67	-0.33	3.67	4.67	-2.33	1.67	2.67	2.67	-2.33	3.67	-1.33
405	25.711	7.0	0.0	1.0	8.0	0.0	-1.0	-3.0	0.0	0.0	-1.0	5.0	3.0	-2.0	3.0	3.0	4.0	-1.0	3.0	3.0	2.0	-1.0	3.0	9.0	8.0	-1.0	-2.0	3.0
412	26.156	8.33	-1.33	1.67	-3.33	1.67	3.67	-2.33	4.67	-3.33	6.67	-0.33	-0.33	2.67	-0.33	-0.33	-3.33	6.67	-1.33	-0.33	-0.33	-3.33	3.67	-1.33	2.67	2.67	4.67	0.67
419	26.601	8.33	-5.33	-3.33	-2.33	-0.33	1.67	-0.33	-4.33	-3.33	0.67	4.67	1.67	-0.33	1.67	-3.33	-3.33	4.67	-0.33	-0.33	3.67	0.67	9.67	-0.33	0.67	1.67	4.67	4.67
426	27.045	5.67	0.33	0.33	0.33	-0.67	0.33	5.33	0.33	-0.67	10.33	4.33	3.33	2.33	6.33	-0.67	-0.67	5.33	0.33	2.33	1.33	3.33	0.33	1.33	3.33	1.33	3.33	2.33
433	27.49	7.33	0.67	-3.33	-3.33	0.67	3.67	-4.33	-3.33	4.67	0.67	5.67	-1.33	1.67	1.67	-2.33	-0.33	0.67	2.67	-1.33	8.67	-0.33	0.67	0.67	-1.33	-2.33	0.67	0.67
440	27.934	9.33	-2.33	-4.33	-0.33	-2.33	1.67	-1.33	0.67	-3.33	4.67	-3.33	-2.33	-2.33	1.67	-3.33	-0.33	-0.33	1.67	-3.33	-0.33	-3.33	-1.33	-3.33	-1.33	-1.33	1.67	-2.33
447	28.379	5.67	3.33	8.33	-1.67	4.33	-0.67	-0.67	2.33	1.33	6.33	3.33	1.33	3.33	1.33	8.33	1.33	3.33	4.33	6.33	5.33	5.33	0.33	6.33	0.33	6.33	3.33	3.33
454	28.823	4.0	-2.0	13.0	1.0	2.0	3.0	8.0	0.0	5.0	2.0	11.0	4.0	1.0	2.0	1.0	6.0	3.0	5.0	5.0	4.0	1.0	9.0	4.0	8.0	4.0	1.0	5.0
461	29.267	5.33	-3.33	0.67	2.67	0.67	3.67	0.67	-1.33	-2.33	4.67	1.67	5.67	3.67	0.67	4.67	3.67	3.67	4.67	3.67	2.67	2.67	5.67	1.67	0.67	8.67	6.67	3.67
468	29.712	6.0	-1.0	0.0	1.0	1.0	-3.0	-2.0	6.0	-3.0	0.0	-3.0	1.0	6.0	1.0	2.0	1.0	4.0	0.0	3.0	5.0	6.0	3.0	3.0	4.0	-2.0	2.0	-2.0
475	30.156	4.33	1.67	5.67	-1.33	3.67	-2.33	7.67	3.67	0.67	-2.33	2.67	1.67	2.67	2.67	4.67	1.67	3.67	4.67	-2.33	-0.33	7.67	2.67	3.67	-0.33	4.67	3.67	6.67
482	30.6	5.33	0.67	-4.33	-0.33	2.67	3.67	-1.33	6.67	2.67	1.67	1.67	1.67	3.67	1.67	11.67	6.67	0.67	3.67	3.67	-0.33	-1.33	1.67	2.67	4.67	1.67	-0.33	4.67
489	31.045	7.33	-2.33	-1.33	-1.33	-3.33	-4.33	-1.33	0.67	-0.33	-2.33	-4.33	-2.33	-2.33	-3.33	-3.33	-0.33	-3.33	-3.33	0.67	0.67	4.67	3.67	-3.33	-0.33	0.67	-2.33	-1.33
496	31.489	5.67	0.33	-0.67	2.33	-0.67	-3.67	8.33	3.33	1.33	5.33	0.33	3.33	-1.67	-1.67	-1.67	3.33	-0.67	1.33	2.33	1.33	-3.67	3.33	1.33	-0.67	-1.67	-0.67	0.33
503	31.933	4.67	-1.67	2.33	0.33	1.33	3.33	8.33	3.33	1.33	3.33	0.33	0.33	2.33	3.33	0.33	9.33	-0.67	4.33	1.33	1.33	2.33	6.33	2.33	-0.67	2.33	2.33	2.33
510	32.377	6.0	0.0	0.0	-3.0	4.0	6.0	3.0	1.0	-2.0	0.0	3.0	1.0	-2.0	3.0	0.0	6.0	3.0	1.0	-1.0	4.0	5.0	2.0	2.0	3.0	-1.0	2.0	-1.0
517	32.822	4.0	3.0	1.0	3.0	1.0	1.0	0.0	1.0	6.0	3.0	3.0	5.0	5.0	0.0	3.0	2.0	3.0	-2.0	1.0	7.0	4.0	1.0	2.0	5.0	5.0	0.0	3.0
524	33.266	6.0	3.0	-1.0	-1.0	1.0	-4.0	-2.0	0.0	-2.0	2.0	7.0	0.0	-3.0	1.0	-3.0	3.0	1.0	1.0	0.0	0.0	0.0	-1.0	1.0	0.0	-4.0	2.0	6.0
531	33.71	6.67	-2.67	-3.67	-2.67	1.33	0.33	1.33	-4.67	1.33	-1.67	0.33	2.33	-3.67	1.33	0.33	-1.67	0.33	-0.67	-0.67	-1.67	-0.67	0.33	-0.67	-4.67	-0.67	2.33	-0.67
538	34.154	5.0	0.0	2.0	1.0	-1.0	0.0	2.0	-2.0	-2.0	2.0	-1.0	3.0	2.0	-2.0	4.0	-1.0	0.0	6.0	1.0	-3.0	-2.0	1.0	0.0	2.0	-3.0	-1.0	3.0
545	34.598	6.0	1.0	0.0	1.0	0.0	6.0	4.0	-1.0	5.0	2.0	-1.0	0.0	1.0	1.0	-3.0	1.0	-2.0	0.0	-4.0	2.0	-2.0	3.0	-2.0	-2.0	-1.0	2.0	0.0
552	35.043	3.33	-0.33	0.67	3.67	0.67	-0.33	1.67	3.67	3.67	2.67	1.67	1.67	3.67	1.67	-0.33	6.67	3.67	2.67	-1.33	3.67	2.67	4.67	7.67	3.67	0.67	1.67	2.67
559	35.487	5.67	-0.67	-2.67	-0.67	-0.67	3.33	5.33	1.33	4.33	2.33	1.33	0.33	-2.67	6.33	0.33	-2.67	-2.67	-0.67	-1.67	-0.67	0.33	-0.67	0.33	0.33	0.33	0.33	2.33
566	35.931	3.67	0.33	3.33	6.33	-1.67	0.33	-1.67	0.33	1.33	5.33	0.33	0.33	1.33	1.33	-0.67	-1.67	0.33	5.33	3.33	-1.67	2.33	7.33	0.33	2.33	1.33	0.33	1.33
573	36.375	6.67	1.33	-3.67	-3.67	-1.67	1.33	0.33	-2.67	0.33	2.33	-1.67	-2.67	-3.67	1.33	1.33	-2.67	2.33	-1.67	-3.67	2.33	-1.67	0.33	-0.67	-2.67	0.33	1.33	1.33
580	36.819	3.0	4.0	3.0	4.0	0.0	4.0	1.0	1.0	6.0	3.0	4.0	0.0	1.0	1.0	0.0	6.0	5.0	2.0	1.0	1.0	1.0	1.0	2.0	4.0	2.0	5.0	0.0
587	37.263	5.0	3.0	0.0	0.0	4.0	0.0	5.0	4.0	0.0	-2.0	-4.0	0.0	0.0	0.0	0.0	-1.0	0.0	-2.0	1.0	2.0	-1.0	8.0	-2.0	1.0	4.0	4.0	5.0
594	37.707	4.67	5.33	-4.67	0.33	2.33	-0.67	0.33	1.33	-0.67	4.33	2.33	3.33	-0.67	4.33	1.33	-1.67	4.33	1.33	2.33	-0.67	0.33	8.33	-0.67	-0.67	3.33	0.33	2.33
601	38.152	6.67	-5.67	-0.67	-2.67	-0.67	0.33	-2.67	-3.67	2.33	-1.67	-1.67	-2.67	-5.67	-2.67	-2.67	-2.67	-0.67	-0.67	-0.67	-3.67	2.33	-4.67	0.33	-3.67	-0.67	-1.67	1.33
608	38.596	3.33	0.67	0.67	4.67	6.67	-0.33	0.67	0.67	2.67	4.67	1.67	0.67	0.67	1.67	3.67	4.67	6.67	1.67	3.67	3.67	10.67	2.67	1.67	-0.33	0.67	8.67	-1.33
615	39.04	3.67	-2.67	5.33	-0.67	1.33	-1.67	5.33	-1.67	2.33	-0.67	4.33	2.33	-1.67	1.33	1.33	5.33	5.33	2.33	0.33	4.33	5.33	1.33	1.33	4.33	3.33	1.33	6.33
622	39.484	4.67	-1.67	-3.67	4.33	7.33	0.33	2.33	1.33	2.33	4.33	-0.67	1.33	0.33	1.33	3.33	2.33	6.33	-0.67	1.33	-0.67	5.33	2.33	1.33	3.33	1.33	4.33	-1.67
629	39.928	5.67	-1.67	-2.67	2.33	3.33	-1.67	0.33	0.33	-2.67	0.33	0.33	1.33	-3.67	2.33	4.33	0.33	-0.67	-1.67	-2.67	2.33	0.33	-1.67	1.33	2.33	-3.67	1.33	2.33
636	40.372	7.0	-5.0	-3.0	-2.0	-2.0	-1.0	-2.0	2.0	-5.0	-1.0	-2.0	-1.0	-3.0	-2.0	-2.0	-3.0	-2.0	0.0	-3.0	-2.0	-2.0	-5.0	-3.0	2.0	-4.0	-3.0	-2.0
643	40.817	9.0	-5.0	-4.0	-2.0	-3.0	-1.0	-8.0	-6.0	0.0	-4.0	-5.0	-8.0	1.0	-4.0	-2.0	-4.0	0.0	-4.0	-3.0	-5.0	-4.0	-1.0	-5.0	3.0	-1.0	-1.0	-2.0
650	41.261	5.67	2.33	-1.67	-0.67	-1.67	0.33	2.33	0.33	-4.67	-0.67	1.33	-3.67	0.33	1.33	-3.67	-2.67	-2.67	-2.67	2.33	-0.67	2.33	-4.67	-0.67	1.33	-2.67	-2.67	3.33
657	41.705	6.67	-1.67	-0.67	-2.67	-3.67	-0.67	-5.67	-0.67	-1.67	-0.67	0.33	-3.67	-1.67	-3.67	3.33	1.33	-2.67	0.33	-1.67	1.33	0.33	2.33	0.33	1.33	1.33	-2.67	-0.67
664	42.149	5.67	5.33	0.33	0.33	0.33	-0.67	-0.67	0.33	-0.67	-1.67	0.33	1.33	-2.67	-0.67	-0.67	-0.67	3.33	2.33	0.33	1.33	-1.67	2.33	2.33	11.33	0.33	3.33	2.33
671	42.594	6.0	3.0	0.0	-1.0	6.0	5.0	1.0	-1.0	8.0	-1.0	0.0	-1.0	-1.0	-1.0	2.0	-2.0	-1.0	-2.0	1.0	-2.0	-1.0	0.0	-1.0	2.0	3.0	0.0	1.0
678	43.038	6.67	1.33	-0.67	3.33	-0.67	4.33	-2.67	-1.67	0.33	-0.67	0.33	-0.67	-3.67	-3.67	-0.67	-2.67	-2.67	0.33	1.33	-1.67	-2.67	-1.67	-5.67	2.33	0.33	-3.67	-0.67
685	43.482	8.33	-3.33	0.67	-0.33	-5.33	-1.33	-5.33	-4.33	0.67	-5.33	-1.33	-1.33	-0.33	-1.33	-3.33	-2.33	0.67	-4.33	-2.33	-3.33	-4.33	-4.33	-3.33	0.67	-1.33	-1.33	-2.33
692	43.927	9.0	-2.0	-6.0	-4.0	3.0	1.0	-4.0	-1.0	0.0	-2.0	-4.0	-1.0	-6.0	2.0	4.0	-4.0	-4.0	-1.0	-1.0	-5.0	-2.0	-5.0	-2.0	-3.0	-3.0	2.0	-6.0
699	44.371	7.0	2.0	-3.0	2.0	-3.0	-3.0	0.0	1.0	1.0	0.0	-1.0	-4.0	-2.0	-2.0	-2.0	1.0	0.0	2.0	0.0	0.0	0.0	-2.0	-4.0	0.0	0.0	2.0	-2.0
706	44.815	7.67	1.33	-0.67	1.33	2.33	2.33	3.33	-0.67	0.33	5.33	-5.67	0.33	1.33	-2.67	0.33	-2.67	-2.67	0.33	-2.67	0.33	-4.67	-1.67	-1.67	0.33	0.33	-2.67	1.33
713	45.26	12.33	-2.33	-5.33	-5.33	-4.33	-4.33	-5.33	-1.33	-1.33	-0.33	-7.33	-4.33	-4.33	-0.33	0.67	-9.33	-5.33	-7.33	-6.33	-2.33	-5.33	-2.33	-0.33	-2.33	-4.33	-6.33	-9.33
720	45.704	8.33	4.67	-2.33	1.67	-1.33	3.67	0.67	-1.33	-0.33	-1.33	-0.33	-3.33	-0.33	-5.33	-3.33	-1.33	-1.33	-3.33	-2.33	-1.33	-0.33	-2.33	4.67	1.67	-1.33	2.67	-3.33
727	46.149	9.33	-1.33	-3.33	6.67	-1.33	-1.33	-4.33	0.67	-3.33	3.67	-5.33	0.67	-1.33	-4.33	0.67	-0.33	1.67	-2.33	-0.33	-3.33	1.67	-2.33	-2.33	-0.33	-1.33	-0.33	-1.33
734	46.594	8.67	-0.67	5.33	-4.67	-2.67	-1.67	1.33	-2.67	-3.67	4.33	4.33	0.33	0.33	0.33	0.33	-1.67	-3.67	0.33	-2.67	-0.67	-1.67	2.33	-1.67	-3.67	2.33	3.33	-3.67
741	47.038	8.33	-1.33	1.67	3.67	-0.33	3.67	-3.33	3.67	-1.33	8.67	-0.33	-2.33	4.67	0.67	2.67	-1.33	2.67	-2.33	0.67	-2.33	-3.33	-5.33	-1.33	-3.33	0.67	-3.33	-2.33
748	47.483	10.33	4.67	-4.33	-5.33	-0.33	-0.33	-4.33	-5.33	0.67	2.67	-3.33	-3.33	1.67	-7.33	-0.33	2.67	-4.33	-4.33	1.67	-3.33	4.67	0.67	-6.33	-3.33	-4.33	4.67	-1.33
755	47.928	9.0	2.0	-1.0	-1.0	2.0	0.0	0.0	-1.0	0.0	0.0	-2.0	6.0	-4.0	0.0	-3.0	-1.0	-2.0	-4.0	-2.0	-4.0	-2.0	-1.0	-3.0	3.0	2.0	1.0	0.0
762	48.372	11.67	4.33	3.33	-5.67	-4.67	-4.67	-5.67	-6.67	-5.67	-1.67	-0.67	-5.67	-4.67	-4.67	-1.67	-1.67	-1.67	-5.67	-4.67	-4.67	-4.67	-3.67	-3.67	-5.67	-6.67	3.33	-0.67
769	48.817	14.0	1.0	0.0	0.0	-7.0	-5.0	-8.0	-7.0	-10.0	-8.0	-4.0	-5.0	-8.0	-5.0	-5.0	-7.0	5.0	-5.0	-4.0	-7.0	-3.0	-7.0	-8.0	-6.0	-5.0	-6.0	-8.0
776	49.262	11.0	0.0	-6.0	-5.0	-3.0	-3.0	-4.0	-3.0	-2.0	-3.0	-1.0	1.0	1.0	-3.0	2.0	-1.0	-3.0	-4.0	-1.0	-3.0	0.0	-3.0	-1.0	-2.0	-4.0	2.0	4.0
783	49.707	15.67	-1.67	2.33	1.33	-3.67	-3.67	-1.67	-4.67	-0.67	-11.67	-5.67	-5.67	-7.67	-7.67	-7.67	-5.67	0.33	-7.67	-4.67	-3.67	-3.67	-6.67	-12.67	-5.67	-4.67	-5.67	3.33
790	50.152	14.0	-3.0	-4.0	-1.0	2.0	-1.0	-8.0	-7.0	1.0	-4.0	-3.0	-1.0	-2.0	-3.0	0.0	-8.0	-4.0	0.0	-1.0	-8.0	-3.0	-4.0	-1.0	0.0	-2.0	-7.0	-5.0
797	50.597	11.67	10.33	0.33	12.33	-0.67	-0.67	-0.67	-0.67	7.33	-4.67	-4.67	-3.67	0.33	-0.67	-3.67	-3.67	-5.67	-0.67	-9.67	4.33	2.33	-3.67	2.33	-2.67	-2.67	-6.67	3.33
804	51.042	11.67	4.33	-0.67	1.33	0.33	0.33	7.33	8.33	5.33	-0.67	6.33	-1.67	-1.67	1.33	-7.67	-3.67	-1.67	2.33	-4.67	2.33	-4.67	-4.67	-3.67	-4.67	-4.67	-4.67	-0.67
811	51.487	17.67	-4.67	-6.67	-4.67	-3.67	-10.67	-2.67	-1.67	-12.67	-5.67	-6.67	1.33	-2.67	-4.67	-5.67	-9.67	-8.67	-7.67	-4.67	-7.67	-2.67	-11.67	-6.67	-6.67	-5.67	-11.67	-7.67
818	51.932	11.0	2.0	-3.0	0.0	0.0	-2.0	1.0	4.0	6.0	-2.0	4.0	-1.0	1.0	2.0	0.0	-4.0	0.0	3.0	-2.0	2.0	0.0	1.0	-2.0	-8.0	7.0	-2.0	1.0
825	52.377	13.67	2.33	-4.67	-1.67	0.33	-0.67	-2.67	3.33	-1.67	-2.67	2.33	-2.67	1.33	-0.67	0.33	0.33	-2.67	-2.67	-4.67	-4.67	-4.67	-11.67	-0.67	0.33	-3.67	-0.67	0.33
832	52.823	12.33	-3.33	-2.33	1.67	1.67	-2.33	-2.33	6.67	4.67	2.67	-4.33	1.67	4.67	-0.33	7.67	-1.33	-2.33	-1.33	-0.33	-4.33	-4.33	3.67	2.67	-1.33	-0.33	-0.33	-0.33
839	53.268	17.33	-5.33	-13.33	-8.33	-7.33	-9.33	-7.33	-6.33	0.67	-6.33	1.67	2.67	-4.33	-5.33	-6.33	-4.33	-3.33	-4.33	-5.33	-6.33	-7.33	2.67	-5.33	-3.33	-5.33	-9.33	-9.33
846	53.713	17.0	-5.0	-5.0	-9.0	4.0	0.0	-3.0	-2.0	4.0	-7.0	-2.0	2.0	-5.0	-3.0	-9.0	-1.0	-6.0	0.0	-9.0	-5.0	-2.0	-12.0	-3.0	-6.0	-5.0	-3.0	-6.0
853	54.159	16.67	0.33	-0.67	-2.67	-4.67	7.33	2.33	-4.67	0.33	6.33	-1.67	-1.67	-2.67	-0.67	-4.67	-9.67	0.33	-3.67	-2.67	-9.67	-5.67	-1.67	-1.67	-5.67	-5.67	-3.67	-5.67
860	54.604	16.67	-6.67	-0.67	-1.67	-4.67	-0.67	-0.67	2.33	0.33	0.33	-7.67	2.33	-1.67	1.33	-7.67	-3.67	0.33	-1.67	1.33	-8.67	-1.67	1.33	-2.67	-4.67	-1.67	-7.67	9.33
867	55.05	21.0	-3.0	-7.0	-7.0	-9.0	-10.0	-4.0	-8.0	-2.0	-7.0	-4.0	-3.0	-4.0	-8.0	-6.0	-10.0	-6.0	0.0	-8.0	-9.0	-9.0	-6.0	-5.0	-6.0	-12.0	-6.0	-8.0
874	55.496	17.67	-5.67	-11.67	-7.67	2.33	-5.67	-0.67	-1.67	3.33	-1.67	-3.67	-2.67	-1.67	0.33	-1.67	3.33	-7.67	-4.67	-0.67	-2.67	-5.67	-8.67	-9.67	-1.67	-4.67	-9.67	-4.67
881	55.942	16.67	9.33	-6.67	4.33	10.33	-3.67	-1.67	-5.67	4.33	-3.67	4.33	-3.67	-3.67	-3.67	-3.67	-5.67	4.33	-4.67	5.33	-6.67	-4.67	-2.67	-0.67	-2.67	-3.67	-5.67	-2.67
888	56.387	20.0	-2.0	-12.0	-14.0	-3.0	-1.0	-6.0	1.0	-9.0	-2.0	-10.0	-4.0	-12.0	-5.0	-1.0	-5.0	-6.0	-6.0	4.0	-3.0	-3.0	-10.0	-1.0	-3.0	-1.0	-5.0	-6.0
895	56.833	16.33	0.67	-1.33	-0.33	3.67	2.67	-4.33	-0.33	5.67	3.67	8.67	0.67	5.67	0.67	-1.33	-7.33	-5.33	-3.33	0.67	4.67	-4.33	-0.33	0.67	2.67	-1.33	-1.33	-5.33
902	57.279	16.0	0.0	-7.0	0.0	10.0	-5.0	3.0	3.0	-3.0	3.0	9.0	2.0	-2.0	12.0	0.0	-2.0	6.0	1.0	0.0	-4.0	-9.0	2.0	0.0	-2.0	12.0	-8.0	-1.0
909	57.726	17.67	6.33	-0.67	-6.67	2.33	4.33	4.33	7.33	-2.67	1.33	1.33	2.33	5.33	11.33	11.33	2.33	5.33	-6.67	2.33	1.33	-2.67	0.33	0.33	9.33	-1.67	-2.67	-0.67
916	58.172	22.33	-5.33	-12.33	-12.33	-1.33	-6.33	0.67	0.67	1.67	-0.33	-3.33	-6.33	-3.33	-2.33	-12.33	3.67	-4.33	5.67	0.67	-5.33	-7.33	-8.33	-1.33	2.67	1.67	-4.33	-4.33
923	58.618	23.33	-1.33	-2.33	-0.33	3.67	2.67	-5.33	4.67	-6.33	11.67	1.67	6.67	3.67	-0.33	-4.33	-8.33	-1.33	8.67	2.67	-4.33	-7.33	-1.33	-3.33	-2.33	-4.33	-12.33	-6.33
930	59.064	21.0	3.0	22.0	25.0	52.0	38.0	53.0	16.0	2.0	14.0	34.0	45.0	44.0	31.0	21.0	15.0	28.0	37.0	54.0	33.0	11.0	22.0	14.0	15.0	0.0	21.0	10.0
937	59.511	21.67	2.33	49.33	76.33	54.33	46.33	56.33	23.33	18.33	22.33	7.33	28.33	42.33	66.33	72.33	98.33	71.33	89.33	96.33	83.33	63.33	35.33	47.33	37.33	36.33	25.33	25.33
944	59.957	17.0	10.0	17.0	68.0	75.0	28.0	26.0	34.0	43.0	33.0	10.0	23.0	37.0	80.0	141.0	165.0	80.0	32.0	60.0	62.0	37.0	36.0	45.0	82.0	69.0	37.0	8.0
951	60.404	19.33	2.67	6.67	10.67	31.67	8.67	4.67	8.67	20.67	19.67	-0.33	6.67	16.67	21.67	50.67	50.67	23.67	-1.33	8.67	9.67	8.67	-3.33	25.67	30.67	47.67	9.67	-5.33
958	60.851	17.67	3.33	-4.67	-6.67	-0.67	-0.67	-2.67	9.33	9.33	-4.67	-2.67	0.33	-5.67	4.33	-0.67	7.33	3.33	3.33	-0.67	3.33	1.33	-6.67	3.33	6.33	11.33	6.33	3.33
965	61.298	18.0	5.0	-6.0	-1.0	-7.0	-5.0	2.0	7.0	6.0	7.0	-3.0	-3.0	-1.0	4.0	3.0	-2.0	4.0	-1.0	-2.0	0.0	0.0	9.0	3.0	3.0	1.0	-1.0	-8.0
972	61.745	17.67	2.33	-7.67	-3.67	5.33	6.33	16.33	11.33	8.33	6.33	7.33	13.33	3.33	-1.67	5.33	6.33	6.33	18.33	21.33	6.33	3.33	6.33	1.33	4.33	1.33	-4.67	0.33
979	62.192	14.0	4.0	-4.0	7.0	20.0	34.0	39.0	15.0	23.0	21.0	12.0	21.0	26.0	11.0	21.0	16.0	39.0	52.0	61.0	42.0	32.0	18.0	11.0	2.0	16.0	10.0	-6.0
986	62.639	13.67	8.33	1.33	19.33	35.33	69.33	69.33	30.33	18.33	30.33	20.33	31.33	39.33	35.33	29.33	48.33	57.33	53.33	75.33	38.33	32.33	10.33	41.33	26.33	38.33	16.33	20.33
993	63.086	21.0	-1.0	-10.0	21.0	16.0	47.0	51.0	34.0	24.0	16.0	14.0	29.0	44.0	44.0	33.0	52.0	25.0	24.0	27.0	20.0	15.0	7.0	16.0	2.0	67.0	19.0	15.0
1000	63.533	13.33	9.67	3.67	7.67	14.67	25.67	28.67	7.67	12.67	20.67	11.67	26.67	19.67	43.67	32.67	23.67	23.67	17.67	24.67	15.67	9.67	19.67	3.67	14.67	39.67	24.67	18.67
1007	63.981	18.0	8.0	-10.0	4.0	10.0	-7.0	6.0	0.0	-1.0	5.0	8.0	-4.0	6.0	4.0	13.0	11.0	5.0	3.0	9.0	-2.0	1.0	8.0	1.0	9.0	10.0	0.0	0.0
1014	64.428	12.33	12.67	5.67	7.67	11.67	9.67	13.67	7.67	8.67	8.67	8.67	7.67	11.67	10.67	14.67	5.67	3.67	7.67	1.67	7.67	8.67	-0.33	7.67	14.67	-0.33	16.67	13.67
1021	64.876	18.33	12.67	2.67	5.67	9.67	13.67	7.67	15.67	0.67	17.67	7.67	13.67	12.67	2.67	1.67	10.67	16.67	4.67	5.67	14.67	5.67	1.67	-3.33	-3.33	-0.33	11.67	14.67
1028	65.324	18.67	9.33	-0.67	12.33	6.33	4.33	16.33	12.33	8.33	6.33	-2.67	0.33	6.33	9.33	12.33	8.33	1.33	13.33	5.33	0.33	12.33	5.33	6.33	3.33	4.33	2.33	3.33
1035	65.772	17.67	3.33	6.33	9.33	7.33	8.33	7.33	17.33	11.33	12.33	2.33	14.33	12.33	10.33	4.33	15.33	0.33	-5.67	-1.67	1.33	0.33	8.33	6.33	7.33	0.33	-3.67	4.33
1042	66.22	10.67	15.33	6.33	19.33	19.33	24.33	18.33	22.33	23.33	18.33	20.33	16.33	11.33	10.33	9.33	10.33	20.33	13.33	16.33	13.33	18.33	9.33	18.33	10.33	7.33	16.33	8.33
1049	66.668	19.0	9.0	7.0	5.0	9.0	19.0	38.0	31.0	18.0	13.0	24.0	12.0	32.0	30.0	15.0	4.0	7.0	4.0	6.0	-3.0	10.0	17.0	5.0	17.0	18.0	0.0	6.0
1056	67.116	21.33	11.67	6.67	7.67	21.67	17.67	83.67	96.67	36.67	20.67	36.67	54.67	63.67	46.67	31.67	12.67	26.67	19.67	21.67	11.67	9.67	11.67	8.67	22.67	15.67	4.67	10.67
1063	67.564	14.0	15.0	-1.0	16.0	33.0	55.0	80.0	77.0	49.0	38.0	68.0	57.0	89.0	64.0	42.0	18.0	39.0	46.0	14.0	20.0	15.0	18.0	21.0	15.0	16.0	17.0	12.0
1070	68.013	16.0	8.0	12.0	22.0	32.0	33.0	50.0	43.0	30.0	32.0	36.0	40.0	67.0	59.0	23.0	25.0	30.0	21.0	21.0	24.0	20.0	22.0	26.0	23.0	24.0	17.0	12.0
1077	68.462	19.0	-6.0	36.0	21.0	21.0	22.0	17.0	19.0	13.0	21.0	11.0	8.0	25.0	30.0	2.0	1.0	28.0	13.0	14.0	13.0	6.0	14.0	18.0	11.0	16.0	7.0	15.0
1084	68.91	12.67	6.33	32.33	65.33	49.33	24.33	20.33	24.33	21.33	24.33	25.33	17.33	25.33	25.33	18.33	23.33	24.33	11.33	26.33	9.33	10.33	18.33	25.33	26.33	16.33	17.33	26.33
1091	69.359	13.0	14.0	19.0	51.0	43.0	31.0	43.0	37.0	30.0	31.0	31.0	34.0	43.0	20.0	12.0	15.0	30.0	10.0	23.0	24.0	8.0	18.0	36.0	17.0	16.0	12.0	34.0
1098	69.808	18.0	2.0	-6.0	21.0	25.0	11.0	20.0	13.0	13.0	12.0	34.0	32.0	12.0	5.0	9.0	15.0	4.0	-7.0	10.0	5.0	3.0	2.0	-1.0	16.0	11.0	3.0	10.0
1105	70.257	19.33	-7.33	-2.33	11.67	-4.33	-1.33	4.67	5.67	6.67	7.67	17.67	22.67	2.67	0.67	0.67	3.67	-1.33	-0.33	6.67	3.67	1.67	-1.33	10.67	4.67	12.67	-0.33	-0.33
1112	70.707	14.33	7.67	9.67	4.67	1.67	-0.33	9.67	4.67	10.67	6.67	13.67	9.67	1.67	14.67	9.67	11.67	7.67	6.67	3.67	14.67	12.67	0.67	5.67	10.67	8.67	4.67	0.67
1119	71.156	14.67	4.33	3.33	9.33	6.33	8.33	10.33	2.33	3.33	2.33	9.33	11.33	12.33	8.33	4.33	1.33	-0.67	4.33	2.33	11.33	4.33	9.33	5.33	-2.67	5.33	11.33	21.33
1126	71.606	18.33	-2.33	-4.33	0.67	-0.33	12.67	16.67	4.67	9.67	2.67	4.67	10.67	8.67	5.67	3.67	9.67	1.67	1.67	4.67	8.67	9.67	1.67	-2.33	4.67	10.67	10.67	11.67
1133	72.055	14.0	-4.0	4.0	1.0	11.0	14.0	30.0	27.0	6.0	19.0	13.0	18.0	6.0	8.0	5.0	7.0	6.0	7.0	8.0	-2.0	8.0	11.0	4.0	7.0	17.0	10.0	10.0
1140	72.505	22.33	1.67	-5.33	15.67	17.67	28.67	20.67	12.67	-0.33	9.67	12.67	6.67	11.67	6.67	8.67	0.67	11.67	7.67	3.67	-2.33	1.67	4.67	3.67	4.67	1.67	3.67	8.67
1147	72.955	28.33	-0.33	2.67	14.67	12.67	6.67	17.67	28.67	9.67	15.67	5.67	22.67	9.67	16.67	7.67	15.67	10.67	9.67	19.67	2.67	8.67	10.67	3.67	8.67	12.67	10.67	15.67
1154	73.405	23.33	-4.33	3.67	-1.33	15.67	16.67	27.67	20.67	12.67	11.67	11.67	12.67	15.67	16.67	10.67	5.67	8.67	3.67	-0.33	13.67	8.67	4.67	6.67	10.67	14.67	13.67	6.67
1161	73.855	16.0	4.0	3.0	3.0	7.0	9.0	9.0	6.0	21.0	18.0	13.0	7.0	6.0	11.0	8.0	6.0	9.0	6.0	6.0	8.0	10.0	10.0	1.0	10.0	10.0	8.0	9.0
1168	74.306	17.67	-6.67	2.33	-1.67	6.33	14.33	3.33	12.33	7.33	-2.67	11.33	4.33	7.33	15.33	6.33	1.33	0.33	3.33	11.33	7.33	14.33	7.33	-0.67	5.33	7.33	-0.67	3.33
1175	74.756	31.0	-3.0	1.0	-2.0	12.0	20.0	22.0	20.0	22.0	6.0	-3.0	8.0	5.0	13.0	5.0	18.0	13.0	16.0	8.0	21.0	-1.0	13.0	17.0	4.0	21.0	7.0	12.0
1182	75.207	45.0	-9.0	39.0	28.0	45.0	48.0	95.0	71.0	79.0	48.0	25.0	45.0	31.0	45.0	49.0	38.0	20.0	36.0	51.0	65.0	26.0	37.0	20.0	40.0	31.0	30.0	16.0
1189	75.658	28.67	5.33	93.33	59.33	84.33	124.33	149.33	206.33	180.33	122.33	62.33	54.33	47.33	74.33	55.33	69.33	43.33	59.33	99.33	89.33	96.33	66.33	53.33	57.33	49.33	49.33	39.33
1196	76.109	16.33	-3.33	60.67	78.67	117.67	230.67	195.67	207.67	162.67	123.67	83.67	66.67	98.67	89.67	77.67	61.67	49.67	64.67	120.67	116.67	119.67	65.67	67.67	60.67	87.67	54.67	44.67
1203	76.56	16.0	-5.0	17.0	48.0	84.0	243.0	103.0	131.0	64.0	70.0	64.0	38.0	93.0	48.0	53.0	23.0	24.0	37.0	90.0	94.0	121.0	68.0	52.0	57.0	61.0	35.0	42.0
1210	77.011	19.0	-1.0	5.0	16.0	25.0	70.0	51.0	66.0	25.0	23.0	27.0	17.0	26.0	24.0	13.0	14.0	17.0	9.0	31.0	37.0	44.0	40.0	31.0	26.0	42.0	22.0	14.0
1217	77.463	12.67	-1.67	-0.67	12.33	18.33	22.33	23.33	29.33	31.33	25.33	7.33	26.33	19.33	17.33	16.33	13.33	19.33	25.33	16.33	26.33	27.33	25.33	8.33	16.33	20.33	18.33	21.33
1224	77.915	15.0	12.0	10.0	34.0	21.0	64.0	43.0	36.0	35.0	36.0	21.0	32.0	21.0	34.0	28.0	26.0	23.0	17.0	14.0	17.0	24.0	12.0	31.0	36.0	22.0	27.0	21.0
1231	78.366	12.67	5.33	20.33	46.33	40.33	96.33	93.33	34.33	55.33	68.33	37.33	37.33	40.33	33.33	30.33	29.33	34.33	25.33	42.33	17.33	28.33	16.33	31.33	35.33	40.33	28.33	35.33
1238	78.818	12.67	-0.67	34.33	52.33	61.33	64.33	72.33	44.33	58.33	71.33	48.33	44.33	42.33	36.33	61.33	49.33	38.33	43.33	53.33	32.33	26.33	34.33	49.33	47.33	21.33	20.33	43.33
1245	79.271	18.33	2.67	11.67	30.67	45.67	49.67	60.67	45.67	62.67	79.67	70.67	58.67	82.67	90.67	131.67	99.67	83.67	70.67	48.67	30.67	44.67	28.67	66.67	44.67	25.67	35.67	41.67
1252	79.723	19.0	-3.0	22.0	37.0	31.0	47.0	61.0	38.0	45.0	59.0	96.0	86.0	63.0	61.0	102.0	117.0	103.0	58.0	52.0	39.0	34.0	43.0	50.0	51.0	19.0	42.0	33.0
1259	80.175	18.33	6.67	28.67	56.67	28.67	18.67	28.67	31.67	62.67	53.67	45.67	47.67	51.67	36.67	51.67	48.67	51.67	20.67	19.67	33.67	17.67	25.67	40.67	25.67	11.67	8.67	14.67
1266	80.628	16.0	1.0	10.0	29.0	20.0	26.0	21.0	24.0	26.0	33.0	34.0	29.0	41.0	24.0	17.0	24.0	26.0	3.0	16.0	11.0	23.0	19.0	18.0	13.0	18.0	23.0	13.0
1273	81.081	17.33	3.67	8.67	10.67	21.67	21.67	13.67	12.67	22.67	16.67	17.67	17.67	8.67	12.67	17.67	18.67	14.67	4.67	4.67	22.67	8.67	18.67	11.67	11.67	15.67	4.67	12.67
1280	81.534	25.0	-9.0	-6.0	4.0	13.0	4.0	7.0	1.0	12.0	3.0	-1.0	9.0	-5.0	2.0	2.0	-5.0	4.0	3.0	8.0	8.0	1.0	5.0	4.0	-1.0	-5.0	-1.0	1.0
1287	81.987	19.0	4.0	6.0	3.0	7.0	1.0	14.0	8.0	9.0	8.0	5.0	9.0	10.0	6.0	13.0	15.0	8.0	-1.0	14.0	11.0	-3.0	4.0	6.0	10.0	10.0	7.0	2.0
1294	82.441	18.33	0.67	8.67	5.67	8.67	1.67	13.67	5.67	17.67	12.67	4.67	10.67	-5.33	7.67	3.67	10.67	3.67	8.67	6.67	2.67	9.67	15.67	-1.33	4.67	10.67	13.67	2.67
1301	82.894	18.33	8.67	8.67	2.67	11.67	10.67	22.67	7.67	20.67	10.67	11.67	6.67	12.67	17.67	18.67	1.67	9.67	5.67	11.67	2.67	12.67	9.67	8.67	12.67	8.67	3.67	19.67
1308	83.348	21.33	5.67	8.67	9.67	23.67	16.67	7.67	7.67	4.67	17.67	30.67	4.67	18.67	0.67	3.67	16.67	11.67	11.67	16.67	7.67	5.67	9.67	25.67	10.67	15.67	-6.33	10.67
1315	83.802	23.67	1.33	14.33	7.33	14.33	25.33	20.33	13.33	22.33	35.33	21.33	11.33	14.33	25.33	15.33	4.33	17.33	21.33	9.33	8.33	8.33	8.33	14.33	13.33	11.33	12.33	10.33
1322	84.256	25.67	10.33	8.33	22.33	26.33	14.33	30.33	9.33	25.33	14.33	26.33	28.33	64.33	31.33	32.33	35.33	2.33	20.33	18.33	-1.67	16.33	22.33	8.33	15.33	20.33	26.33	15.33
1329	84.71	20.67	14.33	16.33	36.33	39.33	47.33	54.33	25.33	30.33	43.33	35.33	39.33	65.33	46.33	55.33	49.33	39.33	26.33	29.33	13.33	25.33	35.33	22.33	22.33	14.33	15.33	14.33
1336	85.165	30.67	-11.67	9.33	29.33	28.33	10.33	21.33	21.33	41.33	23.33	31.33	21.33	49.33	22.33	28.33	40.33	36.33	19.33	11.33	25.33	13.33	24.33	8.33	18.33	25.33	17.33	7.33
1343	85.619	30.33	1.67	5.67	14.67	18.67	18.67	24.67	34.67	26.67	22.67	22.67	24.67	28.67	17.67	24.67	29.67	25.67	19.67	17.67	12.67	9.67	17.67	4.67	17.67	13.67	7.67	16.67
1350	86.074	27.0	-5.0	1.0	2.0	1.0	3.0	3.0	18.0	20.0	17.0	19.0	15.0	19.0	19.0	6.0	15.0	19.0	22.0	10.0	4.0	7.0	9.0	22.0	15.0	20.0	-2.0	8.0
1357	86.529	25.0	-8.0	0.0	7.0	21.0	5.0	19.0	6.0	35.0	21.0	20.0	26.0	19.0	5.0	23.0	19.0	14.0	4.0	16.0	17.0	12.0	15.0	12.0	15.0	15.0	5.0	13.0
1364	86.985	23.33	1.67	8.67	2.67	1.67	19.67	30.67	18.67	22.67	16.67	22.67	16.67	15.67	17.67	27.67	17.67	18.67	30.67	10.67	8.67	11.67	1.67	9.67	21.67	16.67	21.67	18.67
1371	87.44	24.33	4.67	17.67	25.67	3.67	20.67	17.67	22.67	16.67	16.67	23.67	21.67	29.67	17.67	23.67	3.67	26.67	14.67	11.67	21.67	9.67	14.67	14.67	15.67	2.67	21.67	13.67
1378	87.896	29.0	1.0	2.0	7.0	4.0	9.0	12.0	27.0	24.0	22.0	18.0	13.0	33.0	19.0	8.0	10.0	5.0	22.0	9.0	16.0	10.0	17.0	16.0	11.0	11.0	-2.0	4.0
1385	88.352	29.33	-1.33	2.67	8.67	-0.33	-0.33	3.67	-0.33	25.67	14.67	8.67	9.67	10.67	14.67	8.67	5.67	12.67	-3.33	12.67	1.67	5.67	5.67	11.67	18.67	3.67	-5.33	14.67
1392	88.808	25.67	2.33	0.33	14.33	7.33	2.33	7.33	19.33	5.33	4.33	-2.67	3.33	11.33	15.33	17.33	3.33	4.33	17.33	2.33	6.33	-3.67	0.33	12.33	15.33	0.33	10.33	7.33
1399	89.264	25.33	0.67	-1.33	2.67	0.67	-1.33	7.67	17.67	12.67	3.67	9.67	3.67	7.67	-4.33	5.67	5.67	3.67	5.67	4.67	12.67	11.67	1.67	2.67	4.67	6.67	13.67	15.67
1406	89.72	23.33	0.67	-1.33	2.67	0.67	9.67	7.67	8.67	-7.33	18.67	10.67	12.67	6.67	9.67	10.67	15.67	15.67	19.67	9.67	8.67	0.67	8.67	0.67	8.67	5.67	3.67	9.67
1413	90.177	20.67	-4.67	-1.67	9.33	7.33	10.33	12.33	13.33	21.33	2.33	9.33	18.33	8.33	13.33	13.33	15.33	4.33	20.33	13.33	11.33	11.33	11.33	9.33	16.33	17.33	5.33	16.33
1420	90.634	23.67	-0.67	3.33	14.33	11.33	12.33	18.33	8.33	3.33	14.33	12.33	6.33	2.33	4.33	14.33	13.33	15.33	6.33	7.33	15.33	15.33	8.33	5.33	14.33	1.33	11.33	17.33
1427	91.091	26.67	2.33	-4.67	7.33	2.33	18.33	-2.67	9.33	4.33	3.33	6.33	-1.67	9.33	10.33	4.33	3.33	17.33	0.33	12.33	10.33	5.33	-0.67	5.33	2.33	-0.67	7.33	1.33
1434	91.549	33.0	-5.0	-6.0	3.0	1.0	-8.0	-1.0	-2.0	-4.0	-1.0	2.0	0.0	14.0	-4.0	-2.0	2.0	2.0	2.0	4.0	2.0	-4.0	0.0	5.0	-1.0	-2.0	-2.0	1.0
1441	92.006	26.33	6.67	-6.33	14.67	19.67	-0.33	-2.33	5.67	10.67	5.67	10.67	16.67	8.67	5.67	-1.33	14.67	1.67	15.67	12.67	17.67	8.67	20.67	13.67	0.67	11.67	6.67	16.67
1448	92.464	24.0	6.0	9.0	7.0	17.0	7.0	12.0	10.0	19.0	21.0	20.0	17.0	21.0	6.0	10.0	7.0	4.0	19.0	7.0	14.0	24.0	20.0	12.0	21.0	15.0	13.0	15.0
1455	92.922	29.0	3.0	12.0	5.0	8.0	-1.0	10.0	15.0	0.0	6.0	2.0	-5.0	13.0	9.0	4.0	8.0	12.0	30.0	10.0	14.0	-1.0	16.0	11.0	11.0	14.0	1.0	9.0
1462	93.38	29.33	-4.33	0.67	-1.33	13.67	9.67	15.67	13.67	8.67	18.67	25.67	7.67	7.67	-4.33	1.67	8.67	7.67	8.67	0.67	14.67	15.67	1.67	14.67	11.67	10.67	5.67	6.67
1469	93.839	34.0	-12.0	-12.0	5.0	-2.0	7.0	14.0	3.0	2.0	-6.0	8.0	-4.0	9.0	6.0	13.0	7.0	4.0	-4.0	12.0	1.0	15.0	-1.0	9.0	3.0	-1.0	-3.0	18.0
1476	94.297	31.67	8.33	5.33	-1.67	-1.67	1.33	0.33	-1.67	-3.67	2.33	4.33	14.33	15.33	-2.67	6.33	10.33	6.33	2.33	5.33	7.33	4.33	3.33	2.33	9.33	2.33	5.33	1.33
1483	94.756	34.67	2.33	-2.67	-3.67	-1.67	-6.67	6.33	6.33	4.33	3.33	2.33	2.33	1.33	-2.67	1.33	14.33	9.33	8.33	5.33	11.33	0.33	2.33	7.33	3.33	-0.67	1.33	-5.67
1490	95.215	33.33	6.67	-2.33	12.67	-2.33	-5.33	-8.33	10.67	6.67	8.67	-0.33	2.67	8.67	-0.33	-3.33	4.67	4.67	2.67	9.67	7.67	-1.33	17.67	13.67	4.67	-14.33	4.67	2.67
1497	95.675	32.33	-10.33	-3.33	2.67	0.67	7.67	4.67	4.67	6.67	2.67	14.67	15.67	9.67	12.67	5.67	-4.33	2.67	5.67	12.67	5.67	-4.33	4.67	6.67	0.67	3.67	-5.33	-1.33
1504	96.134	33.0	-6.0	0.0	-4.0	-4.0	2.0	2.0	2.0	15.0	4.0	8.0	-5.0	0.0	5.0	3.0	11.0	12.0	13.0	-2.0	9.0	5.0	6.0	6.0	3.0	-8.0	12.0	-1.0
1511	96.594	33.0	-3.0	5.0	-5.0	7.0	9.0	2.0	2.0	16.0	2.0	6.0	-5.0	1.0	1.0	2.0	8.0	-3.0	-1.0	15.0	5.0	12.0	9.0	8.0	2.0	8.0	12.0	7.0
1518	97.054	30.33	3.67	2.67	7.67	20.67	-6.33	14.67	11.67	1.67	1.67	3.67	0.67	6.67	10.67	6.67	10.67	5.67	13.67	9.67	6.67	12.67	0.67	4.67	1.67	1.67	17.67	2.67
1525	97.514	33.67	5.33	-1.67	-1.67	-1.67	9.33	6.33	11.33	7.33	14.33	8.33	6.33	6.33	9.33	14.33	6.33	3.33	0.33	8.33	12.33	10.33	24.33	3.33	7.33	10.33	5.33	6.33
1532	97.975	30.67	5.33	-1.67	3.33	5.33	12.33	9.33	13.33	15.33	12.33	8.33	12.33	5.33	12.33	12.33	12.33	0.33	6.33	16.33	9.33	10.33	5.33	-0.67	4.33	8.33	8.33	2.33
1539	98.436	37.67	-16.67	6.33	-6.67	-3.67	7.33	13.33	1.33	13.33	4.33	-5.67	7.33	0.33	2.33	4.33	10.33	0.33	-4.67	5.33	13.33	6.33	-1.67	-4.67	6.33	0.33	12.33	1.33
1546	98.897	31.67	6.33	5.33	15.33	5.33	16.33	4.33	4.33	0.33	10.33	11.33	8.33	30.33	2.33	9.33	3.33	16.33	8.33	8.33	4.33	12.33	18.33	16.33	1.33	7.33	1.33	7.33
1553	99.358	39.0	-12.0	-14.0	7.0	-4.0	-2.0	-1.0	7.0	-4.0	-7.0	9.0	6.0	5.0	4.0	8.0	-8.0	6.0	-5.0	7.0	9.0	1.0	17.0	-1.0	10.0	-1.0	5.0	6.0
1560	99.82	27.0	0.0	22.0	10.0	18.0	11.0	25.0	6.0	6.0	33.0	16.0	8.0	20.0	40.0	45.0	34.0	21.0	8.0	16.0	12.0	18.0	21.0	13.0	9.0	19.0	26.0	19.0
1567	100.281	31.0	5.0	7.0	5.0	10.0	19.0	1.0	18.0	29.0	20.0	29.0	-4.0	27.0	22.0	49.0	34.0	31.0	20.0	13.0	7.0	23.0	7.0	2.0	21.0	2.0	3.0	19.0
1574	100.743	36.33	-4.33	1.67	7.67	12.67	17.67	8.67	9.67	11.67	-0.33	9.67	12.67	21.67	17.67	21.67	17.67	14.67	3.67	12.67	7.67	8.67	8.67	3.67	13.67	2.67	5.67	14.67
1581	101.206	31.0	-2.0	1.0	11.0	5.0	0.0	10.0	13.0	10.0	5.0	23.0	25.0	20.0	8.0	27.0	26.0	25.0	15.0	17.0	14.0	20.0	15.0	21.0	1.0	13.0	15.0	11.0
1588	101.668	33.67	-0.67	0.33	8.33	14.33	2.33	3.33	13.33	15.33	17.33	5.33	16.33	-4.67	14.33	6.33	17.33	16.33	8.33	9.33	7.33	4.33	22.33	2.33	7.33	9.33	7.33	5.33
1595	102.131	29.67	7.33	-1.67	5.33	3.33	0.33	4.33	19.33	7.33	3.33	2.33	13.33	17.33	13.33	10.33	4.33	13.33	7.33	19.33	6.33	9.33	8.33	9.33	7.33	5.33	12.33	18.33
1602	102.594	28.33	12.67	12.67	-3.33	7.67	4.67	5.67	8.67	10.67	21.67	9.67	-0.33	15.67	15.67	19.67	18.67	10.67	-6.33	18.67	13.67	7.67	9.67	11.67	0.67	14.67	5.67	28.67
1609	103.057	29.33	1.67	9.67	6.67	18.67	5.67	5.67	10.67	-2.33	26.67	6.67	11.67	4.67	17.67	-3.33	4.67	3.67	14.67	9.67	12.67	4.67	10.67	2.67	9.67	12.67	14.67	6.67
1616	103.521	30.67	-5.67	-2.67	4.33	11.33	7.33	1.33	4.33	10.33	13.33	3.33	4.33	5.33	21.33	15.33	1.33	3.33	16.33	1.33	4.33	14.33	1.33	3.33	-3.67	-1.67	6.33	1.33
1623	103.985	33.33	-1.33	-8.33	20.67	16.67	-2.33	5.67	17.67	8.67	9.67	9.67	0.67	2.67	16.67	18.67	12.67	4.67	5.67	9.67	-5.33	11.67	1.67	10.67	0.67	0.67	6.67	-4.33
1630	104.449	30.67	3.33	6.33	1.33	2.33	2.33	16.33	14.33	14.33	-2.67	11.33	15.33	8.33	7.33	5.33	9.33	7.33	4.33	1.33	9.33	3.33	-0.67	5.33	2.33	1.33	2.33	16.33
1637	104.913	34.33	-13.33	-3.33	-0.33	-1.33	-1.33	3.67	0.67	8.67	7.67	-4.33	-9.33	-9.33	-8.33	-0.33	11.67	-6.33	-12.33	1.67	3.67	-4.33	6.67	7.67	1.67	-8.33	3.67	-9.33
1644	105.378	32.67	-0.67	-7.67	4.33	-4.67	-4.67	7.33	-4.67	-1.67	-4.67	-2.67	-10.67	8.33	-5.67	-6.67	-2.67	11.33	-13.67	-3.67	-2.67	-0.67	5.33	0.33	7.33	7.33	-1.67	5.33
1651	105.843	27.67	-0.67	5.33	-1.67	0.33	-4.67	0.33	5.33	3.33	11.33	12.33	9.33	3.33	6.33	-1.67	-4.67	1.33	1.33	16.33	10.33	6.33	6.33	2.33	5.33	-6.67	-2.67	7.33
1658	106.308	20.67	11.33	17.33	10.33	5.33	11.33	9.33	20.33	6.33	17.33	14.33	12.33	19.33	15.33	12.33	20.33	18.33	5.33	4.33	10.33	9.33	10.33	30.33	18.33	10.33	9.33	-2.67
1665	106.773	26.67	-11.67	-2.67	2.33	6.33	16.33	3.33	-2.67	0.33	-2.67	4.33	4.33	11.33	2.33	-3.67	9.33	2.33	11.33	-12.67	-8.67	6.33	1.33	1.33	0.33	8.33	18.33	0.33
1672	107.239	23.67	4.33	12.33	5.33	4.33	13.33	10.33	-0.67	8.33	-0.67	0.33	0.33	15.33	6.33	5.33	2.33	6.33	14.33	-6.67	6.33	5.33	9.33	0.33	0.33	9.33	0.33	2.33
1679	107.705	24.67	7.33	8.33	3.33	16.33	2.33	4.33	15.33	2.33	21.33	6.33	6.33	-3.67	7.33	-4.67	3.33	9.33	9.33	6.33	4.33	0.33	5.33	8.33	2.33	5.33	8.33	10.33
1686	108.171	23.33	5.67	4.67	4.67	8.67	2.67	10.67	16.67	3.67	12.67	4.67	8.67	2.67	-3.33	2.67	-4.33	8.67	5.67	1.67	3.67	1.67	7.67	12.67	11.67	7.67	-0.33	5.67
1693	108.638	30.33	0.67	-7.33	-4.33	-8.33	-4.33	-4.33	4.67	-6.33	-2.33	-1.33	-2.33	2.67	-6.33	-5.33	-8.33	8.67	-7.33	-7.33	1.67	-4.33	-1.33	2.67	-1.33	-3.33	-0.33	-2.33
1700	109.105	24.0	-4.0	4.0	6.0	0.0	3.0	2.0	8.0	-4.0	1.0	-5.0	4.0	5.0	-6.0	3.0	5.0	6.0	12.0	-2.0	7.0	-6.0	6.0	6.0	-2.0	10.0	-6.0	4.0
1707	109.572	24.0	-1.0	-2.0	3.0	-4.0	5.0	-1.0	2.0	-6.0	6.0	-1.0	4.0	-2.0	7.0	-2.0	10.0	-4.0	-3.0	3.0	-1.0	0.0	-1.0	6.0	4.0	0.0	14.0	21.0
1714	110.039	22.0	-2.0	3.0	1.0	1.0	2.0	9.0	3.0	8.0	0.0	5.0	8.0	1.0	13.0	-1.0	3.0	23.0	6.0	7.0	4.0	13.0	-4.0	13.0	-4.0	9.0	5.0	0.0
1721	110.507	25.67	-7.67	-5.67	0.33	11.33	-4.67	8.33	-9.67	11.33	3.33	-2.67	3.33	-6.67	-2.67	0.33	-9.67	-3.67	5.33	-0.67	2.33	-4.67	-0.67	-0.67	4.33	0.33	-5.67	7.33
1728	110.975	21.33	-3.33	2.67	-1.33	2.67	9.67	3.67	4.67	6.67	-2.33	5.67	3.67	3.67	4.67	-2.33	9.67	2.67	3.67	3.67	-1.33	8.67	8.67	16.67	4.67	-0.33	12.67	2.67
1735	111.443	16.0	0.0	4.0	15.0	3.0	11.0	19.0	8.0	14.0	24.0	-2.0	7.0	11.0	6.0	5.0	12.0	8.0	2.0	9.0	13.0	15.0	16.0	6.0	15.0	3.0	-2.0	14.0
1742	111.912	23.67	-0.67	4.33	3.33	-1.67	-1.67	4.33	4.33	7.33	2.33	1.33	-2.67	1.33	8.33	3.33	-4.67	0.33	1.33	-1.67	10.33	-4.67	8.33	12.33	6.33	16.33	8.33	-1.67
1749	112.38	23.0	-3.0	-4.0	0.0	1.0	10.0	-4.0	10.0	7.0	4.0	-10.0	0.0	-3.0	1.0	7.0	-4.0	4.0	4.0	-1.0	6.0	3.0	0.0	0.0	3.0	9.0	9.0	13.0
1756	112.85	21.33	-1.33	6.67	7.67	7.67	14.67	5.67	5.67	-4.33	3.67	-4.33	8.67	1.67	-4.33	2.67	11.67	7.67	2.67	-2.33	4.67	6.67	1.67	4.67	3.67	3.67	-4.33	11.67
1763	113.319	21.67	1.33	17.33	-0.67	7.33	2.33	-1.67	-1.67	-0.67	-1.67	-1.67	1.33	-0.67	2.33	5.33	6.33	4.33	5.33	4.33	-1.67	4.33	5.33	1.33	0.33	1.33	-3.67	6.33
1770	113.789	23.0	-1.0	-3.0	-5.0	-7.0	3.0	-3.0	-4.0	-2.0	-1.0	0.0	-1.0	-9.0	2.0	-4.0	-1.0	-5.0	2.0	3.0	-3.0	-1.0	6.0	1.0	3.0	5.0	-1.0	12.0
1777	114.259	17.0	12.0	2.0	-5.0	14.0	7.0	0.0	7.0	-4.0	-3.0	-4.0	2.0	7.0	3.0	4.0	6.0	-2.0	-1.0	1.0	6.0	1.0	-1.0	7.0	8.0	8.0	6.0	17.0
1784	114.729	18.0	2.0	-4.0	0.0	10.0	5.0	4.0	2.0	0.0	5.0	3.0	2.0	5.0	9.0	3.0	-7.0	5.0	0.0	3.0	1.0	-5.0	0.0	3.0	1.0	-5.0	-1.0	4.0
1791	115.2	18.67	-9.67	4.33	6.33	0.33	6.33	2.33	-2.67	9.33	4.33	1.33	-0.67	6.33	-1.67	0.33	-0.67	-4.67	6.33	8.33	-7.67	7.33	1.33	-6.67	1.33	-3.67	-4.67	-0.67
1798	115.671	17.67	0.33	-2.67	-1.67	-5.67	7.33	0.33	-3.67	4.33	2.33	3.33	1.33	9.33	7.33	0.33	4.33	-3.67	1.33	-1.67	7.33	4.33	0.33	-0.67	11.33	4.33	2.33	3.33
1805	116.142	21.67	-4.67	2.33	-10.67	-0.67	3.33	-3.67	-4.67	-2.67	-4.67	-3.67	3.33	1.33	-6.67	8.33	-0.67	-2.67	-0.67	1.33	-0.67	-6.67	-9.67	2.33	0.33	-1.67	-4.67	-2.67
1812	116.614	16.67	-3.67	-2.67	2.33	-3.67	-3.67	2.33	4.33	1.33	-4.67	4.33	-0.67	-1.67	-1.67	2.33	2.33	4.33	6.33	-2.67	7.33	-2.67	7.33	-0.67	6.33	5.33	-1.67	-2.67
1819	117.086	20.0	-6.0	-4.0	-3.0	-6.0	-6.0	-9.0	0.0	-4.0	-5.0	-8.0	3.0	-3.0	-4.0	0.0	-3.0	-13.0	-1.0	-3.0	2.0	-7.0	0.0	-2.0	5.0	-3.0	2.0	1.0
1826	117.558	16.0	-2.0	-1.0	-3.0	1.0	0.0	-5.0	1.0	-2.0	12.0	1.0	7.0	8.0	4.0	7.0	1.0	0.0	0.0	2.0	-3.0	6.0	3.0	3.0	-2.0	4.0	6.0	6.0
1833	118.03	16.67	4.33	-2.67	-4.67	0.33	1.33	-0.67	2.33	2.33	-1.67	-5.67	6.33	6.33	2.33	-3.67	0.33	-0.67	-1.67	-0.67	-5.67	5.33	3.33	-6.67	6.33	4.33	-1.67	0.33
1840	118.503	15.33	-2.33	0.67	-1.33	3.67	2.67	2.67	1.67	4.67	-1.33	0.67	2.67	-1.33	5.67	3.67	3.67	-3.33	-5.33	-1.33	0.67	5.67	0.67	-2.33	4.67	5.67	1.67	-2.33
1847	118.976	13.0	2.0	11.0	-3.0	-1.0	17.0	-1.0	7.0	6.0	1.0	3.0	1.0	8.0	5.0	11.0	2.0	1.0	7.0	4.0	6.0	5.0	1.0	0.0	0.0	3.0	-2.0	10.0
1854	119.45	11.0	0.0	6.0	12.0	6.0	-1.0	3.0	5.0	7.0	13.0	4.0	6.0	5.0	-2.0	3.0	4.0	12.0	3.0	4.0	6.0	3.0	2.0	8.0	7.0	10.0	0.0	12.0
1861	119.924	11.67	5.33	9.33	4.33	1.33	7.33	0.33	5.33	3.33	9.33	3.33	5.33	14.33	4.33	-0.67	3.33	3.33	13.33	7.33	7.33	0.33	6.33	8.33	7.33	1.33	3.33	4.33
1868	120.398	10.0	8.0	8.0	8.0	3.0	3.0	11.0	10.0	5.0	4.0	4.0	5.0	7.0	13.0	7.0	7.0	1.0	2.0	12.0	10.0	3.0	11.0	4.0	-4.0	12.0	0.0	5.0
1875	120.872	14.0	3.0	4.0	0.0	3.0	4.0	0.0	5.0	-3.0	-1.0	0.0	1.0	9.0	-3.0	-3.0	8.0	-6.0	10.0	6.0	4.0	8.0	4.0	1.0	-2.0	1.0	-1.0	6.0
1882	121.347	8.33	0.67	1.67	2.67	7.67	9.67	7.67	-0.33	4.67	3.67	1.67	5.67	3.67	3.67	4.67	9.67	6.67	3.67	12.67	11.67	6.67	3.67	3.67	3.67	6.67	8.67	3.67
1889	121.822	16.67	-5.67	-1.67	-3.67	-7.67	-2.67	-2.67	-9.67	3.33	6.33	4.33	-2.67	-7.67	5.33	-3.67	2.33	3.33	2.33	1.33	-4.67	2.33	-1.67	0.33	-1.67	0.33	-3.67	-2.67
1896	122.298	10.0	3.0	3.0	2.0	2.0	8.0	2.0	6.0	7.0	7.0	4.0	-1.0	6.0	7.0	7.0	4.0	9.0	8.0	6.0	5.0	1.0	5.0	7.0	-3.0	8.0	7.0	7.0
1903	122.773	15.67	-4.67	-1.67	0.33	-2.67	-2.67	-6.67	-3.67	-4.67	-5.67	5.33	-4.67	0.33	-5.67	-6.67	0.33	0.33	5.33	-4.67	-3.67	-5.67	4.33	2.33	-0.67	-5.67	-5.67	-1.67
1910	123.25	11.33	0.67	-2.33	-1.33	3.67	8.67	-1.33	2.67	2.67	4.67	3.67	2.67	1.67	2.67	-1.33	-0.33	1.67	5.67	-3.33	-1.33	-2.33	-2.33	1.67	1.67	1.67	-1.33	4.67
1917	123.726	9.67	2.33	4.33	9.33	6.33	2.33	-0.67	6.33	6.33	6.33	11.33	2.33	-1.67	-1.67	3.33	0.33	4.33	4.33	6.33	1.33	-0.67	2.33	2.33	2.33	6.33	6.33	6.33
1924	124.203	11.67	2.33	4.33	-0.67	-2.67	8.33	1.33	10.33	0.33	-1.67	-1.67	2.33	4.33	-0.67	2.33	-2.67	-0.67	3.33	7.33	-1.67	3.33	-2.67	1.33	-1.67	5.33	-0.67	-2.67
1931	124.68	11.67	2.33	-3.67	-0.67	-2.67	1.33	-1.67	-2.67	0.33	2.33	0.33	-1.67	3.33	3.33	-5.67	-2.67	6.33	11.33	-4.67	-2.67	-3.67	0.33	8.33	-3.67	1.33	3.33	-1.67
1938	125.158	10.0	-2.0	3.0	-4.0	-1.0	2.0	2.0	1.0	0.0	2.0	2.0	-1.0	1.0	3.0	3.0	-3.0	6.0	9.0	6.0	-2.0	4.0	2.0	7.0	-5.0	5.0	4.0	7.0
1945	125.635	11.67	-5.67	-4.67	0.33	-4.67	-4.67	-1.67	4.33	11.33	4.33	0.33	-5.67	-4.67	0.33	-2.67	3.33	-4.67	4.33	0.33	3.33	7.33	3.33	1.33	1.33	1.33	7.33	10.33
1952	126.114	11.67	9.33	-6.67	-0.67	-0.67	-1.67	0.33	-1.67	-0.67	-2.67	-0.67	4.33	3.33	-1.67	-2.67	3.33	-3.67	-1.67	5.33	-1.67	4.33	-2.67	8.33	7.33	3.33	-3.67	1.33
1959	126.592	11.33	0.67	3.67	0.67	-1.33	0.67	-3.33	-2.33	-0.33	0.67	-2.33	2.67	-0.33	-0.33	1.67	0.67	2.67	6.67	2.67	0.67	2.67	6.67	0.67	5.67	-4.33	7.67	7.67
1966	127.071	11.67	-4.67	-0.67	-2.67	6.33	-0.67	-2.67	4.33	-0.67	1.33	2.33	1.33	-4.67	-3.67	-5.67	1.33	-0.67	-0.67	-0.67	5.33	-1.67	9.33	8.33	-0.67	2.33	8.33	1.33
1973	127.55	9.0	5.0	3.0	3.0	-1.0	-3.0	-1.0	1.0	4.0	-2.0	1.0	-1.0	2.0	-1.0	7.0	6.0	2.0	4.0	5.0	4.0	-2.0	13.0	-1.0	7.0	8.0	3.0	5.0
1980	128.03	11.67	-0.67	-4.67	1.33	-4.67	0.33	-6.67	-2.67	2.33	1.33	3.33	-7.67	-3.67	-4.67	1.33	-1.67	-1.67	-3.67	-2.67	4.33	0.33	-1.67	5.33	-2.67	6.33	-1.67	3.33
1987	128.51	6.33	5.67	1.67	7.67	0.67	6.67	12.67	-3.33	3.67	3.67	-2.33	6.67	1.67	1.67	7.67	2.67	-2.33	0.67	-2.33	6.67	4.67	4.67	6.67	14.67	11.67	-0.33	10.67
1994	128.99	9.33	0.67	1.67	2.67	-3.33	1.67	1.67	-0.33	1.67	-2.33	-3.33	-3.33	-5.33	-2.33	1.67	-4.33	2.67	3.67	-3.33	3.67	2.67	4.67	1.67	4.67	5.67	7.67	-0.33
2001	129.471	9.0	-1.0	4.0	3.0	-1.0	-1.0	-4.0	0.0	1.0	2.0	-3.0	5.0	2.0	1.0	0.0	-1.0	2.0	5.0	2.0	7.0	2.0	5.0	-1.0	5.0	6.0	4.0	-1.0
2008	129.952	8.67	-4.67	-1.67	3.33	-0.67	-2.67	1.33	-0.67	7.33	2.33	8.33	4.33	0.33	3.33	-1.67	3.33	-4.67	0.33	3.33	0.33	2.33	2.33	4.33	0.33	3.33	-0.67	5.33
2015	130.433	8.0	0.0	-1.0	0.0	-3.0	4.0	6.0	1.0	-1.0	-1.0	1.0	4.0	5.0	5.0	-4.0	13.0	4.0	3.0	5.0	-1.0	0.0	2.0	2.0	6.0	0.0	2.0	1.0
2022	130.915	7.67	4.33	-0.67	0.33	3.33	-0.67	3.33	-0.67	0.33	4.33	8.33	-2.67	2.33	2.33	1.33	4.33	-1.67	2.33	9.33	1.33	1.33	2.33	6.33	3.33	5.33	8.33	10.33
2029	131.397	12.33	-5.33	-8.33	-4.33	-1.33	-7.33	-4.33	-4.33	5.67	-1.33	-2.33	-4.33	-0.33	-1.33	-2.33	-4.33	-2.33	-7.33	-5.33	-1.33	-7.33	0.67	-5.33	3.67	-4.33	-6.33	0.67
2036	131.879	8.33	2.67	5.67	-0.33	-2.33	2.67	0.67	2.67	3.67	-2.33	-2.33	2.67	6.67	0.67	-1.33	11.67	-0.33	0.67	2.67	2.67	0.67	-4.33	3.67	-0.33	0.67	1.67	4.67
2043	132.362	7.67	1.33	3.33	-2.67	-2.67	2.33	-4.67	3.33	-2.67	-2.67	-2.67	-0.67	-4.67	2.33	-1.67	1.33	4.33	3.33	-0.67	-1.67	4.33	2.33	1.33	1.33	3.33	2.33	-3.67
2047	132.638	9.67	-6.67	-4.67	-2.67	-2.67	-3.67	0.33	0.33	-4.67	3.33	0.33	-0.67	-3.67	-4.67	-3.67	4.33	2.33	2.33	-2.67	-4.67	-3.67	-2.67	-2.67	0.33	-1.67	0.33	5.33