File: EDX Back Ups and Old Files/EDX Processed Data/Low pH SF 25C 2d.txt
Name: Low pH SF 25C 2d
Number of Scans: 29
Positions: [-13.0, -12.75, -12.5, -12.25, -12.0, -11.75, -11.5, -11.25, -11.0, -10.75, -10.5, -10.25, -10.0, -9.75, -9.5, -9.25, -9.0, -8.75, -8.5, -8.25, -8.0, -7.75, -7.5, -7.25, -7.0, -6.75, -6.5, -6.25, -6.0]
Points per Scan: 2048
Sample Edge: 3
Scans Off Sample: [0, 1, 2]
Conversion Features: [(275, 17444.3), (309, 19608.3), (913, 57981.7), (934, 59318.24), (1058, 67244.3)]
Degree of Fit: 3
Fit Coeffecients: [ 8.59183e-07 -0.001482  64.3003 -144.207]
pH: Low
Steel Fiber: True
Aging Temp.: 25
Aging Atm.: 100% CO2
Aging Humidity: None
Aging Time: 2

*********
#Bins	Energy [keV]	Avg. Background	-12.25	-12.0	-11.75	-11.5	-11.25	-11.0	-10.75	-10.5	-10.25	-10.0	-9.75	-9.5	-9.25	-9.0	-8.75	-8.5	-8.25	-8.0	-7.75	-7.5	-7.25	-7.0	-6.75	-6.5	-6.25	-6.0
6	0.242	1874.33	-59.33	-29.33	-26.33	-39.33	-13.33	-86.33	-45.33	-38.33	-53.33	4.67	42.67	10.67	-102.33	-80.33	-41.33	-98.33	-120.33	-141.33	-148.33	-62.33	-50.33	-132.33	-69.33	-75.33	-52.33	-139.33
13	0.691	1224.67	-18.67	-37.67	-25.67	-10.67	25.33	-50.67	-2.67	-3.67	69.33	18.33	-33.67	0.33	3.33	29.33	34.33	6.33	-55.67	-9.67	-39.67	8.33	-6.67	-4.67	-111.67	61.33	9.33	20.33
20	1.141	339.67	-54.67	-64.67	-24.67	-61.67	-56.67	-18.67	-67.67	-24.67	-13.67	-27.67	-33.67	-42.67	-23.67	-38.67	-53.67	-42.67	-26.67	-43.67	-53.67	-16.67	-13.67	-29.67	-69.67	-57.67	-4.67	-23.67
27	1.591	49.0	-1.0	-5.0	0.0	15.0	10.0	-5.0	-7.0	6.0	-8.0	-8.0	2.0	10.0	-7.0	-10.0	2.0	8.0	-8.0	1.0	2.0	0.0	12.0	12.0	7.0	2.0	-2.0	18.0
34	2.04	5.67	-0.67	0.33	2.33	-1.67	1.33	-0.67	4.33	6.33	-1.67	1.33	0.33	-1.67	-1.67	1.33	-1.67	6.33	1.33	0.33	0.33	0.33	4.33	-0.67	3.33	5.33	1.33	-0.67
41	2.49	1.0	-1.0	-1.0	-1.0	0.0	0.0	0.0	0.0	0.0	-1.0	-1.0	0.0	0.0	3.0	0.0	3.0	0.0	0.0	-1.0	-1.0	0.0	-1.0	0.0	0.0	-1.0	0.0	1.0
48	2.939	0.0	0.0	0.0	1.0	0.0	1.0	0.0	0.0	0.0	0.0	0.0	0.0	0.0	0.0	2.0	0.0	1.0	0.0	0.0	1.0	0.0	0.0	0.0	0.0	0.0	0.0	0.0
55	3.388	0.0	0.0	0.0	0.0	0.0	0.0	0.0	1.0	0.0	0.0	0.0	1.0	0.0	1.0	0.0	0.0	1.0	0.0	0.0	1.0	0.0	0.0	1.0	1.0	0.0	1.0	0.0
62	3.837	0.33	0.67	0.67	-0.33	-0.33	-0.33	-0.33	0.67	1.67	-0.33	-0.33	-0.33	0.67	-0.33	-0.33	1.67	-0.33	-0.33	0.67	-0.33	-0.33	-0.33	-0.33	-0.33	-0.33	0.67	-0.33
69	4.286	0.33	-0.33	-0.33	0.67	-0.33	0.67	-0.33	-0.33	0.67	0.67	-0.33	-0.33	1.67	-0.33	-0.33	-0.33	0.67	0.67	0.67	-0.33	-0.33	-0.33	-0.33	0.67	-0.33	0.67	-0.33
76	4.734	1.0	-1.0	-1.0	0.0	-1.0	-1.0	-1.0	-1.0	0.0	-1.0	-1.0	0.0	-1.0	-1.0	-1.0	-1.0	-1.0	0.0	-1.0	-1.0	0.0	-1.0	0.0	-1.0	1.0	-1.0	0.0
83	5.183	0.0	1.0	1.0	0.0	0.0	0.0	0.0	0.0	2.0	1.0	0.0	0.0	0.0	0.0	0.0	1.0	0.0	0.0	0.0	0.0	0.0	0.0	1.0	1.0	0.0	1.0	0.0
90	5.631	0.67	-0.67	0.33	0.33	1.33	-0.67	-0.67	-0.67	1.33	1.33	0.33	0.33	-0.67	-0.67	-0.67	1.33	0.33	-0.67	1.33	-0.67	-0.67	1.33	-0.67	-0.67	0.33	0.33	2.33
97	6.08	0.33	-0.33	0.67	2.67	-0.33	-0.33	0.67	-0.33	1.67	1.67	1.67	0.67	-0.33	1.67	1.67	0.67	0.67	-0.33	-0.33	0.67	1.67	1.67	0.67	-0.33	0.67	-0.33	0.67
104	6.528	2.0	0.0	-1.0	0.0	-2.0	-1.0	0.0	0.0	-1.0	2.0	-1.0	-2.0	-1.0	-2.0	0.0	-1.0	0.0	-2.0	-2.0	0.0	-2.0	0.0	0.0	-2.0	-1.0	-2.0	-1.0
111	6.976	1.0	1.0	2.0	1.0	0.0	3.0	1.0	1.0	-1.0	0.0	-1.0	1.0	0.0	2.0	0.0	0.0	2.0	1.0	1.0	1.0	2.0	1.0	5.0	2.0	1.0	4.0	1.0
118	7.424	3.0	-3.0	1.0	4.0	0.0	1.0	1.0	0.0	-2.0	1.0	0.0	2.0	-1.0	-1.0	2.0	-3.0	-3.0	0.0	3.0	-2.0	1.0	-1.0	2.0	3.0	0.0	0.0	1.0
125	7.872	4.0	0.0	4.0	4.0	0.0	1.0	1.0	2.0	-2.0	1.0	2.0	3.0	-3.0	2.0	3.0	0.0	0.0	-2.0	0.0	2.0	-1.0	3.0	1.0	5.0	5.0	-1.0	0.0
132	8.32	4.67	5.33	0.33	4.33	1.33	2.33	2.33	1.33	4.33	2.33	6.33	2.33	-1.67	1.33	0.33	5.33	7.33	-0.67	-0.67	5.33	0.33	5.33	4.33	5.33	1.33	2.33	4.33
139	8.767	8.0	1.0	2.0	-3.0	1.0	1.0	1.0	-3.0	-2.0	1.0	-4.0	1.0	6.0	2.0	2.0	6.0	3.0	3.0	1.0	-1.0	-1.0	1.0	4.0	0.0	-1.0	2.0	3.0
146	9.215	5.67	4.33	3.33	-0.67	6.33	3.33	1.33	7.33	4.33	3.33	5.33	3.33	3.33	2.33	2.33	4.33	1.33	7.33	3.33	6.33	6.33	11.33	-0.67	0.33	3.33	1.33	9.33
153	9.662	7.0	1.0	5.0	-1.0	0.0	6.0	3.0	0.0	-2.0	8.0	1.0	1.0	4.0	3.0	1.0	4.0	-1.0	12.0	6.0	7.0	-1.0	10.0	6.0	5.0	4.0	6.0	5.0
160	10.109	11.67	-8.67	-2.67	-2.67	-3.67	1.33	-5.67	-1.67	-0.67	2.33	-3.67	-0.67	-3.67	-3.67	-0.67	3.33	5.33	-0.67	-5.67	3.33	-2.67	-0.67	0.33	4.33	7.33	6.33	-1.67
167	10.557	10.67	2.33	3.33	6.33	-0.67	1.33	-1.67	-3.67	4.33	-3.67	1.33	0.33	-1.67	0.33	-0.67	5.33	5.33	-1.67	0.33	1.33	-0.67	6.33	5.33	-2.67	3.33	3.33	-0.67
174	11.004	12.0	0.0	-2.0	3.0	-5.0	1.0	-3.0	2.0	-2.0	-5.0	-1.0	3.0	-1.0	-3.0	2.0	-2.0	-1.0	4.0	1.0	-3.0	-3.0	-1.0	6.0	4.0	-2.0	1.0	1.0
181	11.451	15.0	-4.0	-5.0	-8.0	-3.0	-1.0	-2.0	0.0	-2.0	-3.0	0.0	-3.0	-10.0	-7.0	1.0	-5.0	-4.0	3.0	1.0	-6.0	-10.0	-6.0	1.0	3.0	-3.0	-4.0	6.0
188	11.898	10.0	0.0	2.0	1.0	1.0	-1.0	3.0	2.0	-3.0	-4.0	0.0	-2.0	-4.0	1.0	2.0	4.0	5.0	-1.0	8.0	-2.0	7.0	-1.0	1.0	4.0	4.0	8.0	-2.0
195	12.344	9.0	-1.0	-3.0	0.0	-2.0	0.0	5.0	2.0	2.0	10.0	2.0	-1.0	3.0	0.0	7.0	-4.0	1.0	-3.0	2.0	2.0	6.0	1.0	-3.0	12.0	8.0	4.0	5.0
202	12.791	11.67	-0.67	-2.67	0.33	-3.67	-4.67	-0.67	0.33	-1.67	5.33	1.33	-0.67	3.33	3.33	1.33	-1.67	-1.67	-1.67	6.33	-5.67	0.33	2.33	5.33	0.33	1.33	4.33	-0.67
209	13.238	9.67	4.33	-2.67	-2.67	7.33	3.33	5.33	-1.67	4.33	2.33	-0.67	5.33	-2.67	2.33	5.33	3.33	5.33	4.33	6.33	3.33	1.33	0.33	5.33	5.33	-0.67	5.33	-0.67
216	13.684	6.33	2.67	3.67	7.67	4.67	0.67	3.67	5.67	8.67	8.67	9.67	3.67	7.67	9.67	5.67	3.67	3.67	-0.33	5.67	10.67	2.67	5.67	5.67	9.67	11.67	8.67	8.67
223	14.131	11.67	-0.67	-2.67	0.33	-2.67	5.33	-1.67	-2.67	3.33	-0.67	-3.67	-4.67	-1.67	0.33	-2.67	-0.67	1.33	4.33	-0.67	0.33	0.33	-0.67	4.33	2.33	5.33	7.33	0.33
230	14.577	8.33	4.67	6.67	-3.33	-0.33	2.67	4.67	6.67	2.67	1.67	-0.33	4.67	6.67	-0.33	10.67	7.67	2.67	1.67	7.67	0.67	4.67	3.67	6.67	11.67	5.67	3.67	2.67
237	15.023	9.0	-2.0	3.0	1.0	-1.0	4.0	-5.0	5.0	-3.0	2.0	5.0	0.0	1.0	4.0	1.0	7.0	2.0	1.0	2.0	5.0	12.0	1.0	3.0	2.0	8.0	10.0	7.0
244	15.469	7.33	3.67	3.67	4.67	4.67	8.67	-1.33	2.67	-0.33	-2.33	6.67	5.67	11.67	10.67	-1.33	3.67	5.67	0.67	-1.33	3.67	1.67	2.67	3.67	0.67	0.67	10.67	6.67
251	15.915	8.67	-1.67	-0.67	1.33	1.33	3.33	1.33	2.33	10.33	1.33	1.33	4.33	2.33	7.33	9.33	2.33	11.33	-1.67	-2.67	2.33	4.33	1.33	3.33	7.33	6.33	1.33	5.33
258	16.361	11.33	1.67	0.67	-1.33	0.67	-1.33	1.67	7.67	-8.33	-2.33	-4.33	5.67	-0.33	3.67	-6.33	2.67	4.67	-3.33	6.67	4.67	2.67	5.67	-2.33	2.67	4.67	-5.33	11.67
265	16.807	7.67	0.33	-0.67	3.33	3.33	2.33	3.33	4.33	6.33	9.33	11.33	0.33	5.33	6.33	1.33	3.33	8.33	4.33	8.33	-2.67	3.33	0.33	4.33	-0.67	-0.67	8.33	6.33
272	17.253	9.67	-2.67	0.33	5.33	-3.67	0.33	1.33	2.33	2.33	-1.67	-2.67	-3.67	-2.67	4.33	0.33	5.33	2.33	0.33	12.33	1.33	-2.67	2.33	1.33	4.33	6.33	5.33	8.33
279	17.699	7.0	1.0	-1.0	6.0	2.0	4.0	6.0	2.0	3.0	4.0	-3.0	4.0	-1.0	3.0	4.0	10.0	9.0	1.0	5.0	8.0	5.0	7.0	5.0	3.0	1.0	8.0	-2.0
286	18.145	7.67	3.33	9.33	5.33	-0.67	5.33	7.33	7.33	0.33	4.33	2.33	3.33	-1.67	4.33	0.33	0.33	3.33	6.33	-0.67	7.33	2.33	8.33	4.33	5.33	5.33	-1.67	6.33
293	18.59	8.67	3.33	4.33	4.33	2.33	2.33	-2.67	1.33	1.33	5.33	10.33	8.33	5.33	2.33	2.33	0.33	-2.67	5.33	6.33	4.33	2.33	1.33	1.33	2.33	4.33	0.33	2.33
300	19.036	9.0	3.0	4.0	6.0	-1.0	-4.0	2.0	4.0	-1.0	8.0	0.0	3.0	10.0	5.0	0.0	2.0	-5.0	11.0	0.0	-3.0	4.0	1.0	-1.0	0.0	10.0	1.0	4.0
307	19.481	7.0	7.0	1.0	3.0	5.0	3.0	6.0	16.0	7.0	-2.0	2.0	-3.0	1.0	8.0	-5.0	3.0	2.0	4.0	12.0	4.0	0.0	3.0	6.0	10.0	3.0	5.0	0.0
314	19.927	12.0	-4.0	-3.0	-5.0	-7.0	2.0	-1.0	-3.0	-3.0	0.0	3.0	1.0	5.0	4.0	-2.0	1.0	0.0	0.0	2.0	-3.0	-3.0	-3.0	-1.0	2.0	6.0	-7.0	-1.0
321	20.372	7.67	6.33	5.33	6.33	3.33	-0.67	0.33	9.33	2.33	2.33	3.33	-1.67	4.33	-1.67	-0.67	5.33	5.33	4.33	8.33	4.33	5.33	0.33	8.33	3.33	1.33	9.33	3.33
328	20.817	11.0	-3.0	1.0	-2.0	-5.0	0.0	-5.0	0.0	0.0	-1.0	-2.0	-3.0	-1.0	8.0	0.0	-4.0	4.0	-4.0	5.0	4.0	4.0	-1.0	-2.0	5.0	-1.0	2.0	-1.0
335	21.262	6.67	-1.67	-0.67	3.33	4.33	2.33	0.33	-0.67	0.33	2.33	2.33	6.33	2.33	-2.67	4.33	3.33	2.33	6.33	2.33	6.33	4.33	4.33	3.33	1.33	2.33	2.33	3.33
342	21.708	8.0	-2.0	-4.0	6.0	-4.0	1.0	1.0	2.0	-3.0	4.0	-1.0	2.0	4.0	0.0	-2.0	2.0	2.0	2.0	6.0	1.0	4.0	2.0	4.0	6.0	1.0	5.0	10.0
349	22.153	8.67	0.33	0.33	0.33	-0.67	5.33	7.33	-2.67	-1.67	2.33	4.33	0.33	2.33	2.33	1.33	-1.67	3.33	4.33	1.33	4.33	3.33	-0.67	3.33	4.33	0.33	1.33	-1.67
356	22.598	9.33	-0.33	0.67	1.67	-2.33	-0.33	-3.33	-0.33	5.67	-0.33	0.67	2.67	-3.33	1.67	1.67	0.67	8.67	-2.33	1.67	2.67	4.67	0.67	-1.33	-1.33	8.67	3.67	-0.33
363	23.043	9.33	-2.33	-1.33	0.67	3.67	3.67	1.67	-1.33	-5.33	3.67	0.67	3.67	1.67	6.67	-1.33	1.67	-0.33	-4.33	-0.33	3.67	1.67	10.67	4.67	-6.33	0.67	2.67	-5.33
370	23.488	8.67	0.33	0.33	-1.67	3.33	-1.67	-1.67	-0.67	-0.67	1.33	-2.67	4.33	1.33	0.33	3.33	6.33	0.33	-5.67	2.33	3.33	-0.67	2.33	0.33	-3.67	-3.67	3.33	4.33
377	23.932	8.67	0.33	0.33	-0.67	-5.67	-4.67	4.33	-2.67	0.33	-2.67	-0.67	-2.67	-3.67	7.33	1.33	0.33	3.33	0.33	3.33	-0.67	4.33	-2.67	-1.67	-2.67	3.33	1.33	5.33
384	24.377	8.67	-3.67	1.33	0.33	0.33	-2.67	3.33	0.33	3.33	4.33	1.33	3.33	0.33	4.33	4.33	-0.67	8.33	0.33	-0.67	0.33	4.33	5.33	-2.67	3.33	0.33	4.33	2.33
391	24.822	9.0	3.0	-3.0	-2.0	-3.0	-2.0	1.0	-4.0	3.0	4.0	-1.0	2.0	6.0	-1.0	4.0	1.0	9.0	-1.0	5.0	-3.0	-2.0	-1.0	-1.0	3.0	-3.0	-2.0	-1.0
398	25.267	9.67	-7.67	-1.67	-0.67	-9.67	3.33	-2.67	0.33	0.33	4.33	3.33	-1.67	-5.67	-1.67	1.33	-0.67	-0.67	0.33	5.33	1.33	3.33	2.33	-4.67	-5.67	0.33	0.33	3.33
405	25.711	6.33	3.67	-1.33	7.67	0.67	-0.33	6.67	1.67	1.67	3.67	6.67	2.67	-0.33	7.67	1.67	0.67	3.67	7.67	4.67	8.67	3.67	2.67	2.67	4.67	8.67	5.67	-0.33
412	26.156	6.0	4.0	4.0	-2.0	4.0	-2.0	8.0	-2.0	-1.0	8.0	2.0	-3.0	1.0	9.0	2.0	3.0	2.0	1.0	3.0	3.0	0.0	1.0	3.0	-1.0	8.0	2.0	9.0
419	26.601	5.33	0.67	2.67	1.67	-2.33	8.67	1.67	1.67	3.67	-0.33	4.67	10.67	2.67	3.67	9.67	4.67	2.67	3.67	5.67	2.67	0.67	7.67	2.67	8.67	4.67	-0.33	6.67
426	27.045	6.0	-2.0	6.0	5.0	1.0	1.0	4.0	-3.0	1.0	-4.0	4.0	-1.0	1.0	1.0	3.0	0.0	2.0	3.0	5.0	3.0	10.0	4.0	2.0	4.0	1.0	1.0	0.0
433	27.49	6.33	-1.33	-1.33	0.67	2.67	0.67	7.67	1.67	-1.33	3.67	3.67	0.67	-0.33	-3.33	4.67	3.67	-1.33	-3.33	2.67	1.67	0.67	1.67	3.67	1.67	-2.33	4.67	-0.33
440	27.934	4.67	1.33	4.33	-1.67	2.33	4.33	5.33	2.33	4.33	1.33	3.33	1.33	8.33	4.33	5.33	10.33	4.33	6.33	7.33	6.33	0.33	8.33	6.33	2.33	7.33	7.33	5.33
447	28.379	9.33	-3.33	-6.33	-4.33	-0.33	-1.33	-1.33	-0.33	2.67	-1.33	2.67	1.67	-8.33	-4.33	0.67	0.67	-1.33	-0.33	-1.33	-2.33	-3.33	0.67	-0.33	-0.33	-1.33	-6.33	-0.33
454	28.823	9.0	0.0	-5.0	-5.0	-4.0	-6.0	-2.0	4.0	-7.0	-3.0	1.0	0.0	1.0	5.0	1.0	3.0	-1.0	-6.0	-2.0	1.0	-7.0	0.0	-6.0	-2.0	-2.0	-4.0	3.0
461	29.267	6.0	0.0	1.0	3.0	8.0	-1.0	-1.0	-1.0	3.0	0.0	1.0	2.0	4.0	0.0	0.0	0.0	2.0	1.0	-1.0	4.0	6.0	6.0	-3.0	4.0	5.0	1.0	6.0
468	29.712	5.33	5.67	2.67	0.67	1.67	-3.33	-2.33	2.67	-1.33	6.67	-0.33	7.67	2.67	-1.33	2.67	-2.33	-0.33	1.67	-1.33	4.67	1.67	-1.33	-0.33	-1.33	6.67	-1.33	0.67
475	30.156	4.67	4.33	-1.67	1.33	5.33	7.33	5.33	4.33	0.33	3.33	5.33	1.33	4.33	4.33	3.33	-3.67	-1.67	2.33	3.33	3.33	6.33	2.33	5.33	3.33	5.33	1.33	9.33
482	30.6	5.67	-0.67	-3.67	0.33	-0.67	2.33	0.33	2.33	1.33	0.33	-0.67	-2.67	0.33	-0.67	1.33	-2.67	1.33	-0.67	-0.67	6.33	1.33	-0.67	6.33	4.33	1.33	2.33	1.33
489	31.045	7.67	-2.67	-3.67	1.33	-2.67	-3.67	-1.67	-2.67	-0.67	-0.67	-4.67	-0.67	-4.67	1.33	-0.67	-2.67	1.33	-1.67	-4.67	0.33	-4.67	-0.67	-2.67	-2.67	-4.67	3.33	-2.67
496	31.489	5.0	3.0	4.0	-2.0	0.0	4.0	0.0	-1.0	1.0	6.0	0.0	0.0	2.0	5.0	3.0	2.0	3.0	4.0	2.0	2.0	2.0	2.0	5.0	2.0	-2.0	4.0	5.0
503	31.933	5.33	0.67	5.67	2.67	5.67	5.67	-2.33	0.67	3.67	0.67	3.67	0.67	3.67	-3.33	2.67	-3.33	3.67	2.67	-0.33	-2.33	4.67	1.67	2.67	1.67	2.67	-0.33	2.67
510	32.377	5.33	-1.33	4.67	-1.33	6.67	-0.33	-2.33	3.67	4.67	1.67	0.67	0.67	2.67	-3.33	4.67	-1.33	0.67	2.67	-0.33	3.67	-0.33	1.67	1.67	-1.33	-0.33	-3.33	-3.33
517	32.822	4.67	1.33	-1.67	-0.67	3.33	-3.67	3.33	2.33	2.33	-0.67	-1.67	1.33	0.33	1.33	1.33	-3.67	2.33	2.33	5.33	3.33	2.33	5.33	4.33	1.33	3.33	5.33	0.33
524	33.266	7.67	-7.67	-4.67	-3.67	-2.67	-3.67	-0.67	-1.67	-0.67	2.33	-1.67	-4.67	-1.67	3.33	-0.67	3.33	2.33	1.33	-4.67	1.33	1.33	-1.67	-0.67	-0.67	0.33	2.33	-1.67
531	33.71	8.0	-5.0	-4.0	-4.0	-2.0	-2.0	-6.0	-1.0	-4.0	2.0	-5.0	4.0	-2.0	4.0	-3.0	-4.0	2.0	-3.0	1.0	0.0	0.0	-3.0	0.0	1.0	-1.0	-1.0	-5.0
538	34.154	5.0	-1.0	-2.0	-2.0	2.0	-4.0	-3.0	-3.0	2.0	-1.0	5.0	-2.0	2.0	2.0	-1.0	-1.0	6.0	-2.0	1.0	0.0	1.0	-1.0	-4.0	-1.0	-3.0	1.0	-2.0
545	34.598	3.0	3.0	4.0	0.0	-1.0	4.0	1.0	5.0	7.0	0.0	4.0	0.0	2.0	5.0	5.0	3.0	2.0	5.0	4.0	0.0	1.0	4.0	3.0	4.0	4.0	3.0	0.0
552	35.043	7.33	-3.33	-2.33	-3.33	-4.33	-2.33	1.67	-5.33	-1.33	0.67	0.67	0.67	-4.33	-2.33	-2.33	4.67	-1.33	0.67	-3.33	-1.33	-2.33	-5.33	1.67	-0.33	1.67	1.67	-0.33
559	35.487	5.67	-1.67	0.33	-1.67	-2.67	0.33	-0.67	-1.67	-0.67	2.33	1.33	-0.67	-3.67	0.33	-1.67	-1.67	-2.67	-0.67	-2.67	1.33	1.33	-3.67	0.33	-0.67	-0.67	-1.67	4.33
566	35.931	5.67	1.33	-2.67	0.33	0.33	0.33	-1.67	-4.67	-1.67	-5.67	-0.67	2.33	-2.67	-1.67	0.33	-0.67	4.33	-0.67	-0.67	3.33	0.33	-0.67	2.33	5.33	-2.67	2.33	1.33
573	36.375	7.0	-3.0	-1.0	-1.0	-5.0	-3.0	-2.0	-1.0	0.0	-3.0	1.0	-1.0	0.0	-4.0	-1.0	2.0	-5.0	-4.0	-3.0	-3.0	-4.0	-1.0	1.0	0.0	-6.0	-2.0	-2.0
580	36.819	5.67	1.33	2.33	-1.67	0.33	-1.67	-0.67	-3.67	-3.67	-2.67	4.33	1.33	-3.67	-5.67	-2.67	-2.67	2.33	-0.67	3.33	3.33	1.33	-1.67	-0.67	-0.67	-1.67	-2.67	-0.67
587	37.263	4.67	2.33	0.33	3.33	1.33	5.33	4.33	1.33	-1.67	-0.67	2.33	-0.67	2.33	-2.67	2.33	0.33	-0.67	4.33	2.33	-0.67	0.33	0.33	-0.67	-1.67	-2.67	0.33	3.33
594	37.707	5.33	-1.33	3.67	-3.33	0.67	1.67	-3.33	1.67	-3.33	-3.33	-4.33	0.67	0.67	-0.33	-2.33	1.67	-0.33	0.67	-1.33	4.67	-1.33	1.67	0.67	-1.33	0.67	0.67	-1.33
601	38.152	3.0	0.0	4.0	1.0	4.0	0.0	4.0	4.0	0.0	3.0	2.0	0.0	2.0	8.0	-1.0	3.0	1.0	6.0	2.0	4.0	2.0	5.0	2.0	5.0	6.0	0.0	5.0
608	38.596	6.0	-1.0	-2.0	-3.0	-5.0	0.0	2.0	-2.0	3.0	-4.0	3.0	0.0	2.0	0.0	-1.0	0.0	-1.0	4.0	3.0	1.0	0.0	0.0	3.0	-4.0	-1.0	4.0	-1.0
615	39.04	4.67	-0.67	-0.67	0.33	1.33	2.33	2.33	2.33	3.33	0.33	-0.67	2.33	0.33	0.33	0.33	0.33	8.33	3.33	0.33	1.33	0.33	-0.67	3.33	-2.67	4.33	1.33	3.33
622	39.484	7.0	0.0	-3.0	0.0	-1.0	0.0	1.0	1.0	0.0	4.0	1.0	-3.0	2.0	-4.0	0.0	0.0	-5.0	0.0	5.0	0.0	2.0	-1.0	0.0	1.0	4.0	-4.0	-4.0
629	39.928	4.67	1.33	0.33	9.33	2.33	3.33	-1.67	1.33	1.33	0.33	6.33	8.33	-2.67	2.33	-2.67	0.33	4.33	0.33	1.33	1.33	1.33	-2.67	2.33	0.33	-2.67	0.33	5.33
636	40.372	7.67	0.33	-2.67	-3.67	2.33	-2.67	-0.67	-1.67	1.33	-4.67	-3.67	0.33	-5.67	-6.67	1.33	-1.67	-4.67	-1.67	-1.67	0.33	2.33	-0.67	-0.67	-4.67	-4.67	-0.67	1.33
643	40.817	4.67	-0.67	2.33	3.33	2.33	1.33	-1.67	-4.67	2.33	-0.67	0.33	3.33	4.33	-0.67	5.33	-1.67	-1.67	-2.67	-0.67	1.33	-1.67	2.33	1.33	0.33	0.33	1.33	4.33
650	41.261	5.33	-0.33	4.67	-0.33	0.67	2.67	1.67	3.67	2.67	0.67	0.67	3.67	-0.33	-3.33	-3.33	-3.33	5.67	1.67	-1.33	2.67	3.67	2.67	-1.33	-1.33	6.67	0.67	1.67
657	41.705	8.0	-1.0	2.0	-4.0	-1.0	-3.0	-7.0	-3.0	2.0	-5.0	-4.0	-5.0	2.0	-3.0	-5.0	-1.0	-2.0	-6.0	-3.0	-2.0	-3.0	-2.0	0.0	-3.0	-4.0	-1.0	-4.0
664	42.149	6.67	3.33	-1.67	5.33	0.33	1.33	-0.67	-2.67	-0.67	-0.67	0.33	2.33	-4.67	-1.67	-2.67	1.33	-0.67	2.33	-0.67	1.33	2.33	-3.67	-1.67	2.33	2.33	9.33	0.33
671	42.594	3.67	4.33	3.33	4.33	1.33	8.33	2.33	1.33	0.33	1.33	-0.67	1.33	0.33	7.33	0.33	6.33	3.33	-0.67	3.33	3.33	4.33	1.33	5.33	4.33	4.33	7.33	1.33
678	43.038	5.33	-1.33	0.67	1.67	1.67	0.67	5.67	4.67	1.67	1.67	-2.33	0.67	-2.33	-2.33	1.67	0.67	0.67	1.67	5.67	-1.33	-1.33	6.67	-0.33	-0.33	1.67	0.67	0.67
685	43.482	4.33	0.67	1.67	0.67	6.67	7.67	0.67	2.67	3.67	2.67	-0.33	-1.33	1.67	1.67	-3.33	1.67	5.67	0.67	1.67	3.67	3.67	2.67	-1.33	2.67	5.67	6.67	2.67
692	43.927	4.0	2.0	7.0	1.0	7.0	6.0	5.0	3.0	2.0	5.0	-1.0	0.0	3.0	3.0	-4.0	5.0	3.0	7.0	2.0	6.0	1.0	3.0	1.0	0.0	-2.0	5.0	2.0
699	44.371	7.0	-1.0	9.0	-2.0	2.0	7.0	4.0	2.0	1.0	-1.0	-1.0	-3.0	2.0	0.0	2.0	2.0	3.0	-1.0	-3.0	6.0	-2.0	-2.0	2.0	4.0	-1.0	-3.0	-2.0
706	44.815	7.0	1.0	0.0	1.0	1.0	5.0	-1.0	2.0	-2.0	2.0	2.0	0.0	2.0	1.0	-1.0	0.0	0.0	2.0	3.0	1.0	4.0	-5.0	-2.0	0.0	3.0	-2.0	-4.0
713	45.26	6.67	2.33	8.33	3.33	5.33	1.33	4.33	0.33	-0.67	6.33	2.33	-1.67	-1.67	-1.67	2.33	2.33	2.33	1.33	2.33	0.33	0.33	-1.67	0.33	0.33	0.33	-1.67	-1.67
720	45.704	6.67	5.33	6.33	-1.67	5.33	2.33	1.33	-0.67	1.33	0.33	-0.67	-1.67	2.33	7.33	3.33	-3.67	-3.67	0.33	-3.67	0.33	1.33	-0.67	-2.67	3.33	-1.67	-1.67	1.33
727	46.149	8.0	1.0	-3.0	1.0	-3.0	1.0	1.0	-2.0	4.0	0.0	-2.0	-2.0	7.0	-1.0	2.0	2.0	2.0	-5.0	1.0	-2.0	-5.0	0.0	0.0	4.0	-4.0	-3.0	-4.0
734	46.594	7.67	0.33	-2.67	3.33	-1.67	3.33	4.33	0.33	1.33	2.33	-0.67	1.33	-0.67	-2.67	-2.67	0.33	5.33	4.33	-0.67	-1.67	-2.67	-2.67	-4.67	3.33	-2.67	0.33	-1.67
741	47.038	6.67	0.33	-2.67	5.33	-0.67	1.33	-3.67	1.33	-1.67	3.33	0.33	-0.67	-2.67	0.33	1.33	-0.67	-4.67	1.33	-0.67	-0.67	1.33	2.33	2.33	-2.67	-2.67	0.33	1.33
748	47.483	10.33	-7.33	-3.33	-4.33	-0.33	-6.33	0.67	-6.33	-4.33	-6.33	-5.33	1.67	-7.33	5.67	-3.33	1.67	-2.33	-1.33	-5.33	-3.33	5.67	-2.33	-3.33	-1.33	-0.33	-3.33	-2.33
755	47.928	5.67	1.33	4.33	-0.67	1.33	1.33	4.33	6.33	4.33	0.33	0.33	1.33	3.33	-0.67	5.33	7.33	1.33	-0.67	-2.67	0.33	0.33	2.33	0.33	3.33	1.33	2.33	-1.67
762	48.372	13.0	-8.0	-4.0	-5.0	1.0	-1.0	-3.0	-8.0	-7.0	-5.0	-9.0	-1.0	-3.0	-2.0	-4.0	-7.0	-5.0	-5.0	-4.0	-5.0	-7.0	-3.0	-5.0	-4.0	-3.0	-3.0	-6.0
769	48.817	10.33	-5.33	-6.33	1.67	-0.33	-5.33	-1.33	-4.33	-1.33	-4.33	-4.33	0.67	-2.33	0.67	3.67	-5.33	-2.33	-3.33	-2.33	3.67	-3.33	-1.33	-4.33	0.67	-0.33	-2.33	-8.33
776	49.262	10.0	-4.0	-3.0	-1.0	-3.0	-4.0	3.0	7.0	8.0	-2.0	-4.0	6.0	-4.0	-2.0	0.0	3.0	-6.0	-2.0	0.0	-2.0	-1.0	-4.0	4.0	2.0	-1.0	-2.0	1.0
783	49.707	7.0	3.0	-1.0	7.0	3.0	1.0	2.0	4.0	1.0	1.0	-3.0	7.0	8.0	0.0	-1.0	4.0	2.0	3.0	1.0	7.0	2.0	2.0	-2.0	2.0	1.0	-1.0	5.0
790	50.152	8.0	2.0	0.0	6.0	7.0	1.0	3.0	1.0	1.0	-2.0	4.0	-1.0	6.0	2.0	1.0	-4.0	1.0	-1.0	3.0	0.0	8.0	-3.0	2.0	1.0	0.0	4.0	-3.0
797	50.597	10.0	1.0	1.0	6.0	-1.0	0.0	-5.0	5.0	5.0	3.0	1.0	0.0	2.0	1.0	-2.0	1.0	5.0	7.0	-5.0	0.0	0.0	2.0	-5.0	6.0	-1.0	-3.0	2.0
804	51.042	7.0	6.0	4.0	3.0	-2.0	1.0	11.0	9.0	6.0	0.0	1.0	4.0	10.0	9.0	3.0	4.0	5.0	-2.0	1.0	1.0	1.0	0.0	12.0	2.0	3.0	8.0	2.0
811	51.487	6.67	4.33	-0.67	11.33	5.33	10.33	6.33	2.33	17.33	1.33	1.33	3.33	2.33	10.33	5.33	7.33	2.33	1.33	6.33	0.33	2.33	7.33	4.33	6.33	4.33	8.33	2.33
818	51.932	7.67	6.33	5.33	-1.67	3.33	6.33	9.33	7.33	6.33	7.33	8.33	-0.67	2.33	4.33	6.33	2.33	-2.67	-1.67	3.33	3.33	1.33	4.33	5.33	2.33	3.33	6.33	-1.67
825	52.377	12.0	-3.0	-3.0	0.0	4.0	-2.0	8.0	6.0	-1.0	10.0	2.0	-3.0	3.0	-3.0	0.0	2.0	-4.0	-4.0	-7.0	3.0	-2.0	-1.0	3.0	-2.0	0.0	-3.0	5.0
832	52.823	10.67	6.33	5.33	12.33	4.33	7.33	1.33	10.33	8.33	12.33	2.33	3.33	-0.67	5.33	-0.67	-1.67	0.33	-1.67	1.33	-1.67	3.33	-1.67	3.33	0.33	0.33	-6.67	-0.67
839	53.268	9.67	4.33	1.33	6.33	4.33	11.33	6.33	8.33	5.33	4.33	-1.67	2.33	5.33	1.33	-0.67	7.33	4.33	2.33	2.33	-0.67	-1.67	0.33	2.33	4.33	2.33	2.33	6.33
846	53.713	11.67	-2.67	2.33	5.33	7.33	2.33	6.33	-0.67	3.33	8.33	5.33	2.33	1.33	3.33	-5.67	1.33	-0.67	0.33	2.33	-0.67	2.33	2.33	4.33	0.33	0.33	-5.67	6.33
853	54.159	6.33	10.67	4.67	5.67	5.67	8.67	9.67	6.67	13.67	7.67	7.67	12.67	16.67	3.67	4.67	7.67	7.67	6.67	5.67	3.67	7.67	8.67	4.67	11.67	4.67	9.67	7.67
860	54.604	7.33	8.67	1.67	2.67	12.67	3.67	4.67	6.67	21.67	2.67	5.67	15.67	6.67	8.67	-0.33	0.67	8.67	6.67	12.67	4.67	3.67	1.67	5.67	10.67	3.67	-0.33	2.67
867	55.05	10.0	-2.0	3.0	3.0	7.0	9.0	10.0	3.0	10.0	6.0	8.0	12.0	7.0	3.0	10.0	10.0	0.0	7.0	6.0	-1.0	5.0	8.0	4.0	4.0	-1.0	1.0	8.0
874	55.496	8.0	2.0	2.0	16.0	7.0	5.0	2.0	15.0	7.0	12.0	8.0	12.0	5.0	5.0	7.0	4.0	5.0	5.0	6.0	6.0	7.0	19.0	9.0	11.0	13.0	-3.0	6.0
881	55.942	10.33	-1.33	-1.33	14.67	-1.33	7.67	4.67	6.67	4.67	6.67	10.67	6.67	12.67	7.67	0.67	2.67	-3.33	8.67	0.67	3.67	9.67	2.67	-0.33	8.67	2.67	4.67	-1.33
888	56.387	9.67	3.33	-3.67	7.33	8.33	11.33	7.33	8.33	14.33	16.33	2.33	4.33	8.33	11.33	8.33	3.33	7.33	11.33	6.33	6.33	0.33	11.33	5.33	6.33	4.33	2.33	9.33
895	56.833	10.0	4.0	4.0	7.0	11.0	2.0	11.0	13.0	7.0	20.0	18.0	10.0	-1.0	7.0	3.0	9.0	3.0	3.0	-4.0	7.0	5.0	11.0	2.0	5.0	5.0	2.0	14.0
902	57.279	11.33	2.67	-0.33	8.67	8.67	1.67	2.67	5.67	5.67	3.67	5.67	-0.33	2.67	4.67	-0.33	8.67	12.67	8.67	-2.33	4.67	5.67	0.67	2.67	3.67	0.67	9.67	5.67
909	57.726	9.67	8.33	7.33	7.33	15.33	12.33	11.33	13.33	12.33	12.33	11.33	9.33	8.33	17.33	9.33	8.33	11.33	13.33	10.33	0.33	11.33	4.33	10.33	9.33	16.33	9.33	7.33
916	58.172	9.67	6.33	1.33	7.33	8.33	14.33	28.33	16.33	14.33	6.33	8.33	5.33	9.33	11.33	8.33	5.33	2.33	7.33	16.33	8.33	8.33	12.33	9.33	4.33	9.33	0.33	9.33
923	58.618	12.67	-2.67	4.33	12.33	16.33	27.33	31.33	15.33	17.33	11.33	11.33	7.33	0.33	3.33	3.33	8.33	6.33	5.33	8.33	10.33	3.33	8.33	1.33	10.33	-1.67	7.33	7.33
930	59.064	9.67	8.33	15.33	24.33	33.33	39.33	51.33	46.33	28.33	15.33	33.33	22.33	10.33	32.33	38.33	24.33	13.33	6.33	25.33	20.33	22.33	13.33	8.33	22.33	22.33	17.33	14.33
937	59.511	14.0	-3.0	35.0	71.0	85.0	40.0	31.0	40.0	39.0	31.0	59.0	19.0	23.0	97.0	47.0	26.0	23.0	19.0	28.0	22.0	13.0	15.0	18.0	9.0	13.0	10.0	14.0
944	59.957	13.0	6.0	57.0	159.0	132.0	96.0	22.0	29.0	38.0	47.0	50.0	33.0	17.0	67.0	63.0	12.0	24.0	16.0	23.0	13.0	14.0	19.0	18.0	23.0	8.0	6.0	17.0
951	60.404	7.67	7.33	35.33	54.33	73.33	43.33	28.33	14.33	30.33	22.33	22.33	5.33	25.33	37.33	23.33	15.33	12.33	17.33	24.33	10.33	14.33	27.33	47.33	40.33	9.33	13.33	22.33
958	60.851	10.33	6.67	4.67	19.67	19.67	18.67	2.67	13.67	11.67	3.67	9.67	5.67	4.67	10.67	1.67	8.67	8.67	5.67	11.67	4.67	11.67	17.67	21.67	28.67	9.67	6.67	4.67
965	61.298	12.0	10.0	3.0	10.0	12.0	10.0	10.0	13.0	3.0	10.0	9.0	4.0	13.0	-3.0	5.0	10.0	3.0	8.0	14.0	5.0	7.0	8.0	13.0	9.0	-1.0	6.0	6.0
972	61.745	7.0	11.0	15.0	11.0	25.0	20.0	16.0	23.0	23.0	17.0	19.0	22.0	14.0	18.0	18.0	8.0	12.0	11.0	18.0	6.0	11.0	21.0	6.0	14.0	15.0	15.0	18.0
979	62.192	10.33	3.67	6.67	14.67	16.67	22.67	28.67	18.67	21.67	32.67	34.67	26.67	26.67	6.67	9.67	16.67	12.67	6.67	10.67	20.67	15.67	16.67	10.67	13.67	10.67	10.67	10.67
986	62.639	9.0	7.0	19.0	24.0	32.0	44.0	27.0	40.0	80.0	87.0	92.0	74.0	46.0	37.0	20.0	17.0	16.0	20.0	19.0	19.0	21.0	9.0	7.0	31.0	28.0	25.0	30.0
993	63.086	9.67	11.33	14.33	24.33	39.33	40.33	41.33	80.33	93.33	103.33	112.33	40.33	24.33	24.33	26.33	13.33	16.33	15.33	14.33	24.33	25.33	13.33	14.33	18.33	38.33	43.33	19.33
1000	63.533	10.33	9.67	1.67	24.67	29.67	33.67	61.67	85.67	57.67	40.67	29.67	15.67	13.67	25.67	8.67	5.67	12.67	10.67	7.67	10.67	6.67	4.67	9.67	13.67	33.67	27.67	8.67
1007	63.981	9.33	-1.33	3.67	3.67	19.67	6.67	20.67	28.67	26.67	14.67	13.67	15.67	12.67	8.67	5.67	5.67	4.67	10.67	7.67	10.67	9.67	16.67	12.67	6.67	18.67	8.67	11.67
1014	64.428	12.0	6.0	3.0	14.0	9.0	17.0	12.0	19.0	16.0	15.0	25.0	15.0	17.0	1.0	1.0	4.0	5.0	10.0	8.0	2.0	6.0	14.0	8.0	10.0	7.0	4.0	7.0
1021	64.876	11.33	5.67	5.67	20.67	4.67	8.67	21.67	24.67	25.67	11.67	20.67	14.67	16.67	15.67	11.67	10.67	6.67	14.67	10.67	8.67	4.67	23.67	17.67	14.67	25.67	15.67	6.67
1028	65.324	15.67	0.33	3.33	7.33	7.33	7.33	3.33	9.33	18.33	2.33	27.33	21.33	7.33	0.33	19.33	12.33	10.33	5.33	6.33	11.33	9.33	2.33	15.33	17.33	9.33	13.33	6.33
1035	65.772	12.67	1.33	0.33	25.33	30.33	19.33	25.33	18.33	18.33	21.33	12.33	6.33	24.33	12.33	13.33	22.33	14.33	20.33	24.33	13.33	18.33	6.33	25.33	9.33	9.33	15.33	15.33
1042	66.22	10.33	5.67	5.67	42.67	34.67	34.67	35.67	32.67	35.67	24.67	14.67	17.67	24.67	15.67	14.67	8.67	17.67	19.67	15.67	11.67	17.67	45.67	24.67	27.67	9.67	9.67	16.67
1049	66.668	14.67	-3.67	5.33	21.33	27.33	26.33	21.33	29.33	25.33	26.33	30.33	17.33	29.33	28.33	17.33	7.33	7.33	13.33	13.33	20.33	23.33	36.33	27.33	20.33	5.33	6.33	12.33
1056	67.116	15.67	8.33	9.33	11.33	28.33	20.33	24.33	45.33	51.33	29.33	37.33	45.33	32.33	40.33	37.33	8.33	11.33	20.33	10.33	24.33	18.33	38.33	38.33	29.33	24.33	13.33	14.33
1063	67.564	11.33	6.67	20.67	31.67	51.67	39.67	33.67	50.67	75.67	46.67	32.67	54.67	43.67	58.67	40.67	35.67	15.67	15.67	26.67	42.67	48.67	38.67	55.67	32.67	30.67	17.67	16.67
1070	68.013	11.67	11.33	24.33	34.33	64.33	45.33	39.33	35.33	41.33	43.33	29.33	36.33	33.33	41.33	35.33	14.33	17.33	24.33	33.33	31.33	33.33	60.33	52.33	32.33	35.33	27.33	14.33
1077	68.462	8.67	11.33	47.33	63.33	70.33	60.33	37.33	17.33	38.33	22.33	22.33	29.33	50.33	20.33	30.33	19.33	30.33	16.33	27.33	44.33	40.33	31.33	18.33	26.33	26.33	19.33	26.33
1084	68.91	15.67	1.33	25.33	49.33	61.33	49.33	40.33	21.33	15.33	26.33	33.33	39.33	64.33	34.33	19.33	11.33	16.33	7.33	23.33	36.33	24.33	17.33	15.33	7.33	20.33	10.33	24.33
1091	69.359	12.67	1.33	23.33	41.33	86.33	41.33	39.33	32.33	16.33	27.33	32.33	45.33	25.33	47.33	16.33	13.33	9.33	28.33	8.33	31.33	19.33	23.33	11.33	16.33	20.33	21.33	21.33
1098	69.808	7.67	15.33	18.33	41.33	48.33	43.33	56.33	43.33	24.33	32.33	29.33	34.33	39.33	12.33	11.33	13.33	24.33	27.33	27.33	21.33	19.33	22.33	18.33	17.33	12.33	19.33	22.33
1105	70.257	8.67	7.33	13.33	14.33	22.33	15.33	23.33	19.33	26.33	31.33	29.33	19.33	23.33	18.33	11.33	11.33	13.33	35.33	24.33	24.33	22.33	14.33	12.33	19.33	21.33	15.33	10.33
1112	70.707	12.0	8.0	9.0	11.0	21.0	11.0	7.0	28.0	24.0	27.0	10.0	14.0	9.0	15.0	13.0	9.0	3.0	18.0	9.0	14.0	10.0	23.0	8.0	3.0	11.0	10.0	27.0
1119	71.156	10.0	4.0	10.0	14.0	30.0	6.0	23.0	14.0	13.0	22.0	12.0	13.0	19.0	14.0	4.0	12.0	12.0	6.0	8.0	1.0	6.0	12.0	3.0	8.0	6.0	12.0	8.0
1126	71.606	14.67	-8.67	10.33	10.33	4.33	12.33	3.33	0.33	14.33	10.33	14.33	6.33	4.33	3.33	6.33	16.33	13.33	0.33	7.33	2.33	6.33	3.33	14.33	9.33	5.33	-1.67	1.33
1133	72.055	10.67	7.33	16.33	26.33	22.33	22.33	24.33	20.33	15.33	15.33	7.33	12.33	15.33	15.33	12.33	9.33	16.33	21.33	15.33	3.33	9.33	6.33	17.33	10.33	8.33	3.33	13.33
1140	72.505	13.67	6.33	15.33	31.33	18.33	21.33	23.33	11.33	15.33	30.33	17.33	11.33	15.33	29.33	25.33	23.33	16.33	24.33	32.33	18.33	2.33	18.33	17.33	17.33	7.33	25.33	12.33
1147	72.955	24.67	1.33	17.33	14.33	21.33	9.33	32.33	27.33	25.33	22.33	29.33	15.33	12.33	32.33	35.33	33.33	44.33	56.33	26.33	27.33	15.33	11.33	15.33	20.33	27.33	13.33	10.33
1154	73.405	18.33	10.67	18.67	7.67	20.67	11.67	16.67	26.67	12.67	11.67	10.67	23.67	16.67	26.67	28.67	17.67	21.67	15.67	14.67	18.67	8.67	13.67	17.67	13.67	19.67	9.67	9.67
1161	73.855	11.33	7.67	12.67	6.67	14.67	9.67	18.67	25.67	7.67	13.67	9.67	20.67	19.67	8.67	13.67	11.67	10.67	11.67	5.67	15.67	19.67	6.67	16.67	12.67	16.67	18.67	19.67
1168	74.306	16.33	-4.33	0.67	10.67	3.67	20.67	26.67	9.67	13.67	13.67	6.67	11.67	10.67	16.67	8.67	2.67	5.67	0.67	0.67	19.67	13.67	10.67	10.67	16.67	8.67	8.67	5.67
1175	74.756	21.0	4.0	7.0	22.0	30.0	48.0	51.0	27.0	16.0	31.0	3.0	34.0	27.0	27.0	14.0	31.0	16.0	16.0	9.0	15.0	17.0	30.0	11.0	33.0	30.0	19.0	15.0
1182	75.207	35.33	10.67	29.67	55.67	82.67	116.67	124.67	68.67	27.67	53.67	37.67	44.67	48.67	60.67	61.67	47.67	23.67	18.67	33.67	39.67	54.67	84.67	43.67	70.67	95.67	109.67	17.67
1189	75.658	20.67	18.33	83.33	150.33	173.33	184.33	179.33	141.33	76.33	72.33	64.33	80.33	59.33	105.33	52.33	49.33	52.33	43.33	63.33	40.33	104.33	116.33	112.33	163.33	206.33	186.33	37.33
1196	76.109	13.67	31.33	102.33	199.33	223.33	224.33	277.33	139.33	86.33	83.33	54.33	51.33	52.33	112.33	59.33	43.33	61.33	36.33	42.33	52.33	84.33	96.33	112.33	149.33	169.33	164.33	44.33
1203	76.56	11.0	14.0	59.0	141.0	182.0	162.0	154.0	113.0	77.0	33.0	50.0	35.0	44.0	53.0	39.0	24.0	53.0	45.0	60.0	32.0	39.0	70.0	83.0	96.0	134.0	114.0	36.0
1210	77.011	10.33	12.67	35.67	51.67	63.67	68.67	57.67	51.67	44.67	21.67	27.67	17.67	24.67	29.67	21.67	19.67	26.67	32.67	32.67	35.67	17.67	34.67	43.67	46.67	45.67	38.67	23.67
1217	77.463	14.67	-1.67	31.33	19.33	17.33	12.33	30.33	30.33	25.33	28.33	9.33	16.33	8.33	10.33	18.33	6.33	15.33	13.33	17.33	8.33	7.33	13.33	11.33	17.33	12.33	24.33	11.33
1224	77.915	10.67	3.33	57.33	48.33	25.33	37.33	35.33	31.33	30.33	33.33	21.33	31.33	20.33	17.33	19.33	22.33	38.33	14.33	18.33	19.33	37.33	24.33	22.33	16.33	26.33	24.33	32.33
1231	78.366	12.67	8.33	21.33	39.33	37.33	77.33	56.33	35.33	40.33	28.33	24.33	29.33	24.33	30.33	22.33	34.33	40.33	32.33	17.33	34.33	33.33	14.33	21.33	19.33	25.33	25.33	52.33
1238	78.818	13.33	8.67	22.67	45.67	33.67	78.67	65.67	46.67	49.67	37.67	41.67	53.67	35.67	32.67	48.67	33.67	46.67	40.67	38.67	59.67	91.67	74.67	24.67	38.67	50.67	48.67	76.67
1245	79.271	10.67	12.33	34.33	40.33	58.33	57.33	62.33	61.33	50.33	44.33	46.33	57.33	59.33	47.33	48.33	28.33	53.33	74.33	55.33	92.33	117.33	60.33	59.33	44.33	30.33	72.33	125.33
1252	79.723	14.67	7.33	28.33	64.33	47.33	41.33	37.33	29.33	57.33	32.33	54.33	50.33	45.33	50.33	69.33	36.33	57.33	69.33	62.33	81.33	111.33	76.33	34.33	48.33	48.33	58.33	88.33
1259	80.175	12.67	7.33	30.33	59.33	46.33	41.33	35.33	21.33	33.33	40.33	53.33	39.33	33.33	51.33	55.33	24.33	49.33	48.33	57.33	40.33	66.33	68.33	22.33	32.33	31.33	54.33	94.33
1266	80.628	10.0	8.0	14.0	54.0	28.0	36.0	20.0	19.0	33.0	25.0	42.0	27.0	23.0	45.0	23.0	17.0	21.0	30.0	32.0	39.0	25.0	46.0	26.0	22.0	41.0	44.0	36.0
1273	81.081	13.0	10.0	3.0	28.0	16.0	21.0	12.0	16.0	19.0	20.0	32.0	19.0	26.0	22.0	28.0	15.0	17.0	23.0	11.0	12.0	24.0	18.0	12.0	17.0	30.0	27.0	16.0
1280	81.534	16.33	-3.33	4.67	14.67	9.67	5.67	15.67	12.67	9.67	11.67	25.67	5.67	12.67	7.67	13.67	8.67	15.67	16.67	14.67	4.67	15.67	19.67	23.67	19.67	24.67	0.67	15.67
1287	81.987	15.67	1.33	4.33	19.33	3.33	10.33	1.33	7.33	0.33	11.33	21.33	10.33	20.33	10.33	7.33	7.33	11.33	12.33	8.33	11.33	15.33	18.33	8.33	12.33	16.33	10.33	13.33
1294	82.441	20.67	6.33	-0.67	16.33	5.33	5.33	18.33	13.33	11.33	9.33	9.33	4.33	7.33	2.33	9.33	6.33	-1.67	6.33	-1.67	9.33	4.33	10.33	5.33	3.33	2.33	7.33	13.33
1301	82.894	15.67	7.33	5.33	6.33	12.33	0.33	21.33	12.33	17.33	9.33	14.33	22.33	16.33	7.33	18.33	13.33	6.33	9.33	12.33	5.33	11.33	22.33	5.33	19.33	15.33	9.33	11.33
1308	83.348	17.0	20.0	6.0	9.0	26.0	27.0	19.0	8.0	15.0	21.0	14.0	15.0	18.0	4.0	12.0	10.0	6.0	11.0	5.0	17.0	16.0	20.0	22.0	11.0	25.0	11.0	7.0
1315	83.802	18.67	11.33	18.33	26.33	23.33	24.33	13.33	19.33	11.33	7.33	27.33	12.33	17.33	14.33	18.33	28.33	17.33	12.33	8.33	12.33	2.33	18.33	23.33	17.33	11.33	27.33	22.33
1322	84.256	18.67	13.33	13.33	8.33	30.33	23.33	23.33	18.33	38.33	35.33	24.33	25.33	22.33	11.33	18.33	29.33	16.33	11.33	6.33	11.33	24.33	34.33	21.33	18.33	32.33	35.33	20.33
1329	84.71	23.33	13.67	17.67	11.67	16.67	25.67	16.67	38.67	20.67	40.67	21.67	26.67	23.67	24.67	12.67	26.67	18.67	14.67	20.67	14.67	24.67	24.67	7.67	26.67	30.67	24.67	24.67
1336	85.165	27.33	5.67	6.67	8.67	28.67	30.67	25.67	23.67	22.67	14.67	24.67	27.67	11.67	8.67	30.67	13.67	15.67	3.67	33.67	18.67	33.67	17.67	14.67	17.67	26.67	19.67	13.67
1343	85.619	32.0	0.0	0.0	6.0	-3.0	16.0	8.0	6.0	7.0	11.0	19.0	13.0	4.0	9.0	14.0	25.0	19.0	12.0	6.0	7.0	19.0	10.0	10.0	6.0	6.0	7.0	15.0
1350	86.074	23.0	9.0	9.0	-2.0	21.0	15.0	9.0	13.0	10.0	22.0	22.0	13.0	15.0	21.0	22.0	17.0	22.0	11.0	16.0	15.0	3.0	14.0	20.0	10.0	7.0	15.0	17.0
1357	86.529	18.33	-2.33	-0.33	5.67	21.67	16.67	21.67	9.67	19.67	20.67	17.67	17.67	10.67	24.67	24.67	35.67	33.67	29.67	16.67	20.67	16.67	16.67	23.67	14.67	15.67	21.67	8.67
1364	86.985	18.67	3.33	3.33	14.33	17.33	24.33	44.33	29.33	34.33	21.33	25.33	26.33	28.33	27.33	51.33	40.33	27.33	37.33	29.33	26.33	15.33	22.33	20.33	18.33	13.33	18.33	29.33
1371	87.44	21.0	5.0	11.0	19.0	14.0	25.0	35.0	39.0	34.0	24.0	21.0	25.0	14.0	25.0	33.0	25.0	18.0	22.0	19.0	32.0	18.0	16.0	5.0	23.0	17.0	14.0	8.0
1378	87.896	23.0	5.0	-6.0	13.0	18.0	21.0	17.0	19.0	27.0	15.0	17.0	19.0	19.0	14.0	22.0	18.0	2.0	0.0	10.0	19.0	13.0	14.0	4.0	8.0	10.0	8.0	21.0
1385	88.352	19.33	6.67	9.67	13.67	17.67	13.67	13.67	18.67	30.67	13.67	9.67	14.67	12.67	13.67	15.67	19.67	10.67	13.67	4.67	7.67	13.67	23.67	6.67	8.67	7.67	5.67	6.67
1392	88.808	21.33	4.67	-0.33	4.67	5.67	6.67	13.67	8.67	1.67	14.67	14.67	5.67	10.67	15.67	9.67	3.67	13.67	6.67	8.67	5.67	13.67	3.67	6.67	7.67	4.67	11.67	0.67
1399	89.264	18.33	6.67	8.67	3.67	10.67	16.67	10.67	23.67	2.67	9.67	18.67	12.67	6.67	14.67	21.67	6.67	2.67	14.67	2.67	7.67	5.67	14.67	12.67	13.67	9.67	9.67	11.67
1406	89.72	19.67	8.33	4.33	3.33	8.33	9.33	12.33	5.33	1.33	5.33	14.33	17.33	12.33	23.33	9.33	3.33	21.33	13.33	7.33	8.33	12.33	7.33	15.33	7.33	15.33	10.33	6.33
1413	90.177	20.0	4.0	2.0	8.0	10.0	12.0	14.0	10.0	10.0	8.0	7.0	10.0	10.0	21.0	15.0	16.0	3.0	2.0	8.0	13.0	16.0	17.0	9.0	2.0	19.0	4.0	23.0
1420	90.634	17.67	14.33	15.33	14.33	11.33	19.33	12.33	13.33	11.33	11.33	10.33	12.33	7.33	11.33	10.33	17.33	21.33	6.33	6.33	18.33	11.33	7.33	12.33	7.33	6.33	21.33	14.33
1427	91.091	28.0	-4.0	-9.0	3.0	8.0	12.0	-2.0	-10.0	1.0	8.0	8.0	2.0	-1.0	-2.0	5.0	7.0	-5.0	1.0	8.0	9.0	2.0	8.0	7.0	-5.0	4.0	2.0	0.0
1434	91.549	23.0	-3.0	6.0	-1.0	16.0	17.0	19.0	18.0	3.0	13.0	3.0	2.0	4.0	14.0	8.0	9.0	7.0	3.0	3.0	12.0	6.0	1.0	-1.0	8.0	15.0	24.0	16.0
1441	92.006	26.0	-8.0	8.0	10.0	11.0	8.0	1.0	6.0	12.0	12.0	18.0	4.0	-4.0	17.0	11.0	1.0	3.0	2.0	3.0	6.0	11.0	11.0	9.0	7.0	-1.0	2.0	7.0
1448	92.464	23.33	2.67	4.67	13.67	12.67	13.67	13.67	22.67	21.67	23.67	12.67	13.67	11.67	14.67	16.67	7.67	7.67	5.67	11.67	20.67	23.67	3.67	6.67	7.67	6.67	13.67	4.67
1455	92.922	24.67	-0.67	-0.67	10.33	-2.67	15.33	8.33	7.33	34.33	24.33	18.33	22.33	9.33	15.33	4.33	12.33	3.33	4.33	7.33	10.33	19.33	19.33	9.33	13.33	11.33	9.33	2.33
1462	93.38	27.33	4.67	2.67	9.67	4.67	10.67	4.67	-1.33	7.67	11.67	18.67	11.67	4.67	3.67	3.67	4.67	14.67	8.67	6.67	11.67	18.67	19.67	11.67	-0.33	9.67	1.67	0.67
1469	93.839	28.33	-5.33	-6.33	7.67	-7.33	4.67	0.67	11.67	12.67	15.67	7.67	2.67	-1.33	15.67	1.67	4.67	-0.33	7.67	9.67	12.67	14.67	2.67	15.67	11.67	-1.33	5.67	9.67
1476	94.297	26.0	9.0	-3.0	-2.0	6.0	12.0	11.0	10.0	8.0	-2.0	6.0	7.0	11.0	9.0	6.0	7.0	20.0	-1.0	14.0	17.0	9.0	1.0	10.0	7.0	7.0	9.0	7.0
1483	94.756	31.0	-14.0	-4.0	-8.0	0.0	4.0	5.0	5.0	2.0	-6.0	-6.0	-12.0	10.0	-11.0	9.0	-4.0	0.0	9.0	-5.0	6.0	-2.0	5.0	-1.0	2.0	4.0	6.0	3.0
1490	95.215	28.33	2.67	-0.33	-0.33	9.67	12.67	9.67	-0.33	7.67	15.67	-2.33	1.67	12.67	0.67	0.67	-1.33	-3.33	10.67	-6.33	-1.33	8.67	3.67	3.67	12.67	1.67	-3.33	2.67
1497	95.675	27.0	7.0	2.0	15.0	-1.0	-13.0	5.0	11.0	10.0	3.0	5.0	18.0	3.0	5.0	8.0	13.0	10.0	5.0	-1.0	-2.0	7.0	15.0	9.0	6.0	2.0	2.0	2.0
1504	96.134	30.33	-2.33	11.67	4.67	-6.33	1.67	-1.33	11.67	-5.33	-6.33	8.67	-0.33	8.67	3.67	-3.33	-8.33	-5.33	1.67	-4.33	-1.33	1.67	1.67	4.67	14.67	8.67	13.67	13.67
1511	96.594	30.0	3.0	5.0	-1.0	1.0	12.0	5.0	4.0	12.0	18.0	6.0	15.0	8.0	1.0	10.0	15.0	-3.0	-2.0	14.0	4.0	15.0	4.0	2.0	5.0	7.0	3.0	11.0
1518	97.054	25.67	-3.67	13.33	-0.67	3.33	12.33	5.33	6.33	10.33	15.33	22.33	16.33	17.33	14.33	-3.67	2.33	17.33	10.33	7.33	8.33	13.33	9.33	13.33	1.33	13.33	9.33	6.33
1525	97.514	26.33	10.67	5.67	-1.33	16.67	2.67	12.67	13.67	6.67	10.67	9.67	13.67	9.67	6.67	3.67	4.67	16.67	19.67	10.67	9.67	3.67	15.67	18.67	14.67	5.67	6.67	7.67
1532	97.975	31.67	-4.67	4.33	-3.67	2.33	4.33	5.33	9.33	11.33	17.33	8.33	10.33	-1.67	9.33	1.33	-8.67	6.33	0.33	6.33	9.33	5.33	7.33	3.33	11.33	-10.67	0.33	-1.67
1539	98.436	28.33	2.67	3.67	10.67	8.67	8.67	1.67	14.67	8.67	12.67	16.67	3.67	-1.33	8.67	3.67	-5.33	-10.33	8.67	16.67	7.67	16.67	14.67	17.67	3.67	2.67	7.67	11.67
1546	98.897	25.0	11.0	7.0	9.0	12.0	19.0	23.0	13.0	10.0	14.0	4.0	8.0	24.0	6.0	9.0	13.0	10.0	19.0	4.0	6.0	15.0	13.0	8.0	15.0	8.0	9.0	14.0
1553	99.358	30.67	5.33	-0.67	7.33	16.33	16.33	22.33	2.33	8.33	11.33	14.33	22.33	8.33	8.33	6.33	5.33	4.33	6.33	5.33	13.33	5.33	19.33	3.33	6.33	4.33	5.33	5.33
1560	99.82	21.33	10.67	26.67	32.67	24.67	32.67	16.67	17.67	26.67	20.67	10.67	25.67	34.67	16.67	15.67	16.67	22.67	16.67	22.67	19.67	8.67	9.67	13.67	20.67	13.67	22.67	13.67
1567	100.281	30.0	4.0	-1.0	27.0	21.0	11.0	-4.0	8.0	6.0	8.0	11.0	19.0	-5.0	3.0	14.0	9.0	13.0	8.0	5.0	11.0	13.0	22.0	21.0	9.0	11.0	17.0	12.0
1574	100.743	29.0	11.0	14.0	14.0	25.0	13.0	2.0	17.0	16.0	14.0	27.0	7.0	1.0	15.0	14.0	19.0	17.0	5.0	0.0	10.0	-4.0	17.0	14.0	12.0	16.0	1.0	11.0
1581	101.206	30.67	-7.67	9.33	11.33	11.33	17.33	10.33	-1.67	5.33	4.33	11.33	23.33	13.33	10.33	14.33	9.33	8.33	3.33	11.33	11.33	-0.67	17.33	10.33	22.33	10.33	12.33	16.33
1588	101.668	26.33	-1.33	1.67	10.67	7.67	8.67	18.67	3.67	11.67	8.67	14.67	12.67	17.67	8.67	13.67	12.67	9.67	4.67	0.67	12.67	13.67	11.67	23.67	15.67	15.67	22.67	10.67
1595	102.131	26.67	3.33	7.33	3.33	1.33	11.33	10.33	19.33	10.33	12.33	9.33	6.33	10.33	-1.67	0.33	16.33	3.33	6.33	7.33	18.33	11.33	15.33	0.33	16.33	5.33	9.33	17.33
1602	102.594	24.67	6.33	8.33	0.33	9.33	9.33	13.33	9.33	10.33	17.33	17.33	22.33	15.33	13.33	10.33	12.33	18.33	8.33	22.33	9.33	21.33	11.33	14.33	11.33	16.33	7.33	11.33
1609	103.057	31.33	-8.33	0.67	1.67	8.67	2.67	-0.33	9.67	9.67	6.67	9.67	5.67	2.67	3.67	5.67	15.67	2.67	5.67	12.67	2.67	4.67	-1.33	-4.33	3.67	10.67	-3.33	7.67
1616	103.521	26.0	-4.0	8.0	16.0	8.0	0.0	14.0	21.0	4.0	4.0	2.0	3.0	12.0	10.0	7.0	14.0	1.0	13.0	23.0	7.0	6.0	6.0	14.0	6.0	8.0	7.0	6.0
1623	103.985	29.0	0.0	3.0	10.0	2.0	13.0	17.0	9.0	3.0	2.0	13.0	0.0	17.0	11.0	5.0	3.0	7.0	22.0	18.0	2.0	2.0	3.0	5.0	-4.0	-2.0	-1.0	11.0
1630	104.449	27.67	1.33	-10.67	-0.67	4.33	9.33	5.33	-3.67	5.33	10.33	4.33	1.33	10.33	7.33	10.33	9.33	1.33	3.33	8.33	6.33	19.33	3.33	13.33	-10.67	13.33	3.33	7.33
1637	104.913	22.0	1.0	4.0	0.0	12.0	7.0	17.0	10.0	8.0	17.0	8.0	4.0	9.0	14.0	3.0	7.0	10.0	5.0	20.0	15.0	0.0	4.0	7.0	10.0	13.0	6.0	7.0
1644	105.378	30.33	-10.33	-8.33	-6.33	11.67	-2.33	-3.33	0.67	-7.33	0.67	1.67	-1.33	-4.33	-13.33	1.67	-0.33	2.67	2.67	-3.33	-14.33	10.67	2.67	0.67	3.67	4.67	-3.33	-7.33
1651	105.843	26.33	-9.33	-0.33	0.67	3.67	2.67	5.67	9.67	8.67	2.67	-4.33	-0.33	7.67	2.67	-2.33	1.67	9.67	9.67	-0.33	5.67	11.67	10.67	-7.33	5.67	8.67	7.67	3.67
1658	106.308	24.33	-5.33	3.67	-0.33	14.67	10.67	10.67	3.67	8.67	14.67	6.67	8.67	4.67	-0.33	6.67	5.67	-0.33	3.67	6.67	11.67	5.67	10.67	5.67	0.67	14.67	1.67	5.67
1665	106.773	22.0	5.0	0.0	5.0	5.0	4.0	1.0	7.0	2.0	2.0	3.0	0.0	-2.0	3.0	9.0	-2.0	1.0	6.0	5.0	11.0	8.0	9.0	8.0	2.0	9.0	14.0	1.0
1672	107.239	24.67	4.33	0.33	8.33	4.33	7.33	4.33	-4.67	3.33	-1.67	1.33	2.33	2.33	6.33	2.33	5.33	3.33	6.33	9.33	9.33	-0.67	8.33	8.33	7.33	6.33	12.33	7.33
1679	107.705	27.0	-2.0	-9.0	-2.0	0.0	4.0	12.0	-2.0	0.0	1.0	3.0	2.0	-9.0	-1.0	-3.0	-3.0	-9.0	-1.0	4.0	8.0	9.0	-4.0	0.0	14.0	-2.0	6.0	7.0
1686	108.171	25.0	-3.0	4.0	-9.0	-3.0	-3.0	-3.0	-3.0	6.0	2.0	-4.0	-1.0	-2.0	-8.0	3.0	-3.0	12.0	-2.0	0.0	2.0	-3.0	12.0	3.0	4.0	-4.0	-2.0	1.0
1693	108.638	26.67	-9.67	-7.67	4.33	7.33	-8.67	-2.67	-2.67	-3.67	1.33	1.33	-3.67	-8.67	-1.67	2.33	-10.67	-1.67	-8.67	-10.67	-8.67	-7.67	-5.67	5.33	-6.67	-0.67	5.33	-2.67
1700	109.105	18.67	1.33	-2.67	4.33	8.33	0.33	11.33	5.33	-2.67	6.33	7.33	6.33	7.33	5.33	5.33	10.33	11.33	4.33	5.33	6.33	1.33	6.33	-0.67	2.33	8.33	-0.67	4.33
1707	109.572	24.33	-4.33	-1.33	0.67	-5.33	-2.33	-13.33	-1.33	2.67	4.67	-1.33	0.67	1.67	0.67	-6.33	3.67	-0.33	-3.33	1.67	4.67	-10.33	-3.33	-0.33	-2.33	-3.33	-5.33	3.67
1714	110.039	19.67	1.33	4.33	-2.67	12.33	-3.67	1.33	-2.67	9.33	-4.67	4.33	4.33	8.33	12.33	6.33	5.33	-1.67	3.33	0.33	-1.67	6.33	-1.67	9.33	5.33	3.33	8.33	3.33
1721	110.507	20.67	-5.67	0.33	4.33	6.33	0.33	0.33	0.33	1.33	1.33	-0.67	1.33	-5.67	7.33	12.33	3.33	0.33	3.33	8.33	1.33	11.33	0.33	4.33	-2.67	6.33	0.33	-2.67
1728	110.975	16.67	7.33	7.33	0.33	4.33	7.33	13.33	2.33	9.33	5.33	2.33	9.33	7.33	9.33	2.33	7.33	4.33	16.33	8.33	8.33	4.33	3.33	11.33	-2.67	1.33	-0.67	-1.67
1735	111.443	17.33	-4.33	3.67	-5.33	12.67	2.67	5.67	5.67	-2.33	6.67	3.67	6.67	-2.33	11.67	10.67	9.67	5.67	-6.33	10.67	7.67	6.67	5.67	5.67	14.67	15.67	4.67	8.67
1742	111.912	19.0	1.0	5.0	-3.0	-5.0	3.0	3.0	9.0	6.0	-1.0	1.0	1.0	2.0	16.0	2.0	-3.0	3.0	14.0	-1.0	-1.0	12.0	11.0	9.0	-4.0	3.0	8.0	10.0
1749	112.38	16.0	4.0	8.0	3.0	5.0	9.0	14.0	13.0	2.0	9.0	10.0	12.0	3.0	9.0	5.0	9.0	0.0	7.0	3.0	12.0	8.0	3.0	7.0	11.0	15.0	15.0	13.0
1756	112.85	16.67	9.33	4.33	1.33	6.33	9.33	14.33	1.33	8.33	6.33	0.33	-1.67	10.33	9.33	7.33	5.33	8.33	6.33	6.33	10.33	0.33	0.33	5.33	13.33	8.33	12.33	7.33
1763	113.319	17.67	4.33	4.33	2.33	4.33	1.33	8.33	9.33	7.33	-2.67	1.33	8.33	9.33	7.33	-0.67	12.33	-1.67	-3.67	8.33	8.33	9.33	10.33	7.33	7.33	8.33	8.33	-1.67
1770	113.789	16.0	4.0	1.0	4.0	6.0	3.0	8.0	8.0	6.0	9.0	11.0	8.0	15.0	7.0	10.0	0.0	-2.0	9.0	-1.0	9.0	2.0	0.0	2.0	7.0	10.0	2.0	0.0
1777	114.259	17.67	2.33	1.33	-5.67	-1.67	-0.67	7.33	3.33	2.33	-5.67	-4.67	5.33	-0.67	4.33	-0.67	-6.67	4.33	3.33	3.33	4.33	8.33	11.33	5.33	-1.67	12.33	1.33	-0.67
1784	114.729	17.33	3.67	3.67	4.67	-1.33	5.67	-0.33	3.67	-0.33	4.67	8.67	-6.33	-0.33	-1.33	-0.33	1.67	-5.33	0.67	-0.33	-3.33	-0.33	1.67	5.67	1.67	7.67	1.67	-2.33
1791	115.2	11.33	-0.33	7.67	9.67	8.67	3.67	4.67	6.67	8.67	10.67	1.67	9.67	8.67	12.67	6.67	2.67	7.67	15.67	13.67	7.67	4.67	2.67	8.67	11.67	12.67	4.67	9.67
1798	115.671	16.0	-1.0	-2.0	-1.0	8.0	-1.0	-1.0	2.0	2.0	-2.0	2.0	3.0	3.0	5.0	1.0	6.0	-5.0	2.0	1.0	-4.0	8.0	5.0	1.0	3.0	5.0	3.0	6.0
1805	116.142	12.33	6.67	6.67	1.67	2.67	11.67	5.67	5.67	8.67	8.67	9.67	-0.33	5.67	-0.33	6.67	4.67	8.67	6.67	4.67	2.67	3.67	4.67	11.67	3.67	12.67	15.67	15.67
1812	116.614	12.33	6.67	4.67	-0.33	8.67	8.67	6.67	9.67	6.67	5.67	2.67	4.67	3.67	5.67	7.67	3.67	3.67	2.67	12.67	0.67	8.67	3.67	9.67	-0.33	12.67	1.67	9.67
1819	117.086	16.67	-5.67	-1.67	-3.67	1.33	5.33	0.33	10.33	-1.67	-3.67	-0.67	2.33	-1.67	0.33	1.33	-3.67	-5.67	7.33	-6.67	-2.67	5.33	7.33	-0.67	2.33	6.33	3.33	-1.67
1826	117.558	14.33	-2.33	3.67	5.67	-1.33	9.67	-3.33	-8.33	6.67	0.67	8.67	2.67	9.67	-3.33	-3.33	6.67	3.67	-1.33	0.67	3.67	-2.33	-1.33	2.67	0.67	-1.33	5.67	4.67
1833	118.03	14.33	-3.33	-2.33	2.67	-4.33	1.67	0.67	-6.33	-3.33	0.67	1.67	3.67	4.67	-0.33	-4.33	-4.33	-2.33	2.67	-0.33	2.67	8.67	-3.33	-4.33	4.67	1.67	2.67	8.67
1840	118.503	9.0	2.0	-1.0	0.0	9.0	3.0	14.0	6.0	5.0	9.0	8.0	3.0	3.0	13.0	-2.0	11.0	4.0	12.0	12.0	4.0	5.0	10.0	10.0	9.0	16.0	14.0	10.0
1847	118.976	13.33	-1.33	3.67	7.67	3.67	4.67	-5.33	-3.33	2.67	3.67	3.67	7.67	8.67	-6.33	2.67	0.67	3.67	4.67	-2.33	7.67	5.67	5.67	5.67	8.67	-0.33	-3.33	2.67
1854	119.45	13.33	-4.33	-6.33	-1.33	-1.33	-0.33	4.67	-6.33	4.67	10.67	2.67	4.67	0.67	4.67	-3.33	2.67	2.67	4.67	5.67	3.67	6.67	-1.33	5.67	-2.33	-0.33	7.67	2.67
1861	119.924	12.33	-4.33	2.67	-4.33	-3.33	5.67	5.67	5.67	-1.33	1.67	3.67	7.67	0.67	-0.33	7.67	3.67	10.67	4.67	2.67	7.67	7.67	0.67	0.67	2.67	10.67	14.67	7.67
1868	120.398	16.0	-7.0	-1.0	-6.0	-9.0	-5.0	-10.0	-5.0	0.0	-6.0	-3.0	-2.0	8.0	-4.0	-7.0	-2.0	0.0	-5.0	6.0	3.0	-6.0	2.0	4.0	0.0	-9.0	0.0	-9.0
1875	120.872	10.67	5.33	-0.67	6.33	3.33	1.33	1.33	6.33	5.33	9.33	2.33	12.33	2.33	7.33	15.33	2.33	8.33	3.33	5.33	3.33	3.33	3.33	2.33	-3.67	5.33	-3.67	0.33
1882	121.347	12.67	1.33	1.33	-0.67	-1.67	-1.67	2.33	-2.67	8.33	2.33	0.33	-3.67	5.33	1.33	-1.67	6.33	-0.67	-0.67	1.33	0.33	4.33	3.33	3.33	-0.67	10.33	-0.67	5.33
1889	121.822	12.33	-2.33	2.67	5.67	-1.33	2.67	5.67	4.67	5.67	-2.33	7.67	-1.33	-5.33	9.67	0.67	7.67	6.67	-1.33	3.67	-2.33	6.67	3.67	0.67	3.67	3.67	-2.33	4.67
1896	122.298	9.0	5.0	2.0	-1.0	4.0	1.0	1.0	8.0	4.0	4.0	4.0	3.0	9.0	6.0	8.0	9.0	1.0	-1.0	2.0	6.0	4.0	5.0	2.0	11.0	9.0	10.0	5.0
1903	122.773	11.0	-3.0	0.0	3.0	1.0	0.0	3.0	3.0	-7.0	-2.0	2.0	4.0	0.0	6.0	2.0	2.0	4.0	2.0	0.0	-4.0	6.0	-1.0	9.0	-3.0	4.0	1.0	0.0
1910	123.25	9.33	2.67	0.67	2.67	4.67	3.67	-0.33	5.67	-0.33	-2.33	3.67	6.67	11.67	3.67	0.67	2.67	-0.33	-2.33	3.67	2.67	5.67	1.67	5.67	11.67	-1.33	2.67	1.67
1917	123.726	10.67	-4.67	-2.67	5.33	0.33	0.33	4.33	0.33	-4.67	5.33	8.33	4.33	8.33	4.33	-3.67	0.33	3.33	5.33	0.33	-0.67	1.33	4.33	3.33	2.33	1.33	5.33	5.33
1924	124.203	10.33	2.67	1.67	0.67	-0.33	6.67	-4.33	13.67	5.67	-0.33	2.67	0.67	1.67	3.67	1.67	1.67	0.67	4.67	3.67	6.67	-1.33	-0.33	6.67	3.67	-0.33	4.67	8.67
1931	124.68	9.33	-0.33	-2.33	0.67	2.67	2.67	7.67	3.67	1.67	0.67	4.67	2.67	-1.33	6.67	-1.33	8.67	3.67	2.67	0.67	1.67	8.67	3.67	4.67	-2.33	3.67	3.67	2.67
1938	125.158	10.67	1.33	-1.67	-1.67	-2.67	9.33	-0.67	1.33	6.33	0.33	0.33	-0.67	0.33	0.33	2.33	3.33	-0.67	1.33	6.33	3.33	0.33	1.33	4.33	2.33	-0.67	5.33	2.33
1945	125.635	8.33	-2.33	0.67	0.67	8.67	4.67	3.67	-0.33	-2.33	1.67	7.67	6.67	10.67	6.67	0.67	-4.33	0.67	10.67	0.67	-1.33	4.67	0.67	8.67	2.67	-0.33	4.67	6.67
1952	126.114	10.0	-2.0	-3.0	-1.0	-2.0	4.0	3.0	-2.0	-2.0	7.0	0.0	-3.0	2.0	5.0	2.0	2.0	0.0	6.0	2.0	-2.0	-1.0	-2.0	5.0	0.0	0.0	2.0	4.0
1959	126.592	9.33	-0.33	-0.33	-1.33	-2.33	0.67	-2.33	2.67	-1.33	-3.33	-1.33	2.67	0.67	-2.33	2.67	0.67	-1.33	-4.33	2.67	5.67	6.67	4.67	3.67	-0.33	1.67	9.67	3.67
1966	127.071	9.33	1.67	-0.33	-0.33	-7.33	4.67	-1.33	0.67	-1.33	-0.33	-1.33	-3.33	3.67	0.67	1.67	0.67	-1.33	7.67	-2.33	0.67	2.67	4.67	14.67	3.67	8.67	4.67	0.67
1973	127.55	6.0	2.0	10.0	2.0	2.0	14.0	7.0	0.0	4.0	5.0	4.0	7.0	-1.0	9.0	7.0	5.0	7.0	3.0	8.0	3.0	5.0	10.0	9.0	6.0	9.0	8.0	15.0
1980	128.03	7.33	4.67	6.67	2.67	8.67	5.67	0.67	3.67	3.67	2.67	4.67	-0.33	7.67	1.67	3.67	7.67	3.67	1.67	-0.33	5.67	3.67	2.67	4.67	3.67	6.67	8.67	7.67
1987	128.51	9.67	0.33	0.33	-0.67	-0.67	-0.67	2.33	-2.67	5.33	2.33	6.33	1.33	-0.67	-0.67	3.33	9.33	-0.67	-4.67	-1.67	2.33	-2.67	5.33	1.33	-0.67	8.33	2.33	-1.67
1994	128.99	6.67	-2.67	10.33	2.33	9.33	3.33	2.33	3.33	1.33	6.33	3.33	4.33	-2.67	-1.67	-2.67	-2.67	-1.67	2.33	5.33	6.33	7.33	4.33	1.33	12.33	10.33	8.33	7.33
2001	129.471	9.67	-1.67	2.33	-1.67	-1.67	1.33	-4.67	-4.67	-2.67	-3.67	2.33	-2.67	0.33	-3.67	-3.67	-2.67	3.33	0.33	-3.67	-1.67	-2.67	3.33	-2.67	4.33	1.33	7.33	2.33
2008	129.952	10.33	-1.33	2.67	-1.33	-4.33	-6.33	3.67	-5.33	2.67	1.67	-1.33	1.67	0.67	1.67	-0.33	3.67	-5.33	-0.33	-0.33	3.67	0.67	-3.33	-1.33	2.67	-3.33	1.67	0.67
2015	130.433	7.33	6.67	0.67	-1.33	2.67	3.67	5.67	-0.33	4.67	1.67	3.67	3.67	1.67	0.67	-0.33	-2.33	4.67	-1.33	4.67	1.67	4.67	0.67	-1.33	-2.33	2.67	9.67	8.67
2022	130.915	8.67	-2.67	2.33	0.33	5.33	-0.67	0.33	-0.67	0.33	-2.67	-0.67	-4.67	-0.67	5.33	-3.67	-1.67	-1.67	-1.67	-1.67	1.33	2.33	-4.67	-5.67	3.33	-1.67	-4.67	-2.67
2029	131.397	7.0	-1.0	0.0	-2.0	0.0	3.0	7.0	1.0	3.0	5.0	1.0	9.0	0.0	3.0	5.0	0.0	-1.0	1.0	4.0	8.0	-1.0	3.0	-1.0	3.0	-1.0	2.0	7.0
2036	131.879	8.0	0.0	0.0	2.0	0.0	-5.0	1.0	-3.0	3.0	2.0	4.0	-2.0	0.0	-3.0	0.0	0.0	-2.0	4.0	1.0	0.0	5.0	-2.0	-1.0	7.0	-3.0	6.0	6.0
2043	132.362	6.0	2.0	4.0	8.0	3.0	-1.0	6.0	7.0	-2.0	1.0	4.0	4.0	0.0	2.0	4.0	-1.0	1.0	7.0	0.0	2.0	1.0	4.0	4.0	9.0	4.0	5.0	6.0
2047	132.638	7.0	2.0	1.0	-2.0	-2.0	-3.0	0.0	0.0	2.0	4.0	-1.0	6.0	4.0	3.0	1.0	4.0	-3.0	-2.0	3.0	8.0	7.0	2.0	5.0	-1.0	0.0	3.0	2.0