File: EDX Back Ups and Old Files/EDX Processed Data/Low pH SF 25C 6d.txt
Name: Low pH SF 25C 6d
Number of Scans: 29
Positions: [-13.0, -12.75, -12.5, -12.25, -12.0, -11.75, -11.5, -11.25, -11.0, -10.75, -10.5, -10.25, -10.0, -9.75, -9.5, -9.25, -9.0, -8.75, -8.5, -8.25, -8.0, -7.75, -7.5, -7.25, -7.0, -6.75, -6.5, -6.25, -6.0]
Points per Scan: 2048
Sample Edge: 3
Scans Off Sample: [0, 1, 2]
Conversion Features: [(275, 17444.3), (309, 19608.3), (913, 57981.7), (934, 59318.24), (1058, 67244.3)]
Degree of Fit: 3
Fit Coeffecients: [ 8.59183e-07 -0.001482  64.3003 -144.207]
pH: Low
Steel Fiber: True
Aging Temp.: 25
Aging Atm.: 100% CO2
Aging Humidity: None
Aging Time: 6

*********
#Bins	Energy [keV]	Avg. Background	-12.25	-12.0	-11.75	-11.5	-11.25	-11.0	-10.75	-10.5	-10.25	-10.0	-9.75	-9.5	-9.25	-9.0	-8.75	-8.5	-8.25	-8.0	-7.75	-7.5	-7.25	-7.0	-6.75	-6.5	-6.25	-6.0
6	0.242	1864.67	30.33	70.33	36.33	-54.67	30.33	18.33	70.33	26.33	53.33	-110.67	18.33	29.33	41.33	46.33	29.33	-61.67	65.33	50.33	87.33	113.33	-63.67	-22.67	62.33	61.33	33.33	-8.67
13	0.691	1244.33	39.67	73.67	-14.33	-20.33	-44.33	50.67	34.67	62.67	-45.33	17.67	37.67	75.67	-34.33	36.67	-45.33	-34.33	-72.33	12.67	2.67	-9.33	-48.33	-21.33	17.67	54.67	7.67	-1.33
20	1.141	312.67	-1.67	26.33	-8.67	-7.67	12.33	2.33	-12.67	26.33	-2.67	-22.67	8.33	23.33	25.33	26.33	4.33	32.33	-1.67	0.33	11.33	16.33	-3.67	2.33	-5.67	-8.67	21.33	15.33
27	1.591	60.0	-11.0	-14.0	-10.0	-12.0	8.0	-8.0	-2.0	-15.0	-15.0	-17.0	-18.0	-14.0	-5.0	-9.0	0.0	-19.0	-9.0	-4.0	2.0	-23.0	-18.0	0.0	-8.0	-12.0	-9.0	-2.0
34	2.04	9.0	-1.0	1.0	1.0	-3.0	-2.0	-1.0	-4.0	-3.0	-3.0	-4.0	1.0	-3.0	-1.0	-4.0	-2.0	-3.0	-3.0	1.0	-2.0	-7.0	0.0	2.0	-2.0	2.0	-3.0	2.0
41	2.49	0.67	-0.67	0.33	1.33	0.33	-0.67	0.33	0.33	0.33	0.33	1.33	-0.67	-0.67	1.33	-0.67	-0.67	-0.67	0.33	0.33	-0.67	0.33	-0.67	0.33	-0.67	1.33	-0.67	0.33
48	2.939	0.0	1.0	0.0	0.0	1.0	0.0	0.0	0.0	0.0	0.0	1.0	0.0	1.0	0.0	0.0	1.0	0.0	0.0	1.0	1.0	0.0	2.0	1.0	0.0	0.0	0.0	0.0
55	3.388	0.33	-0.33	-0.33	0.67	0.67	-0.33	-0.33	0.67	-0.33	0.67	-0.33	0.67	-0.33	-0.33	0.67	-0.33	0.67	-0.33	-0.33	-0.33	-0.33	-0.33	2.67	0.67	-0.33	-0.33	-0.33
62	3.837	0.0	1.0	0.0	0.0	0.0	0.0	0.0	0.0	0.0	1.0	0.0	0.0	0.0	0.0	0.0	2.0	0.0	1.0	0.0	0.0	0.0	0.0	0.0	0.0	0.0	0.0	0.0
69	4.286	0.0	0.0	0.0	0.0	1.0	0.0	1.0	0.0	1.0	0.0	0.0	0.0	0.0	1.0	0.0	0.0	0.0	1.0	1.0	1.0	0.0	0.0	1.0	1.0	2.0	1.0	0.0
76	4.734	0.67	-0.67	-0.67	-0.67	-0.67	-0.67	0.33	-0.67	-0.67	-0.67	2.33	0.33	-0.67	-0.67	-0.67	-0.67	-0.67	-0.67	-0.67	0.33	0.33	-0.67	-0.67	1.33	-0.67	-0.67	-0.67
83	5.183	0.67	-0.67	0.33	0.33	0.33	0.33	-0.67	-0.67	0.33	0.33	0.33	0.33	-0.67	0.33	-0.67	0.33	-0.67	-0.67	0.33	0.33	-0.67	-0.67	-0.67	-0.67	0.33	-0.67	-0.67
90	5.631	1.33	-0.33	-0.33	0.67	-1.33	-1.33	-0.33	0.67	-0.33	1.67	-1.33	-1.33	-1.33	-1.33	-1.33	-1.33	0.67	-0.33	-0.33	-0.33	-0.33	-1.33	-0.33	-1.33	-1.33	-0.33	-1.33
97	6.08	0.67	-0.67	0.33	1.33	-0.67	0.33	2.33	0.33	1.33	1.33	2.33	-0.67	0.33	0.33	-0.67	-0.67	0.33	-0.67	0.33	1.33	1.33	0.33	0.33	-0.67	1.33	-0.67	1.33
104	6.528	1.67	0.33	-1.67	-0.67	-1.67	-1.67	0.33	1.33	1.33	-0.67	-0.67	-0.67	-0.67	-0.67	-1.67	0.33	1.33	1.33	0.33	2.33	0.33	-0.67	2.33	-1.67	0.33	-1.67	3.33
111	6.976	1.0	0.0	2.0	-1.0	1.0	0.0	0.0	2.0	1.0	1.0	0.0	-1.0	0.0	1.0	2.0	4.0	2.0	1.0	0.0	3.0	1.0	1.0	7.0	1.0	0.0	0.0	1.0
118	7.424	4.0	-3.0	-1.0	2.0	-2.0	-3.0	-1.0	-1.0	0.0	-2.0	-1.0	-1.0	0.0	-2.0	-1.0	1.0	0.0	-2.0	1.0	1.0	-1.0	0.0	-2.0	-3.0	0.0	2.0	1.0
125	7.872	2.67	2.33	3.33	4.33	1.33	0.33	3.33	4.33	4.33	3.33	0.33	4.33	3.33	-0.67	2.33	6.33	1.33	1.33	1.33	1.33	2.33	4.33	3.33	1.33	3.33	3.33	3.33
132	8.32	6.0	0.0	1.0	0.0	5.0	2.0	4.0	6.0	2.0	0.0	-1.0	4.0	2.0	2.0	-1.0	2.0	1.0	-1.0	2.0	3.0	-1.0	2.0	6.0	3.0	1.0	0.0	1.0
139	8.767	6.0	5.0	-2.0	2.0	3.0	4.0	-2.0	3.0	8.0	1.0	-1.0	7.0	3.0	-1.0	7.0	6.0	6.0	2.0	2.0	5.0	6.0	7.0	2.0	0.0	1.0	5.0	6.0
146	9.215	7.33	1.67	1.67	-1.33	1.67	2.67	-1.33	1.67	4.67	1.67	1.67	0.67	4.67	6.67	-5.33	-0.33	2.67	-2.33	2.67	0.67	1.67	2.67	6.67	6.67	0.67	5.67	2.67
153	9.662	8.0	-3.0	1.0	1.0	5.0	2.0	0.0	6.0	6.0	4.0	9.0	11.0	5.0	5.0	5.0	7.0	4.0	2.0	6.0	6.0	1.0	8.0	12.0	-1.0	2.0	3.0	-1.0
160	10.109	7.33	5.67	2.67	4.67	1.67	4.67	3.67	2.67	5.67	2.67	8.67	3.67	1.67	8.67	7.67	9.67	4.67	6.67	8.67	6.67	1.67	4.67	5.67	3.67	5.67	2.67	3.67
167	10.557	12.33	-3.33	1.67	-0.33	-0.33	-1.33	0.67	-1.33	-3.33	-2.33	-0.33	1.67	-0.33	-2.33	-1.33	-0.33	7.67	-5.33	2.67	-2.33	0.67	-4.33	4.67	-8.33	1.67	0.67	5.67
174	11.004	10.0	9.0	-1.0	-2.0	2.0	-1.0	4.0	2.0	2.0	1.0	1.0	0.0	6.0	2.0	-2.0	-1.0	6.0	2.0	4.0	3.0	6.0	1.0	-1.0	-2.0	2.0	3.0	-2.0
181	11.451	7.0	0.0	6.0	7.0	5.0	3.0	6.0	9.0	-1.0	2.0	6.0	7.0	8.0	6.0	3.0	5.0	2.0	-1.0	7.0	13.0	10.0	3.0	11.0	3.0	6.0	2.0	5.0
188	11.898	7.67	-1.67	8.33	2.33	1.33	5.33	6.33	6.33	11.33	5.33	4.33	2.33	11.33	2.33	6.33	7.33	0.33	4.33	1.33	3.33	4.33	5.33	0.33	5.33	9.33	1.33	9.33
195	12.344	8.67	0.33	0.33	3.33	3.33	0.33	3.33	-2.67	3.33	6.33	6.33	3.33	-0.67	9.33	3.33	5.33	4.33	5.33	4.33	2.33	0.33	8.33	1.33	3.33	7.33	-0.67	10.33
202	12.791	10.67	-3.67	3.33	2.33	3.33	3.33	-3.67	-0.67	1.33	1.33	2.33	-3.67	2.33	6.33	3.33	1.33	7.33	8.33	-1.67	4.33	7.33	4.33	6.33	2.33	-0.67	5.33	11.33
209	13.238	10.0	-1.0	-1.0	5.0	2.0	-3.0	3.0	-4.0	-6.0	-2.0	6.0	1.0	0.0	4.0	4.0	-4.0	-1.0	3.0	5.0	3.0	3.0	7.0	3.0	-1.0	-1.0	4.0	3.0
216	13.684	11.0	2.0	0.0	1.0	2.0	9.0	0.0	2.0	3.0	0.0	-1.0	6.0	-1.0	-3.0	4.0	0.0	-6.0	8.0	-1.0	0.0	5.0	-2.0	1.0	0.0	5.0	2.0	3.0
223	14.131	11.33	-2.33	-3.33	0.67	-4.33	0.67	5.67	-1.33	1.67	-1.33	-0.33	1.67	-4.33	3.67	1.67	-4.33	0.67	-0.33	6.67	1.67	-0.33	5.67	-1.33	-2.33	2.67	4.67	-3.33
230	14.577	9.67	3.33	-2.67	-1.67	-0.67	1.33	5.33	7.33	-4.67	12.33	-5.67	-1.67	1.33	2.33	-0.67	3.33	6.33	-6.67	6.33	4.33	5.33	1.33	6.33	-1.67	3.33	-1.67	3.33
237	15.023	9.0	2.0	6.0	5.0	5.0	3.0	0.0	0.0	2.0	10.0	-2.0	3.0	2.0	-4.0	1.0	3.0	0.0	10.0	3.0	8.0	8.0	3.0	3.0	10.0	7.0	3.0	5.0
244	15.469	11.0	2.0	-4.0	2.0	3.0	12.0	-1.0	2.0	9.0	-1.0	3.0	-1.0	-1.0	0.0	5.0	-2.0	5.0	-1.0	-1.0	4.0	4.0	1.0	-1.0	-2.0	5.0	3.0	10.0
251	15.915	10.0	0.0	-4.0	10.0	0.0	1.0	-5.0	2.0	0.0	-3.0	1.0	-4.0	-2.0	3.0	6.0	2.0	3.0	8.0	-1.0	1.0	2.0	0.0	5.0	7.0	3.0	-2.0	0.0
258	16.361	8.67	-0.67	2.33	2.33	1.33	-2.67	3.33	1.33	1.33	-3.67	11.33	0.33	0.33	4.33	-0.67	9.33	4.33	3.33	5.33	11.33	-0.67	5.33	1.33	1.33	4.33	8.33	7.33
265	16.807	13.67	1.33	-9.67	0.33	-3.67	-1.67	-6.67	3.33	1.33	2.33	2.33	0.33	0.33	-3.67	1.33	-7.67	4.33	1.33	0.33	-1.67	-4.67	-3.67	-0.67	3.33	-1.67	8.33	7.33
272	17.253	11.67	-5.67	-2.67	-1.67	3.33	-3.67	1.33	2.33	-3.67	3.33	-1.67	3.33	3.33	6.33	0.33	-5.67	-1.67	1.33	3.33	4.33	-1.67	2.33	-1.67	1.33	5.33	5.33	-6.67
279	17.699	10.0	1.0	-2.0	-1.0	1.0	8.0	2.0	3.0	4.0	5.0	4.0	1.0	1.0	1.0	-2.0	-5.0	3.0	4.0	4.0	5.0	1.0	-1.0	2.0	0.0	6.0	2.0	-6.0
286	18.145	9.0	5.0	4.0	6.0	3.0	4.0	3.0	0.0	2.0	5.0	8.0	-2.0	-3.0	9.0	5.0	5.0	7.0	0.0	5.0	1.0	0.0	3.0	4.0	12.0	-1.0	-3.0	-4.0
293	18.59	10.67	-2.67	1.33	-1.67	1.33	-1.67	-2.67	5.33	-0.67	0.33	2.33	7.33	0.33	-5.67	-0.67	0.33	2.33	4.33	1.33	6.33	-5.67	1.33	-0.67	8.33	3.33	-0.67	0.33
300	19.036	10.67	-0.67	1.33	-1.67	0.33	4.33	13.33	-1.67	-3.67	4.33	-2.67	-3.67	-1.67	-0.67	-2.67	4.33	0.33	3.33	4.33	1.33	1.33	0.33	7.33	-0.67	4.33	0.33	9.33
307	19.481	11.0	-1.0	-4.0	0.0	-3.0	1.0	9.0	2.0	-2.0	4.0	2.0	0.0	5.0	-1.0	-4.0	-6.0	-1.0	0.0	-2.0	-1.0	2.0	-5.0	5.0	-2.0	8.0	-1.0	-2.0
314	19.927	9.0	-1.0	4.0	-1.0	-1.0	-2.0	4.0	2.0	0.0	2.0	2.0	2.0	3.0	1.0	1.0	-3.0	0.0	6.0	3.0	9.0	5.0	-1.0	9.0	5.0	-1.0	8.0	1.0
321	20.372	9.67	0.33	-4.67	-1.67	-5.67	-1.67	-1.67	0.33	0.33	-0.67	-6.67	3.33	3.33	12.33	-4.67	3.33	0.33	2.33	3.33	-0.67	-0.67	3.33	2.33	5.33	5.33	-0.67	0.33
328	20.817	9.67	-0.67	-1.67	-0.67	-2.67	3.33	0.33	-2.67	0.33	-3.67	3.33	2.33	-0.67	0.33	-1.67	5.33	0.33	-2.67	0.33	1.33	2.33	7.33	-0.67	8.33	6.33	3.33	1.33
335	21.262	8.33	-1.33	-0.33	4.67	-0.33	9.67	0.67	2.67	6.67	3.67	3.67	1.67	7.67	-0.33	4.67	3.67	-3.33	-0.33	-1.33	1.67	-2.33	7.67	0.67	2.67	-0.33	5.67	6.67
342	21.708	8.33	-5.33	3.67	2.67	1.67	-0.33	3.67	5.67	1.67	2.67	2.67	4.67	2.67	-2.33	2.67	5.67	5.67	3.67	9.67	6.67	1.67	5.67	6.67	-2.33	3.67	4.67	7.67
349	22.153	7.33	-0.33	3.67	6.67	2.67	5.67	0.67	3.67	3.67	4.67	4.67	5.67	0.67	4.67	0.67	-1.33	1.67	1.67	-0.33	2.67	3.67	10.67	8.67	9.67	2.67	1.67	4.67
356	22.598	7.33	-1.33	1.67	7.67	-0.33	3.67	9.67	-0.33	5.67	5.67	-1.33	2.67	-3.33	0.67	3.67	2.67	5.67	8.67	5.67	4.67	4.67	2.67	3.67	11.67	4.67	2.67	2.67
363	23.043	10.33	0.67	-4.33	-0.33	6.67	-2.33	-1.33	-2.33	0.67	-4.33	-3.33	-2.33	-1.33	-0.33	0.67	2.67	0.67	-1.33	-2.33	2.67	-4.33	4.67	0.67	4.67	-2.33	3.67	3.67
370	23.488	9.67	-2.67	-4.67	-2.67	0.33	-1.67	1.33	9.33	2.33	-2.67	-1.67	2.33	3.33	-2.67	0.33	2.33	2.33	1.33	-0.67	-0.67	3.33	3.33	-2.67	4.33	5.33	-2.67	1.33
377	23.932	6.0	4.0	2.0	-1.0	1.0	4.0	3.0	8.0	2.0	-1.0	12.0	4.0	9.0	6.0	3.0	2.0	8.0	5.0	11.0	2.0	9.0	9.0	8.0	3.0	1.0	10.0	5.0
384	24.377	10.67	-3.67	-2.67	-0.67	1.33	-2.67	-4.67	-0.67	-7.67	1.33	-1.67	2.33	-3.67	-3.67	-0.67	0.33	-3.67	0.33	-2.67	1.33	-1.67	1.33	1.33	0.33	-4.67	1.33	-3.67
391	24.822	13.0	-6.0	-10.0	-7.0	-4.0	-8.0	-2.0	-3.0	-2.0	-6.0	-7.0	-1.0	-4.0	-6.0	-3.0	-2.0	-4.0	-3.0	2.0	-8.0	3.0	1.0	-1.0	-3.0	1.0	-6.0	-6.0
398	25.267	9.33	-7.33	-4.33	-4.33	-2.33	-1.33	3.67	3.67	-1.33	5.67	0.67	-1.33	3.67	-0.33	1.67	-5.33	-5.33	-3.33	1.67	1.67	10.67	2.67	0.67	0.67	1.67	4.67	4.67
405	25.711	9.0	-5.0	1.0	2.0	-1.0	0.0	2.0	1.0	0.0	0.0	-1.0	0.0	4.0	5.0	-6.0	0.0	0.0	-1.0	0.0	-4.0	3.0	6.0	4.0	3.0	-1.0	4.0	3.0
412	26.156	7.33	-0.33	-0.33	-1.33	3.67	-0.33	2.67	7.67	6.67	0.67	6.67	1.67	-2.33	5.67	2.67	4.67	2.67	-2.33	1.67	-0.33	-1.33	11.67	-1.33	3.67	3.67	-2.33	0.67
419	26.601	6.67	2.33	1.33	0.33	2.33	-1.67	6.33	-1.67	0.33	0.33	8.33	4.33	-0.67	0.33	1.33	4.33	3.33	-1.67	-2.67	2.33	1.33	2.33	3.33	-0.67	6.33	3.33	1.33
426	27.045	7.67	0.33	3.33	1.33	-2.67	-0.67	-0.67	4.33	2.33	-1.67	0.33	-0.67	6.33	0.33	-3.67	1.33	4.33	0.33	6.33	-2.67	-0.67	-1.67	3.33	4.33	-0.67	0.33	4.33
433	27.49	7.0	-4.0	0.0	-2.0	-3.0	2.0	-2.0	-1.0	0.0	-3.0	2.0	2.0	3.0	2.0	2.0	4.0	1.0	-1.0	1.0	0.0	4.0	4.0	8.0	2.0	4.0	0.0	0.0
440	27.934	5.33	3.67	0.67	6.67	3.67	3.67	7.67	-0.33	1.67	5.67	3.67	5.67	2.67	0.67	1.67	3.67	4.67	-1.33	5.67	0.67	1.67	0.67	2.67	9.67	2.67	3.67	2.67
447	28.379	10.0	-8.0	-6.0	0.0	-2.0	-4.0	-5.0	0.0	-4.0	-5.0	-3.0	-2.0	-4.0	1.0	-3.0	-5.0	-3.0	-1.0	-1.0	-2.0	1.0	-2.0	6.0	7.0	-2.0	-5.0	0.0
454	28.823	6.67	-0.67	0.33	2.33	4.33	-0.67	0.33	-3.67	-2.67	0.33	2.33	3.33	1.33	4.33	1.33	5.33	8.33	-0.67	0.33	8.33	3.33	1.33	1.33	2.33	3.33	7.33	-0.67
461	29.267	7.33	-2.33	1.67	1.67	0.67	-4.33	2.67	1.67	-2.33	-0.33	-2.33	-2.33	0.67	-0.33	-2.33	-0.33	4.67	-1.33	1.67	1.67	-0.33	6.67	2.67	0.67	3.67	-1.33	1.67
468	29.712	6.33	1.67	-0.33	-1.33	0.67	-1.33	-0.33	-0.33	2.67	1.67	-0.33	0.67	3.67	-1.33	0.67	5.67	3.67	1.67	-2.33	2.67	-3.33	-2.33	4.67	0.67	-0.33	3.67	2.67
475	30.156	4.67	0.33	-1.67	1.33	-0.67	1.33	0.33	2.33	2.33	-0.67	6.33	0.33	0.33	3.33	2.33	4.33	4.33	3.33	3.33	2.33	4.33	2.33	6.33	3.33	4.33	2.33	6.33
482	30.6	7.33	1.67	-1.33	0.67	-0.33	-2.33	-0.33	-0.33	-2.33	0.67	-2.33	2.67	-1.33	-2.33	0.67	7.67	-3.33	0.67	-2.33	-0.33	-2.33	3.67	2.67	1.67	4.67	-2.33	-3.33
489	31.045	3.67	0.33	6.33	-0.67	8.33	5.33	4.33	5.33	4.33	0.33	1.33	3.33	0.33	4.33	1.33	4.33	3.33	4.33	0.33	1.33	5.33	5.33	9.33	4.33	3.33	7.33	0.33
496	31.489	5.0	0.0	-1.0	4.0	3.0	-1.0	6.0	-1.0	1.0	-2.0	4.0	4.0	1.0	2.0	-1.0	2.0	3.0	1.0	3.0	1.0	4.0	7.0	5.0	4.0	0.0	0.0	5.0
503	31.933	10.33	-2.33	-3.33	2.67	-4.33	-0.33	-1.33	-1.33	-3.33	0.67	-0.33	-4.33	-0.33	-1.33	-5.33	-4.33	-0.33	-6.33	-3.33	-2.33	-4.33	-2.33	-2.33	-5.33	0.67	-6.33	-5.33
510	32.377	5.0	3.0	1.0	2.0	4.0	4.0	3.0	6.0	-1.0	1.0	1.0	6.0	2.0	4.0	1.0	-2.0	6.0	3.0	1.0	5.0	-1.0	2.0	4.0	0.0	1.0	4.0	5.0
517	32.822	2.33	4.67	3.67	7.67	0.67	1.67	3.67	2.67	0.67	4.67	3.67	1.67	2.67	5.67	3.67	12.67	3.67	4.67	2.67	-1.33	0.67	6.67	2.67	1.67	6.67	5.67	8.67
524	33.266	6.33	-0.33	-1.33	-2.33	-1.33	-3.33	-0.33	-2.33	-0.33	0.67	0.67	3.67	3.67	-0.33	-1.33	-1.33	4.67	-3.33	0.67	-2.33	4.67	1.67	-2.33	-2.33	-2.33	-0.33	-0.33
531	33.71	5.67	-1.67	1.33	-3.67	4.33	1.33	0.33	3.33	0.33	-3.67	-1.67	2.33	2.33	-2.67	-2.67	-0.67	3.33	3.33	2.33	4.33	-0.67	-0.67	2.33	4.33	1.33	1.33	1.33
538	34.154	6.0	3.0	0.0	-3.0	-2.0	-4.0	-1.0	-4.0	0.0	-1.0	4.0	-2.0	1.0	-1.0	-3.0	-2.0	-1.0	1.0	-4.0	-1.0	1.0	4.0	2.0	-1.0	1.0	4.0	0.0
545	34.598	6.33	-2.33	-1.33	-2.33	-3.33	-2.33	-3.33	-3.33	-4.33	-1.33	-0.33	1.67	-0.33	-1.33	-0.33	-1.33	0.67	-2.33	0.67	-0.33	1.67	0.67	-0.33	-4.33	-0.33	-1.33	2.67
552	35.043	4.33	-0.33	1.67	-1.33	0.67	5.67	-1.33	-1.33	0.67	0.67	0.67	4.67	1.67	-0.33	2.67	-0.33	-0.33	-2.33	-2.33	7.67	-0.33	3.67	4.67	2.67	6.67	-0.33	4.67
559	35.487	4.67	3.33	-1.67	-1.67	1.33	-2.67	-1.67	-1.67	-0.67	-0.67	2.33	-1.67	3.33	5.33	0.33	1.33	6.33	5.33	0.33	1.33	2.33	-0.67	-0.67	3.33	-4.67	1.33	-0.67
566	35.931	3.33	2.67	3.67	0.67	-0.33	2.67	2.67	2.67	0.67	0.67	2.67	4.67	6.67	1.67	1.67	0.67	3.67	1.67	1.67	-1.33	6.67	1.67	-1.33	2.67	2.67	1.67	7.67
573	36.375	3.33	2.67	1.67	4.67	1.67	1.67	4.67	2.67	3.67	3.67	1.67	1.67	2.67	3.67	-0.33	2.67	0.67	2.67	-1.33	-0.33	2.67	6.67	0.67	3.67	1.67	-1.33	3.67
580	36.819	6.0	2.0	0.0	0.0	3.0	0.0	-1.0	1.0	1.0	4.0	-3.0	4.0	-3.0	3.0	-4.0	-2.0	4.0	-2.0	-3.0	1.0	-2.0	-1.0	4.0	-3.0	0.0	-6.0	2.0
587	37.263	4.67	-0.67	2.33	-0.67	3.33	0.33	3.33	-1.67	-1.67	-4.67	-0.67	7.33	3.33	0.33	-0.67	-1.67	4.33	3.33	0.33	1.33	1.33	0.33	-1.67	0.33	-0.67	2.33	2.33
594	37.707	6.0	-4.0	-4.0	-1.0	-3.0	3.0	6.0	-1.0	-1.0	-2.0	-1.0	2.0	-1.0	-1.0	-1.0	5.0	2.0	-4.0	0.0	-3.0	1.0	2.0	-2.0	-2.0	2.0	-4.0	1.0
601	38.152	6.0	0.0	-4.0	2.0	0.0	-3.0	2.0	1.0	0.0	-3.0	0.0	-3.0	-3.0	3.0	1.0	0.0	-2.0	1.0	0.0	0.0	3.0	-2.0	1.0	1.0	1.0	-4.0	-3.0
608	38.596	3.67	-0.67	4.33	5.33	6.33	3.33	2.33	4.33	5.33	-1.67	2.33	-1.67	1.33	2.33	0.33	0.33	-3.67	5.33	-1.67	0.33	4.33	1.33	3.33	1.33	4.33	4.33	2.33
615	39.04	7.0	-3.0	2.0	-3.0	1.0	-3.0	-1.0	0.0	3.0	-3.0	-3.0	-7.0	-1.0	-3.0	-4.0	0.0	-2.0	-1.0	-2.0	-4.0	-2.0	-2.0	1.0	-2.0	-3.0	-2.0	-2.0
622	39.484	8.0	0.0	-4.0	-2.0	-5.0	-4.0	-2.0	-2.0	-3.0	-4.0	6.0	-3.0	-5.0	0.0	-3.0	-8.0	-3.0	-1.0	0.0	-1.0	-3.0	0.0	-5.0	-5.0	-2.0	1.0	-3.0
629	39.928	5.67	2.33	5.33	0.33	0.33	-0.67	1.33	2.33	0.33	1.33	0.33	1.33	-2.67	1.33	0.33	5.33	0.33	-0.67	1.33	-1.67	-1.67	-0.67	-1.67	-1.67	-2.67	1.33	-0.67
636	40.372	5.0	-1.0	-2.0	0.0	2.0	0.0	1.0	-2.0	-1.0	1.0	-1.0	-3.0	-2.0	4.0	0.0	3.0	3.0	-1.0	-2.0	-1.0	-3.0	-1.0	2.0	0.0	9.0	-2.0	1.0
643	40.817	4.33	-1.33	4.67	2.67	-2.33	0.67	-0.33	-2.33	-1.33	5.67	-1.33	-0.33	1.67	0.67	0.67	0.67	2.67	0.67	-1.33	-0.33	1.67	2.67	0.67	3.67	4.67	6.67	2.67
650	41.261	8.0	3.0	-2.0	-2.0	-4.0	-2.0	-1.0	2.0	-4.0	0.0	1.0	0.0	-2.0	-1.0	-2.0	-2.0	0.0	-1.0	-3.0	1.0	1.0	0.0	-3.0	-2.0	0.0	4.0	1.0
657	41.705	9.0	-2.0	-5.0	0.0	-2.0	0.0	-1.0	-4.0	-8.0	-3.0	-4.0	-6.0	-3.0	-3.0	-4.0	-4.0	2.0	-6.0	-4.0	-3.0	-7.0	-8.0	-4.0	-3.0	-5.0	-1.0	-5.0
664	42.149	5.67	-2.67	3.33	-2.67	-1.67	-0.67	-1.67	-2.67	-2.67	2.33	-1.67	-2.67	-3.67	-0.67	0.33	3.33	0.33	4.33	3.33	2.33	-1.67	8.33	2.33	3.33	1.33	-2.67	-2.67
671	42.594	6.33	2.67	3.67	-0.33	-1.33	-1.33	1.67	-6.33	0.67	2.67	-4.33	5.67	2.67	-0.33	-4.33	-4.33	-4.33	3.67	3.67	2.67	-1.33	-3.33	-1.33	-4.33	-1.33	1.67	-0.33
678	43.038	9.0	4.0	-3.0	-1.0	-2.0	-4.0	-3.0	6.0	2.0	1.0	-5.0	-4.0	2.0	0.0	-3.0	-2.0	-2.0	-2.0	-8.0	-5.0	-2.0	0.0	-8.0	-3.0	-4.0	-4.0	-5.0
685	43.482	9.67	-2.67	-1.67	-4.67	-3.67	-4.67	-2.67	-1.67	-5.67	-7.67	-4.67	-0.67	-5.67	0.33	-0.67	-2.67	-4.67	-4.67	-1.67	-4.67	4.33	2.33	-7.67	-7.67	-3.67	-1.67	-0.67
692	43.927	8.33	-2.33	-2.33	-2.33	-0.33	-2.33	-5.33	-1.33	-4.33	-4.33	-3.33	-3.33	0.67	-1.33	-3.33	-2.33	1.67	-2.33	-3.33	-2.33	-4.33	1.67	-4.33	-1.33	3.67	-1.33	0.67
699	44.371	9.33	-2.33	-4.33	-3.33	-4.33	-1.33	-2.33	-3.33	-3.33	-4.33	-4.33	1.67	-3.33	-2.33	-2.33	-1.33	-8.33	-6.33	-2.33	-3.33	-3.33	2.67	-2.33	-3.33	-3.33	-0.33	-4.33
706	44.815	8.0	-5.0	-3.0	-4.0	-1.0	0.0	-3.0	4.0	-1.0	-3.0	-5.0	3.0	-2.0	-3.0	-1.0	6.0	-1.0	4.0	0.0	-2.0	-2.0	2.0	-6.0	2.0	-3.0	0.0	-2.0
713	45.26	8.67	-1.67	-2.67	0.33	-1.67	-1.67	-0.67	-0.67	0.33	0.33	3.33	2.33	-0.67	-2.67	-3.67	-1.67	-2.67	-0.67	-2.67	-3.67	1.33	-6.67	-3.67	-7.67	-5.67	-0.67	-2.67
720	45.704	11.33	-6.33	-5.33	-0.33	-4.33	-6.33	-1.33	-3.33	-5.33	-3.33	-0.33	-4.33	-1.33	-0.33	-6.33	-4.33	-7.33	-1.33	-1.33	-6.33	-6.33	-6.33	-5.33	-2.33	-3.33	-6.33	-7.33
727	46.149	9.0	0.0	1.0	-3.0	0.0	-5.0	-2.0	-1.0	-1.0	-2.0	-3.0	-6.0	-8.0	-1.0	-3.0	-4.0	-4.0	-2.0	3.0	-4.0	3.0	-4.0	-6.0	-2.0	-2.0	1.0	-1.0
734	46.594	8.33	-0.33	-5.33	0.67	-0.33	1.67	-1.33	-1.33	2.67	-1.33	1.67	-0.33	0.67	-0.33	1.67	0.67	-0.33	4.67	-0.33	-3.33	-3.33	-4.33	3.67	-3.33	-2.33	-1.33	-1.33
741	47.038	9.67	-2.67	-5.67	-5.67	-5.67	0.33	-3.67	1.33	-0.67	1.33	-2.67	-4.67	0.33	1.33	-4.67	-2.67	-3.67	-2.67	-4.67	-2.67	-0.67	2.33	-0.67	1.33	0.33	2.33	-0.67
748	47.483	14.0	-1.0	-7.0	-4.0	-7.0	-8.0	-5.0	-10.0	0.0	-4.0	-10.0	-10.0	-9.0	-4.0	-8.0	-5.0	-9.0	-7.0	-5.0	-5.0	-9.0	0.0	0.0	-6.0	-12.0	-10.0	-7.0
755	47.928	8.67	-1.67	-1.67	-2.67	6.33	2.33	1.33	-2.67	-4.67	-6.67	1.33	-1.67	-2.67	-0.67	-3.67	2.33	1.33	-1.67	2.33	-2.67	3.33	-0.67	0.33	0.33	3.33	-5.67	0.33
762	48.372	11.0	-6.0	0.0	-4.0	1.0	5.0	-1.0	-3.0	-5.0	0.0	-1.0	-7.0	-4.0	1.0	6.0	-7.0	-6.0	-4.0	-2.0	1.0	-5.0	-9.0	0.0	-5.0	5.0	-2.0	-4.0
769	48.817	11.67	-6.67	-1.67	-3.67	-2.67	2.33	-0.67	-6.67	-6.67	-7.67	-6.67	-4.67	-3.67	-3.67	-5.67	-3.67	0.33	-2.67	-4.67	-0.67	-3.67	-3.67	-2.67	0.33	-5.67	-0.67	-2.67
776	49.262	13.33	-3.33	0.67	-4.33	-6.33	-5.33	-4.33	-1.33	-5.33	-6.33	-6.33	-3.33	-4.33	-5.33	-7.33	-4.33	1.67	-4.33	-4.33	-3.33	-9.33	-3.33	-1.33	-1.33	0.67	-9.33	-3.33
783	49.707	10.33	1.67	-2.33	-4.33	-2.33	-4.33	2.67	0.67	4.67	-1.33	-2.33	-4.33	0.67	-2.33	1.67	-2.33	1.67	3.67	2.67	-0.33	-3.33	6.67	-5.33	-4.33	-0.33	0.67	-0.33
790	50.152	12.33	2.67	0.67	-2.33	-0.33	2.67	-5.33	-7.33	3.67	-0.33	-1.33	-6.33	-4.33	-1.33	-0.33	6.67	-4.33	9.67	-2.33	-3.33	4.67	-1.33	-0.33	5.67	-2.33	-4.33	-1.33
797	50.597	14.0	-4.0	-2.0	-6.0	-4.0	-1.0	-5.0	-6.0	-9.0	-7.0	-5.0	0.0	-3.0	-4.0	-3.0	-5.0	-5.0	-7.0	-4.0	-8.0	0.0	-2.0	-7.0	0.0	-8.0	1.0	-5.0
804	51.042	11.67	1.33	-4.67	2.33	-7.67	-2.67	-3.67	7.33	-3.67	-5.67	0.33	1.33	0.33	-1.67	-3.67	-2.67	-6.67	1.33	-1.67	-5.67	-4.67	-0.67	-1.67	-6.67	-1.67	3.33	-0.67
811	51.487	9.33	0.67	-1.33	-0.33	4.67	0.67	-0.33	4.67	-1.33	0.67	2.67	3.67	3.67	-3.33	2.67	-2.33	4.67	5.67	5.67	0.67	2.67	7.67	-0.33	5.67	4.67	4.67	9.67
818	51.932	13.67	-2.67	-5.67	-1.67	3.33	-1.67	-5.67	-0.67	0.33	-1.67	-4.67	-3.67	1.33	-4.67	-6.67	-2.67	-1.67	1.33	-0.67	-1.67	-3.67	-0.67	-1.67	-2.67	-2.67	-4.67	-3.67
825	52.377	15.33	-7.33	-5.33	0.67	-3.33	0.67	-4.33	0.67	-0.33	7.67	-7.33	-10.33	-4.33	-5.33	-3.33	0.67	-3.33	-6.33	-4.33	-6.33	-4.33	0.67	-2.33	-1.33	-3.33	-7.33	-7.33
832	52.823	18.0	-9.0	-9.0	-4.0	-9.0	5.0	-4.0	-5.0	-5.0	-9.0	-4.0	-7.0	-4.0	-5.0	-1.0	-7.0	-13.0	-10.0	-7.0	-2.0	-4.0	-4.0	-9.0	-7.0	-7.0	-9.0	-3.0
839	53.268	17.0	-8.0	-2.0	-6.0	-10.0	-9.0	-6.0	1.0	-1.0	-10.0	1.0	-6.0	-1.0	-5.0	0.0	-5.0	0.0	-5.0	-6.0	-8.0	-7.0	4.0	-1.0	1.0	-5.0	-3.0	-8.0
846	53.713	14.67	-6.67	-0.67	-5.67	-4.67	-3.67	2.33	5.33	3.33	0.33	-5.67	-6.67	-8.67	4.33	-2.67	1.33	0.33	-7.67	-3.67	1.33	-4.67	-9.67	-4.67	-3.67	3.33	3.33	-8.67
853	54.159	14.67	-7.67	-1.67	-2.67	0.33	-5.67	5.33	8.33	-1.67	5.33	-3.67	-2.67	1.33	-0.67	2.33	-4.67	-1.67	-0.67	0.33	1.33	-6.67	-4.67	-1.67	4.33	1.33	0.33	-4.67
860	54.604	13.33	-4.33	0.67	2.67	1.67	7.67	3.67	2.67	4.67	3.67	-1.33	3.67	-4.33	9.67	-2.33	1.67	-4.33	7.67	3.67	1.67	-0.33	6.67	3.67	-2.33	2.67	0.67	-3.33
867	55.05	14.0	-4.0	0.0	4.0	-3.0	5.0	-5.0	-1.0	1.0	0.0	3.0	-1.0	6.0	2.0	-3.0	-6.0	-1.0	1.0	3.0	2.0	0.0	1.0	-4.0	4.0	-1.0	-2.0	4.0
874	55.496	15.33	-2.33	-0.33	-4.33	5.67	5.67	1.67	7.67	1.67	-5.33	-5.33	-2.33	-0.33	-2.33	-1.33	-7.33	3.67	0.67	-2.33	-5.33	-2.33	-4.33	3.67	-6.33	2.67	-3.33	-6.33
881	55.942	15.33	-0.33	-1.33	-4.33	1.67	-4.33	4.67	-2.33	-1.33	-1.33	-4.33	-1.33	-5.33	5.67	0.67	-4.33	1.67	-5.33	6.67	-0.33	-0.33	-1.33	-5.33	-1.33	-6.33	1.67	-3.33
888	56.387	17.67	-1.67	-2.67	-4.67	4.33	3.33	5.33	0.33	0.33	1.33	-1.67	5.33	-0.67	-1.67	-5.67	-5.67	2.33	-6.67	0.33	1.33	-5.67	1.33	-2.67	-5.67	-10.67	-5.67	-5.67
895	56.833	16.33	-8.33	0.67	-2.33	10.67	0.67	-1.33	0.67	2.67	4.67	4.67	-0.33	3.67	2.67	3.67	0.67	0.67	-4.33	-3.33	9.67	1.67	0.67	-5.33	1.67	-4.33	2.67	-6.33
902	57.279	19.67	4.33	-3.67	-3.67	-9.67	-6.67	-0.67	-3.67	1.33	-2.67	3.33	-3.67	-1.67	-0.67	-6.67	1.33	-1.67	0.33	-5.67	-7.67	-4.67	-6.67	-10.67	-4.67	-1.67	-6.67	-2.67
909	57.726	23.33	-7.33	-6.33	-3.33	0.67	0.67	4.67	-2.33	-4.33	-1.33	-10.33	-7.33	-2.33	-8.33	-1.33	-18.33	3.67	-1.33	-11.33	-5.33	-10.33	-6.33	-14.33	-5.33	-2.33	-10.33	-13.33
916	58.172	25.0	-1.0	-12.0	-3.0	-2.0	-4.0	-11.0	-8.0	-3.0	0.0	1.0	-5.0	-9.0	-8.0	-4.0	-7.0	-6.0	-2.0	-5.0	-13.0	-9.0	-7.0	0.0	-10.0	-4.0	-1.0	-9.0
923	58.618	18.33	4.67	-5.33	12.67	-0.33	10.67	3.67	15.67	5.67	3.67	1.67	-0.33	2.67	0.67	6.67	2.67	2.67	3.67	-2.33	-1.33	0.67	2.67	0.67	8.67	-8.33	-2.33	3.67
930	59.064	17.67	15.33	19.33	24.33	48.33	25.33	27.33	22.33	32.33	15.33	23.33	22.33	25.33	13.33	18.33	10.33	19.33	11.33	20.33	9.33	5.33	5.33	-2.67	6.33	3.33	3.33	14.33
937	59.511	20.33	20.67	34.67	65.67	69.67	37.67	53.67	84.67	55.67	26.67	42.67	59.67	66.67	38.67	51.67	52.67	40.67	21.67	36.67	30.67	25.67	30.67	28.67	18.67	8.67	14.67	6.67
944	59.957	23.33	29.67	64.67	67.67	38.67	17.67	25.67	38.67	43.67	1.67	32.67	49.67	36.67	54.67	48.67	22.67	36.67	24.67	32.67	21.67	28.67	22.67	43.67	21.67	4.67	-2.33	8.67
951	60.404	14.67	0.33	16.33	22.33	10.33	25.33	9.33	29.33	10.33	5.33	23.33	12.33	13.33	11.33	13.33	8.33	12.33	17.33	11.33	5.33	16.33	6.33	12.33	5.33	0.33	11.33	5.33
958	60.851	18.0	-2.0	-1.0	1.0	0.0	-5.0	5.0	8.0	-4.0	-5.0	7.0	-2.0	4.0	-3.0	-3.0	-3.0	-4.0	-1.0	-4.0	-4.0	0.0	-5.0	0.0	0.0	-6.0	-1.0	-7.0
965	61.298	14.67	6.33	-2.67	2.33	4.33	17.33	6.33	1.33	7.33	11.33	1.33	-0.67	10.33	-2.67	-1.67	0.33	-2.67	-1.67	2.33	5.33	-4.67	1.33	2.33	4.33	1.33	-0.67	1.33
972	61.745	16.0	-7.0	0.0	-1.0	5.0	8.0	11.0	10.0	9.0	3.0	1.0	0.0	7.0	17.0	8.0	3.0	6.0	15.0	7.0	-4.0	5.0	3.0	7.0	2.0	0.0	2.0	-1.0
979	62.192	23.0	-5.0	2.0	-7.0	-8.0	0.0	5.0	13.0	10.0	19.0	5.0	-1.0	16.0	16.0	6.0	0.0	-9.0	5.0	0.0	2.0	4.0	0.0	7.0	3.0	-1.0	4.0	1.0
986	62.639	15.0	2.0	3.0	17.0	16.0	15.0	21.0	19.0	18.0	28.0	28.0	37.0	85.0	58.0	31.0	14.0	22.0	20.0	23.0	17.0	8.0	8.0	24.0	19.0	11.0	12.0	20.0
993	63.086	20.67	-4.67	-0.67	9.33	13.33	11.33	11.33	12.33	18.33	29.33	25.33	59.33	91.33	76.33	39.33	3.33	1.33	15.33	12.33	25.33	11.33	5.33	13.33	15.33	8.33	8.33	44.33
1000	63.533	19.67	-11.67	-7.67	-4.67	2.33	4.33	8.33	5.33	1.33	14.33	3.33	26.33	29.33	14.33	17.33	2.33	1.33	-1.67	11.33	-0.67	-1.67	7.33	8.33	5.33	5.33	3.33	1.33
1007	63.981	17.67	-2.67	1.33	7.33	-4.67	-0.67	3.33	13.33	0.33	8.33	13.33	8.33	3.33	7.33	3.33	3.33	1.33	0.33	8.33	-0.67	4.33	4.33	-2.67	1.33	0.33	11.33	3.33
1014	64.428	17.33	-7.33	-6.33	-5.33	8.67	-0.33	2.67	-0.33	13.67	8.67	6.67	10.67	10.67	2.67	-3.33	1.67	4.67	6.67	1.67	4.67	5.67	-0.33	6.67	0.67	1.67	1.67	5.67
1021	64.876	14.67	-3.67	6.33	14.33	16.33	10.33	15.33	5.33	16.33	17.33	17.33	12.33	5.33	6.33	8.33	19.33	1.33	0.33	15.33	2.33	7.33	10.33	7.33	11.33	13.33	7.33	5.33
1028	65.324	20.67	-10.67	-4.67	20.33	1.33	14.33	16.33	1.33	8.33	13.33	13.33	0.33	0.33	-3.67	23.33	15.33	3.33	9.33	0.33	-3.67	1.33	3.33	7.33	3.33	5.33	6.33	7.33
1035	65.772	19.33	0.67	5.67	41.67	45.67	29.67	42.67	9.67	7.67	9.67	11.67	5.67	4.67	16.67	22.67	12.67	20.67	15.67	8.67	7.67	-5.33	9.67	0.67	3.67	9.67	5.67	-0.33
1042	66.22	20.33	-5.33	25.67	47.67	66.67	43.67	32.67	9.67	7.67	6.67	4.67	10.67	10.67	18.67	9.67	11.67	10.67	6.67	15.67	5.67	1.67	6.67	8.67	6.67	14.67	2.67	5.67
1049	66.668	21.0	2.0	31.0	37.0	84.0	53.0	48.0	15.0	6.0	8.0	17.0	39.0	33.0	47.0	9.0	2.0	7.0	8.0	17.0	14.0	10.0	0.0	2.0	0.0	12.0	-1.0	10.0
1056	67.116	21.33	-8.33	8.67	31.67	48.67	32.67	46.67	15.67	19.67	29.67	41.67	33.67	50.67	59.67	30.67	5.67	16.67	24.67	3.67	22.67	15.67	14.67	14.67	-1.33	3.67	4.67	6.67
1063	67.564	23.67	-11.67	5.33	52.33	42.33	32.33	41.33	18.33	33.33	51.33	57.33	55.33	36.33	22.33	19.33	8.33	17.33	13.33	20.33	21.33	12.33	11.33	8.33	13.33	3.33	12.33	2.33
1070	68.013	17.33	5.67	28.67	46.67	64.67	48.67	48.67	30.67	65.67	71.67	56.67	72.67	54.67	42.67	25.67	26.67	24.67	21.67	16.67	7.67	16.67	13.67	9.67	6.67	7.67	16.67	26.67
1077	68.462	14.0	11.0	19.0	41.0	55.0	44.0	30.0	29.0	48.0	43.0	79.0	73.0	46.0	31.0	18.0	24.0	32.0	13.0	20.0	18.0	1.0	15.0	17.0	26.0	8.0	12.0	19.0
1084	68.91	16.33	2.67	2.67	16.67	56.67	31.67	27.67	38.67	16.67	24.67	34.67	51.67	44.67	20.67	12.67	12.67	21.67	10.67	16.67	15.67	10.67	15.67	4.67	7.67	9.67	6.67	4.67
1091	69.359	15.67	6.33	10.33	25.33	33.33	27.33	37.33	38.33	25.33	26.33	34.33	45.33	33.33	28.33	12.33	14.33	15.33	11.33	23.33	19.33	10.33	9.33	13.33	7.33	8.33	12.33	11.33
1098	69.808	15.67	-3.67	4.33	10.33	35.33	20.33	19.33	41.33	30.33	18.33	20.33	26.33	7.33	16.33	9.33	8.33	13.33	14.33	18.33	19.33	2.33	4.33	1.33	18.33	17.33	15.33	20.33
1105	70.257	16.0	2.0	8.0	4.0	2.0	9.0	15.0	29.0	20.0	6.0	13.0	10.0	6.0	13.0	11.0	-3.0	8.0	13.0	7.0	3.0	16.0	5.0	8.0	5.0	17.0	3.0	8.0
1112	70.707	11.67	-1.67	3.33	9.33	12.33	17.33	12.33	11.33	12.33	5.33	10.33	11.33	12.33	3.33	16.33	7.33	9.33	6.33	8.33	13.33	14.33	7.33	7.33	1.33	11.33	23.33	12.33
1119	71.156	17.0	2.0	3.0	-1.0	4.0	4.0	12.0	-2.0	10.0	5.0	-1.0	2.0	3.0	-1.0	3.0	5.0	2.0	5.0	6.0	2.0	14.0	6.0	16.0	5.0	3.0	-2.0	5.0
1126	71.606	12.67	0.33	2.33	8.33	7.33	26.33	13.33	22.33	12.33	18.33	16.33	6.33	10.33	9.33	7.33	7.33	15.33	13.33	11.33	6.33	5.33	4.33	10.33	13.33	0.33	4.33	6.33
1133	72.055	16.67	-2.67	-3.67	5.33	6.33	11.33	10.33	11.33	5.33	17.33	6.33	0.33	4.33	-1.67	2.33	9.33	11.33	6.33	9.33	10.33	6.33	0.33	6.33	5.33	10.33	5.33	2.33
1140	72.505	15.0	10.0	23.0	19.0	18.0	14.0	17.0	22.0	7.0	28.0	13.0	11.0	18.0	18.0	7.0	6.0	12.0	12.0	13.0	8.0	4.0	11.0	15.0	6.0	16.0	10.0	13.0
1147	72.955	30.67	-5.67	46.33	37.33	8.33	7.33	39.33	19.33	13.33	21.33	11.33	6.33	9.33	19.33	9.33	4.33	2.33	15.33	6.33	19.33	14.33	11.33	11.33	15.33	2.33	-9.67	14.33
1154	73.405	21.0	12.0	16.0	30.0	19.0	24.0	49.0	43.0	25.0	25.0	29.0	24.0	8.0	31.0	14.0	16.0	7.0	14.0	17.0	15.0	25.0	18.0	15.0	17.0	10.0	16.0	22.0
1161	73.855	14.33	-4.33	1.67	17.67	8.67	28.67	37.67	21.67	19.67	25.67	15.67	16.67	15.67	16.67	11.67	5.67	12.67	11.67	11.67	14.67	10.67	13.67	0.67	18.67	6.67	22.67	11.67
1168	74.306	13.33	-0.33	-2.33	3.67	14.67	12.67	8.67	13.67	20.67	15.67	15.67	20.67	8.67	20.67	10.67	15.67	21.67	25.67	10.67	11.67	14.67	10.67	9.67	10.67	8.67	4.67	11.67
1175	74.756	22.33	2.67	7.67	27.67	38.67	39.67	36.67	38.67	30.67	16.67	14.67	36.67	21.67	21.67	25.67	41.67	21.67	16.67	26.67	27.67	17.67	46.67	25.67	21.67	10.67	10.67	21.67
1182	75.207	43.33	5.67	1.67	97.67	164.67	127.67	91.67	73.67	93.67	57.67	98.67	64.67	48.67	24.67	33.67	43.67	52.67	58.67	75.67	105.67	52.67	61.67	39.67	20.67	30.67	33.67	31.67
1189	75.658	26.67	4.33	30.33	154.33	256.33	249.33	217.33	247.33	247.33	167.33	131.33	57.33	101.33	115.33	123.33	101.33	156.33	178.33	301.33	244.33	82.33	92.33	57.33	40.33	65.33	76.33	76.33
1196	76.109	17.0	-1.0	42.0	118.0	119.0	170.0	239.0	318.0	317.0	249.0	102.0	90.0	149.0	320.0	283.0	101.0	314.0	338.0	565.0	398.0	117.0	69.0	54.0	27.0	72.0	63.0	71.0
1203	76.56	18.33	-0.33	45.67	77.67	64.67	137.67	146.67	201.67	219.67	143.67	86.67	138.67	155.67	302.67	229.67	78.67	247.67	207.67	348.67	196.67	75.67	53.67	38.67	17.67	41.67	26.67	41.67
1210	77.011	12.33	7.67	15.67	38.67	36.67	83.67	82.67	94.67	92.67	54.67	52.67	51.67	82.67	98.67	110.67	51.67	92.67	93.67	116.67	70.67	43.67	24.67	24.67	22.67	24.67	13.67	18.67
1217	77.463	15.67	-4.67	24.33	19.33	31.33	27.33	36.33	26.33	14.33	29.33	14.33	15.33	11.33	25.33	15.33	22.33	29.33	36.33	30.33	20.33	11.33	21.33	15.33	14.33	21.33	16.33	3.33
1224	77.915	10.67	3.33	19.33	33.33	42.33	20.33	43.33	15.33	23.33	38.33	22.33	14.33	14.33	16.33	20.33	32.33	24.33	28.33	12.33	13.33	18.33	36.33	21.33	17.33	22.33	14.33	24.33
1231	78.366	14.33	2.67	8.67	36.67	31.67	31.67	49.67	48.67	51.67	39.67	19.67	23.67	25.67	22.67	26.67	16.67	31.67	21.67	13.67	17.67	22.67	49.67	43.67	37.67	33.67	27.67	19.67
1238	78.818	12.67	-4.67	19.33	33.33	50.33	59.33	64.33	79.33	51.33	55.33	33.33	35.33	30.33	16.33	42.33	33.33	53.33	39.33	24.33	23.33	37.33	42.33	70.33	71.33	44.33	48.33	29.33
1245	79.271	13.33	0.67	33.67	41.67	32.67	71.67	48.67	39.67	43.67	53.67	32.67	31.67	30.67	34.67	36.67	55.67	60.67	47.67	53.67	26.67	34.67	45.67	54.67	90.67	33.67	43.67	30.67
1252	79.723	17.0	3.0	37.0	53.0	46.0	46.0	65.0	50.0	40.0	40.0	37.0	40.0	28.0	17.0	17.0	64.0	78.0	56.0	68.0	36.0	50.0	49.0	45.0	35.0	38.0	37.0	43.0
1259	80.175	15.0	1.0	25.0	41.0	47.0	41.0	30.0	44.0	40.0	40.0	28.0	37.0	24.0	26.0	23.0	31.0	29.0	45.0	49.0	32.0	66.0	26.0	44.0	45.0	55.0	58.0	28.0
1266	80.628	16.0	2.0	13.0	34.0	26.0	23.0	49.0	48.0	32.0	33.0	23.0	8.0	18.0	29.0	18.0	10.0	22.0	21.0	27.0	30.0	27.0	33.0	18.0	27.0	31.0	23.0	10.0
1273	81.081	19.33	-1.33	13.67	17.67	7.67	4.67	23.67	54.67	18.67	15.67	13.67	3.67	6.67	5.67	11.67	12.67	25.67	7.67	18.67	4.67	14.67	7.67	12.67	6.67	16.67	6.67	7.67
1280	81.534	15.67	1.33	7.33	8.33	10.33	5.33	8.33	18.33	15.33	13.33	12.33	7.33	7.33	13.33	9.33	13.33	15.33	11.33	11.33	3.33	13.33	10.33	16.33	16.33	3.33	10.33	10.33
1287	81.987	20.67	5.33	-9.67	-2.67	11.33	0.33	-3.67	15.33	18.33	18.33	-2.67	5.33	11.33	3.33	5.33	10.33	5.33	6.33	7.33	2.33	4.33	5.33	12.33	11.33	-0.67	11.33	2.33
1294	82.441	22.67	-2.67	-4.67	-5.67	6.33	3.33	12.33	15.33	16.33	-1.67	10.33	5.33	-2.67	2.33	12.33	2.33	7.33	6.33	8.33	9.33	14.33	9.33	9.33	12.33	8.33	1.33	5.33
1301	82.894	22.0	-3.0	5.0	8.0	5.0	13.0	5.0	6.0	5.0	14.0	15.0	4.0	4.0	16.0	4.0	9.0	3.0	-1.0	9.0	15.0	0.0	9.0	14.0	6.0	6.0	-1.0	7.0
1308	83.348	19.0	12.0	21.0	35.0	16.0	26.0	27.0	19.0	15.0	33.0	21.0	21.0	27.0	37.0	11.0	20.0	19.0	21.0	19.0	10.0	17.0	17.0	28.0	18.0	21.0	15.0	23.0
1315	83.802	23.67	10.33	21.33	19.33	6.33	32.33	35.33	22.33	10.33	23.33	15.33	29.33	41.33	28.33	24.33	26.33	15.33	22.33	9.33	13.33	27.33	2.33	22.33	18.33	8.33	12.33	4.33
1322	84.256	22.0	11.0	33.0	27.0	25.0	27.0	41.0	24.0	31.0	33.0	35.0	29.0	59.0	35.0	30.0	30.0	33.0	26.0	11.0	12.0	27.0	29.0	27.0	30.0	21.0	24.0	32.0
1329	84.71	26.67	-4.67	10.33	30.33	21.33	33.33	45.33	29.33	36.33	16.33	29.33	42.33	44.33	22.33	27.33	31.33	27.33	18.33	18.33	18.33	22.33	10.33	26.33	24.33	9.33	25.33	24.33
1336	85.165	32.0	2.0	12.0	31.0	35.0	58.0	54.0	29.0	28.0	17.0	19.0	32.0	18.0	31.0	19.0	24.0	12.0	18.0	18.0	21.0	26.0	19.0	20.0	15.0	16.0	12.0	16.0
1343	85.619	24.33	9.67	26.67	15.67	38.67	65.67	40.67	29.67	19.67	13.67	28.67	31.67	22.67	15.67	21.67	19.67	30.67	12.67	28.67	34.67	24.67	15.67	29.67	19.67	26.67	19.67	30.67
1350	86.074	28.67	-4.67	8.33	10.33	9.33	26.33	33.33	22.33	4.33	16.33	19.33	1.33	2.33	9.33	5.33	12.33	13.33	8.33	6.33	11.33	17.33	11.33	10.33	15.33	15.33	18.33	16.33
1357	86.529	21.0	5.0	6.0	17.0	19.0	22.0	21.0	22.0	25.0	21.0	29.0	28.0	25.0	35.0	9.0	19.0	29.0	12.0	25.0	21.0	22.0	12.0	19.0	18.0	11.0	11.0	30.0
1364	86.985	25.67	-0.67	5.33	12.33	16.33	13.33	15.33	21.33	33.33	25.33	17.33	36.33	31.33	17.33	15.33	5.33	16.33	31.33	24.33	26.33	12.33	18.33	7.33	14.33	15.33	4.33	18.33
1371	87.44	26.33	-1.33	18.67	15.67	8.67	21.67	9.67	16.67	11.67	14.67	3.67	21.67	14.67	27.67	11.67	14.67	28.67	30.67	29.67	44.67	12.67	20.67	13.67	16.67	-0.33	20.67	12.67
1378	87.896	25.33	2.67	13.67	14.67	-0.33	20.67	3.67	27.67	31.67	37.67	35.67	14.67	8.67	17.67	14.67	34.67	34.67	42.67	26.67	31.67	22.67	13.67	23.67	18.67	16.67	4.67	9.67
1385	88.352	32.67	-5.67	12.33	-3.67	11.33	16.33	0.33	5.33	17.33	12.33	-4.67	6.33	2.33	6.33	4.33	-2.67	7.33	20.33	11.33	13.33	7.33	0.33	-5.67	3.33	-3.67	8.33	-1.67
1392	88.808	27.33	0.67	0.67	5.67	11.67	15.67	10.67	5.67	6.67	4.67	7.67	16.67	10.67	8.67	18.67	2.67	1.67	10.67	8.67	17.67	12.67	7.67	5.67	6.67	10.67	6.67	0.67
1399	89.264	27.67	2.33	-4.67	0.33	-3.67	16.33	24.33	9.33	-1.67	-1.67	7.33	0.33	5.33	13.33	12.33	-7.67	3.33	-3.67	-1.67	15.33	10.33	-0.67	11.33	4.33	3.33	4.33	3.33
1406	89.72	27.67	3.33	1.33	6.33	-1.67	3.33	6.33	6.33	10.33	3.33	3.33	9.33	4.33	7.33	13.33	18.33	16.33	2.33	-0.67	-3.67	0.33	1.33	1.33	11.33	-3.67	-0.67	5.33
1413	90.177	30.67	-7.67	-1.67	5.33	10.33	-8.67	1.33	3.33	11.33	8.33	1.33	6.33	1.33	-0.67	-0.67	-6.67	2.33	-1.67	-10.67	4.33	-2.67	5.33	-9.67	13.33	7.33	10.33	7.33
1420	90.634	27.33	-0.33	0.67	10.67	5.67	9.67	10.67	-7.33	13.67	5.67	6.67	-3.33	2.67	3.67	10.67	4.67	3.67	11.67	-0.33	0.67	3.67	3.67	1.67	7.67	1.67	6.67	5.67
1427	91.091	24.0	8.0	4.0	2.0	4.0	17.0	-6.0	4.0	0.0	6.0	8.0	8.0	18.0	10.0	11.0	9.0	7.0	16.0	11.0	1.0	12.0	17.0	15.0	3.0	8.0	21.0	12.0
1434	91.549	23.67	6.33	13.33	10.33	8.33	12.33	6.33	0.33	9.33	8.33	12.33	10.33	14.33	8.33	11.33	10.33	4.33	23.33	8.33	19.33	11.33	17.33	9.33	16.33	21.33	14.33	-4.67
1441	92.006	34.0	-5.0	-10.0	-6.0	-4.0	4.0	-3.0	-9.0	-4.0	2.0	0.0	-7.0	5.0	3.0	0.0	-8.0	-2.0	2.0	-1.0	6.0	2.0	2.0	11.0	-1.0	-2.0	-3.0	12.0
1448	92.464	27.0	-1.0	3.0	-5.0	10.0	-4.0	6.0	12.0	14.0	1.0	-5.0	-4.0	25.0	17.0	4.0	5.0	8.0	9.0	6.0	8.0	13.0	15.0	1.0	9.0	14.0	9.0	12.0
1455	92.922	30.67	-8.67	1.33	18.33	-7.67	15.33	3.33	-4.67	-1.67	3.33	11.33	2.33	18.33	11.33	0.33	1.33	0.33	1.33	16.33	5.33	-0.67	1.33	-2.67	-5.67	5.33	10.33	10.33
1462	93.38	28.67	6.33	11.33	1.33	-2.67	16.33	5.33	0.33	3.33	19.33	-1.67	14.33	4.33	13.33	14.33	10.33	7.33	-2.67	11.33	6.33	4.33	8.33	17.33	-3.67	3.33	7.33	14.33
1469	93.839	35.67	-7.67	-6.67	4.33	1.33	5.33	-9.67	-10.67	3.33	4.33	-3.67	7.33	-1.67	4.33	-3.67	8.33	-5.67	-0.67	-2.67	2.33	0.33	-7.67	-8.67	15.33	2.33	3.33	12.33
1476	94.297	26.33	3.67	-2.33	5.67	12.67	4.67	6.67	13.67	4.67	16.67	8.67	11.67	0.67	3.67	9.67	6.67	13.67	5.67	3.67	12.67	22.67	13.67	7.67	12.67	12.67	0.67	18.67
1483	94.756	31.33	-5.33	4.67	0.67	5.67	-1.33	4.67	9.67	-4.33	6.67	7.67	5.67	-4.33	0.67	-1.33	16.67	11.67	5.67	0.67	-7.33	-8.33	5.67	5.67	-2.33	2.67	-8.33	6.67
1490	95.215	29.0	1.0	9.0	6.0	2.0	-1.0	4.0	-2.0	15.0	16.0	9.0	8.0	4.0	5.0	15.0	17.0	14.0	1.0	-2.0	4.0	-4.0	6.0	16.0	-5.0	14.0	-3.0	10.0
1497	95.675	35.33	-14.33	-8.33	6.67	13.67	1.67	-0.33	-1.33	-11.33	11.67	2.67	5.67	0.67	3.67	-7.33	0.67	10.67	0.67	8.67	3.67	1.67	1.67	4.67	5.67	5.67	0.67	15.67
1504	96.134	33.0	3.0	-4.0	-4.0	1.0	2.0	-4.0	9.0	-6.0	5.0	14.0	7.0	5.0	-2.0	11.0	11.0	6.0	3.0	6.0	-2.0	-3.0	12.0	7.0	3.0	4.0	17.0	5.0
1511	96.594	29.0	4.0	11.0	13.0	-3.0	14.0	17.0	1.0	-1.0	14.0	17.0	5.0	11.0	22.0	2.0	1.0	6.0	5.0	4.0	15.0	11.0	18.0	6.0	7.0	7.0	8.0	21.0
1518	97.054	32.67	3.33	1.33	7.33	7.33	-2.67	1.33	4.33	4.33	3.33	0.33	3.33	18.33	-4.67	4.33	0.33	13.33	11.33	5.33	2.33	-2.67	8.33	7.33	2.33	9.33	10.33	15.33
1525	97.514	35.0	-3.0	5.0	-7.0	9.0	15.0	-4.0	9.0	2.0	-1.0	1.0	5.0	3.0	2.0	-5.0	4.0	0.0	-2.0	4.0	6.0	12.0	8.0	16.0	8.0	10.0	20.0	14.0
1532	97.975	33.33	-0.33	3.67	0.67	8.67	9.67	11.67	9.67	13.67	5.67	0.67	4.67	10.67	14.67	6.67	-0.33	5.67	12.67	2.67	5.67	14.67	0.67	1.67	-2.33	6.67	7.67	9.67
1539	98.436	35.0	-1.0	-2.0	4.0	-2.0	9.0	4.0	19.0	14.0	7.0	2.0	19.0	16.0	9.0	2.0	3.0	19.0	-4.0	0.0	5.0	5.0	6.0	18.0	-11.0	18.0	8.0	3.0
1546	98.897	31.0	8.0	10.0	11.0	4.0	12.0	12.0	10.0	12.0	2.0	9.0	8.0	8.0	6.0	8.0	-2.0	7.0	-6.0	11.0	14.0	6.0	5.0	-3.0	21.0	12.0	14.0	-7.0
1553	99.358	33.67	-3.67	3.33	6.33	5.33	10.33	8.33	6.33	5.33	14.33	3.33	17.33	2.33	4.33	3.33	3.33	9.33	7.33	-2.67	-3.67	8.33	8.33	10.33	20.33	5.33	14.33	9.33
1560	99.82	32.67	-0.67	5.33	11.33	14.33	16.33	13.33	-7.67	8.33	16.33	2.33	20.33	17.33	11.33	7.33	9.33	6.33	12.33	1.33	-0.67	0.33	3.33	11.33	22.33	9.33	13.33	14.33
1567	100.281	33.33	0.67	-4.33	13.67	12.67	14.67	3.67	9.67	2.67	4.67	-2.33	5.67	16.67	9.67	-0.33	17.67	4.67	13.67	11.67	13.67	11.67	9.67	9.67	4.67	13.67	13.67	0.67
1574	100.743	30.33	1.67	19.67	25.67	8.67	7.67	10.67	6.67	7.67	10.67	21.67	11.67	6.67	12.67	6.67	14.67	18.67	12.67	8.67	20.67	5.67	14.67	9.67	6.67	1.67	10.67	10.67
1581	101.206	30.0	-2.0	9.0	13.0	17.0	5.0	8.0	-1.0	7.0	15.0	24.0	6.0	20.0	7.0	-1.0	19.0	13.0	7.0	6.0	24.0	9.0	5.0	13.0	13.0	21.0	13.0	13.0
1588	101.668	32.67	5.33	-2.67	1.33	12.33	8.33	3.33	16.33	3.33	7.33	6.33	12.33	13.33	0.33	-8.67	16.33	6.33	9.33	9.33	13.33	8.33	10.33	8.33	-1.67	-3.67	17.33	13.33
1595	102.131	30.67	2.33	8.33	6.33	11.33	18.33	-1.67	5.33	8.33	11.33	22.33	19.33	16.33	6.33	2.33	15.33	7.33	19.33	23.33	4.33	9.33	13.33	1.33	2.33	14.33	18.33	1.33
1602	102.594	28.67	13.33	5.33	-0.67	-0.67	20.33	10.33	13.33	9.33	3.33	2.33	18.33	6.33	16.33	17.33	9.33	10.33	9.33	22.33	13.33	17.33	13.33	15.33	12.33	14.33	8.33	13.33
1609	103.057	26.0	3.0	13.0	14.0	1.0	20.0	5.0	11.0	16.0	15.0	21.0	9.0	21.0	19.0	15.0	10.0	10.0	3.0	7.0	12.0	11.0	2.0	16.0	9.0	16.0	-1.0	10.0
1616	103.521	27.67	-5.67	-3.67	4.33	1.33	10.33	23.33	11.33	20.33	13.33	15.33	25.33	15.33	13.33	0.33	2.33	9.33	2.33	16.33	5.33	10.33	-5.67	17.33	15.33	2.33	6.33	8.33
1623	103.985	33.0	-2.0	11.0	12.0	3.0	13.0	7.0	2.0	10.0	10.0	3.0	2.0	4.0	0.0	9.0	-4.0	4.0	-1.0	15.0	7.0	2.0	7.0	21.0	13.0	2.0	1.0	3.0
1630	104.449	33.0	-7.0	10.0	-2.0	8.0	-5.0	1.0	7.0	8.0	13.0	0.0	-6.0	-9.0	-4.0	0.0	0.0	7.0	40.0	8.0	13.0	4.0	18.0	7.0	9.0	6.0	7.0	-4.0
1637	104.913	28.0	-5.0	7.0	2.0	5.0	12.0	5.0	10.0	8.0	9.0	14.0	4.0	11.0	-6.0	2.0	-1.0	22.0	17.0	13.0	10.0	12.0	10.0	5.0	19.0	6.0	6.0	5.0
1644	105.378	21.67	4.33	18.33	3.33	9.33	15.33	16.33	9.33	12.33	-1.67	6.33	9.33	10.33	5.33	5.33	10.33	11.33	9.33	24.33	17.33	20.33	20.33	11.33	10.33	34.33	19.33	16.33
1651	105.843	33.33	-3.33	-9.33	11.67	-1.33	-0.33	-3.33	-0.33	1.67	9.67	-2.33	-4.33	-4.33	6.67	-5.33	-1.33	8.67	-3.33	4.67	-9.33	9.67	2.67	-10.33	-1.33	-1.33	-3.33	-2.33
1658	106.308	25.0	-3.0	10.0	15.0	6.0	7.0	2.0	8.0	8.0	7.0	-2.0	-4.0	17.0	11.0	3.0	8.0	14.0	3.0	7.0	-5.0	9.0	7.0	4.0	-1.0	2.0	9.0	3.0
1665	106.773	30.33	-4.33	1.67	-9.33	-1.33	6.67	1.67	4.67	0.67	-3.33	-10.33	-7.33	-6.33	-1.33	0.67	0.67	-1.33	5.67	-5.33	0.67	7.67	10.67	-4.33	3.67	7.67	10.67	-7.33
1672	107.239	27.33	7.67	4.67	12.67	6.67	2.67	6.67	-5.33	1.67	-12.33	6.67	2.67	-6.33	-0.33	1.67	3.67	0.67	7.67	10.67	7.67	8.67	9.67	5.67	1.67	6.67	1.67	3.67
1679	107.705	26.67	-2.67	2.33	-4.67	-6.67	4.33	-0.67	12.33	-6.67	8.33	8.33	-7.67	10.33	-7.67	-1.67	-0.67	8.33	8.33	9.33	16.33	4.33	4.33	-3.67	4.33	0.33	-0.67	-0.67
1686	108.171	26.33	1.67	-2.33	-1.33	5.67	-6.33	1.67	-5.33	7.67	3.67	3.67	4.67	-0.33	-2.33	-3.33	-8.33	8.67	5.67	7.67	1.67	14.67	-2.33	0.67	10.67	-2.33	-2.33	5.67
1693	108.638	24.0	2.0	-2.0	3.0	3.0	-1.0	-1.0	4.0	11.0	5.0	-3.0	-1.0	-3.0	-1.0	8.0	7.0	8.0	5.0	-2.0	2.0	11.0	4.0	6.0	-2.0	4.0	-4.0	11.0
1700	109.105	26.0	-4.0	1.0	6.0	-3.0	3.0	8.0	5.0	-2.0	7.0	9.0	4.0	3.0	-2.0	-5.0	6.0	2.0	-3.0	0.0	4.0	-3.0	1.0	2.0	0.0	13.0	-1.0	0.0
1707	109.572	27.0	-6.0	3.0	-1.0	4.0	5.0	-6.0	0.0	-4.0	-13.0	1.0	-3.0	1.0	-3.0	0.0	-4.0	5.0	7.0	3.0	-1.0	1.0	5.0	5.0	4.0	3.0	5.0	10.0
1714	110.039	19.33	-0.33	10.67	4.67	10.67	8.67	12.67	5.67	8.67	1.67	4.67	8.67	2.67	8.67	5.67	-1.33	5.67	2.67	3.67	16.67	17.67	6.67	14.67	8.67	3.67	10.67	-0.33
1721	110.507	20.67	-1.67	4.33	-1.67	8.33	-7.67	-8.67	-1.67	5.33	15.33	2.33	3.33	4.33	12.33	1.33	8.33	-0.67	3.33	7.33	1.33	2.33	6.33	13.33	9.33	24.33	4.33	7.33
1728	110.975	24.67	-3.67	-7.67	4.33	-5.67	2.33	1.33	0.33	7.33	0.33	-9.67	3.33	6.33	3.33	1.33	0.33	-2.67	11.33	-0.67	-2.67	-6.67	-5.67	0.33	0.33	1.33	-1.67	10.33
1735	111.443	23.67	-7.67	-7.67	2.33	-2.67	-3.67	5.33	7.33	-1.67	2.33	6.33	-6.67	-2.67	2.33	-4.67	13.33	4.33	10.33	-4.67	3.33	-4.67	3.33	-3.67	12.33	-3.67	9.33	-3.67
1742	111.912	19.0	9.0	5.0	10.0	4.0	8.0	13.0	11.0	15.0	15.0	12.0	9.0	8.0	0.0	9.0	12.0	1.0	1.0	10.0	4.0	2.0	7.0	5.0	7.0	18.0	23.0	0.0
1749	112.38	19.67	2.33	1.33	7.33	3.33	8.33	10.33	-2.67	12.33	-1.67	5.33	6.33	6.33	7.33	8.33	9.33	-0.67	4.33	7.33	-0.67	-0.67	13.33	10.33	14.33	0.33	5.33	5.33
1756	112.85	23.67	-0.67	5.33	-0.67	1.33	8.33	-9.67	2.33	9.33	-4.67	0.33	3.33	2.33	4.33	-4.67	-6.67	-3.67	5.33	4.33	-1.67	9.33	6.33	5.33	2.33	1.33	4.33	6.33
1763	113.319	24.67	-10.67	10.33	-8.67	-9.67	-4.67	-0.67	1.33	-1.67	-2.67	-1.67	-1.67	0.33	-2.67	-1.67	-1.67	-10.67	-2.67	-9.67	1.33	-0.67	6.33	6.33	0.33	4.33	-2.67	4.33
1770	113.789	19.67	2.33	5.33	0.33	3.33	7.33	2.33	1.33	11.33	-3.67	2.33	-2.67	6.33	0.33	3.33	1.33	1.33	7.33	-0.67	-0.67	13.33	2.33	-1.67	5.33	-0.67	6.33	-2.67
1777	114.259	24.33	-9.33	0.67	-6.33	7.67	2.67	-8.33	-2.33	-0.33	2.67	3.67	-8.33	-5.33	-3.33	0.67	-1.33	-6.33	-5.33	1.67	-9.33	-3.33	-5.33	-3.33	-1.33	1.67	-3.33	-2.33
1784	114.729	16.0	-1.0	-1.0	11.0	0.0	6.0	6.0	11.0	5.0	9.0	-2.0	4.0	1.0	11.0	7.0	9.0	10.0	4.0	3.0	10.0	4.0	1.0	12.0	8.0	7.0	10.0	4.0
1791	115.2	17.33	-3.33	1.67	6.67	3.67	-6.33	6.67	3.67	5.67	2.67	7.67	6.67	8.67	7.67	-2.33	3.67	6.67	5.67	2.67	-1.33	5.67	-1.33	2.67	3.67	7.67	3.67	9.67
1798	115.671	14.67	0.33	5.33	8.33	-2.67	4.33	6.33	0.33	3.33	-0.67	4.33	20.33	6.33	8.33	-6.67	11.33	9.33	6.33	3.33	3.33	2.33	1.33	6.33	10.33	8.33	8.33	6.33
1805	116.142	16.67	-3.67	0.33	2.33	0.33	0.33	-1.67	-1.67	1.33	-3.67	8.33	3.33	3.33	-1.67	6.33	0.33	1.33	-0.67	1.33	5.33	-1.67	-2.67	0.33	7.33	-6.67	11.33	1.33
1812	116.614	17.67	2.33	0.33	-4.67	4.33	-0.67	1.33	4.33	-5.67	5.33	1.33	1.33	1.33	3.33	-0.67	8.33	2.33	-1.67	10.33	2.33	0.33	-2.67	9.33	-5.67	1.33	0.33	2.33
1819	117.086	15.67	0.33	7.33	-6.67	9.33	-2.67	-5.67	1.33	4.33	1.33	2.33	-5.67	3.33	-4.67	-2.67	8.33	1.33	-0.67	-6.67	5.33	0.33	8.33	5.33	9.33	10.33	4.33	4.33
1826	117.558	13.67	4.33	3.33	3.33	4.33	1.33	6.33	13.33	0.33	10.33	6.33	0.33	7.33	0.33	-0.67	2.33	5.33	1.33	0.33	7.33	2.33	3.33	4.33	11.33	3.33	4.33	4.33
1833	118.03	13.67	-0.67	2.33	7.33	-3.67	4.33	8.33	1.33	3.33	1.33	9.33	5.33	0.33	0.33	12.33	1.33	8.33	1.33	3.33	8.33	7.33	9.33	8.33	-1.67	5.33	4.33	1.33
1840	118.503	12.33	5.67	4.67	-2.33	3.67	4.67	1.67	-0.33	2.67	-1.33	12.67	0.67	5.67	8.67	5.67	-3.33	5.67	0.67	4.67	8.67	12.67	5.67	1.67	2.67	-1.33	2.67	4.67
1847	118.976	14.33	0.67	0.67	2.67	-3.33	-4.33	0.67	2.67	2.67	2.67	2.67	1.67	2.67	-6.33	10.67	-2.33	4.67	6.67	0.67	4.67	1.67	5.67	-0.33	2.67	-0.33	-2.33	-0.33
1854	119.45	13.33	-2.33	-1.33	-3.33	-0.33	10.67	-0.33	8.67	4.67	0.67	1.67	4.67	7.67	9.67	5.67	10.67	2.67	3.67	-0.33	2.67	7.67	0.67	12.67	4.67	8.67	-0.33	-1.33
1861	119.924	11.33	6.67	0.67	-3.33	6.67	10.67	2.67	4.67	6.67	4.67	3.67	3.67	-3.33	6.67	3.67	4.67	4.67	9.67	6.67	7.67	1.67	11.67	7.67	4.67	9.67	5.67	-0.33
1868	120.398	10.67	3.33	2.33	0.33	4.33	6.33	5.33	9.33	11.33	6.33	9.33	5.33	4.33	8.33	0.33	3.33	2.33	10.33	8.33	7.33	4.33	6.33	-0.67	5.33	2.33	5.33	12.33
1875	120.872	16.67	-2.67	2.33	2.33	-2.67	6.33	-0.67	2.33	0.33	-4.67	-4.67	-4.67	-1.67	-3.67	8.33	0.33	0.33	-2.67	4.33	0.33	1.33	-5.67	-3.67	1.33	-5.67	3.33	-3.67
1882	121.347	11.33	-4.33	6.67	-4.33	10.67	4.67	3.67	8.67	5.67	-3.33	3.67	8.67	-1.33	-0.33	12.67	11.67	11.67	2.67	1.67	7.67	1.67	0.67	3.67	8.67	6.67	-1.33	10.67
1889	121.822	9.0	1.0	9.0	5.0	-1.0	8.0	1.0	3.0	4.0	3.0	10.0	3.0	1.0	9.0	10.0	11.0	7.0	6.0	6.0	4.0	9.0	3.0	8.0	5.0	9.0	3.0	6.0
1896	122.298	12.33	1.67	4.67	-2.33	2.67	3.67	5.67	-0.33	2.67	0.67	5.67	-5.33	0.67	0.67	1.67	5.67	1.67	5.67	7.67	-8.33	5.67	8.67	0.67	7.67	-2.33	-4.33	7.67
1903	122.773	10.0	-3.0	-1.0	-3.0	5.0	6.0	-1.0	10.0	9.0	7.0	7.0	3.0	-2.0	0.0	9.0	2.0	0.0	5.0	6.0	8.0	4.0	7.0	10.0	-3.0	6.0	6.0	10.0
1910	123.25	14.33	-6.33	0.67	-2.33	-2.33	-4.33	-1.33	2.67	-1.33	-2.33	-0.33	-0.33	-3.33	-4.33	1.67	-6.33	2.67	-1.33	6.67	-4.33	-0.33	1.67	-2.33	7.67	-2.33	0.67	-1.33
1917	123.726	10.0	-1.0	2.0	-3.0	2.0	0.0	3.0	5.0	2.0	2.0	6.0	2.0	4.0	2.0	10.0	4.0	0.0	4.0	-1.0	1.0	7.0	6.0	8.0	1.0	0.0	5.0	2.0
1924	124.203	11.0	7.0	4.0	0.0	0.0	-1.0	3.0	1.0	7.0	6.0	-3.0	-1.0	0.0	0.0	5.0	3.0	-1.0	2.0	3.0	3.0	-3.0	-2.0	-3.0	4.0	1.0	4.0	1.0
1931	124.68	10.0	-4.0	-8.0	10.0	-3.0	-3.0	-1.0	4.0	1.0	5.0	8.0	10.0	-2.0	-5.0	0.0	-1.0	6.0	5.0	6.0	-1.0	2.0	0.0	-2.0	5.0	0.0	6.0	7.0
1938	125.158	9.0	7.0	0.0	-1.0	0.0	2.0	4.0	3.0	3.0	5.0	-3.0	-3.0	5.0	-3.0	-1.0	2.0	5.0	0.0	1.0	6.0	5.0	2.0	-1.0	2.0	3.0	3.0	2.0
1945	125.635	8.67	3.33	-5.67	-1.67	6.33	4.33	3.33	0.33	3.33	4.33	6.33	0.33	0.33	4.33	1.33	1.33	2.33	1.33	2.33	0.33	5.33	4.33	0.33	2.33	0.33	9.33	6.33
1952	126.114	9.33	-1.33	0.67	-1.33	5.67	-0.33	0.67	1.67	4.67	1.67	-0.33	11.67	10.67	-0.33	1.67	9.67	0.67	-0.33	3.67	4.67	5.67	6.67	5.67	4.67	0.67	5.67	-3.33
1959	126.592	12.0	-6.0	-2.0	-5.0	3.0	-6.0	3.0	4.0	1.0	5.0	-3.0	0.0	1.0	-2.0	-3.0	3.0	2.0	-2.0	-5.0	0.0	4.0	8.0	-4.0	3.0	-1.0	5.0	3.0
1966	127.071	10.0	-1.0	-3.0	-4.0	2.0	-2.0	-5.0	5.0	-4.0	0.0	9.0	2.0	0.0	4.0	6.0	0.0	-1.0	-2.0	-5.0	1.0	0.0	2.0	6.0	4.0	1.0	5.0	-1.0
1973	127.55	7.33	4.67	1.67	1.67	2.67	9.67	4.67	9.67	3.67	4.67	0.67	1.67	5.67	5.67	4.67	6.67	3.67	13.67	6.67	3.67	1.67	1.67	7.67	3.67	1.67	4.67	2.67
1980	128.03	9.67	1.33	4.33	2.33	-1.67	-3.67	-2.67	0.33	4.33	4.33	3.33	8.33	0.33	0.33	-0.67	1.33	-1.67	3.33	4.33	-2.67	-2.67	7.33	2.33	5.33	3.33	0.33	3.33
1987	128.51	7.0	3.0	7.0	2.0	-3.0	5.0	1.0	3.0	7.0	6.0	-2.0	7.0	6.0	6.0	3.0	7.0	5.0	5.0	3.0	8.0	3.0	5.0	3.0	3.0	5.0	9.0	11.0
1994	128.99	10.0	-2.0	2.0	-2.0	2.0	3.0	-2.0	5.0	10.0	-2.0	-6.0	-4.0	-4.0	-2.0	-4.0	-4.0	-2.0	-1.0	-1.0	4.0	-2.0	2.0	4.0	0.0	3.0	-2.0	4.0
2001	129.471	10.0	-3.0	3.0	1.0	-1.0	2.0	1.0	-4.0	2.0	-3.0	6.0	-3.0	-5.0	-1.0	-2.0	1.0	-1.0	5.0	2.0	8.0	2.0	1.0	8.0	1.0	-3.0	4.0	0.0
2008	129.952	10.0	-6.0	2.0	-1.0	-3.0	2.0	-1.0	2.0	-2.0	5.0	1.0	-5.0	5.0	1.0	-2.0	2.0	-1.0	4.0	-5.0	-2.0	-2.0	4.0	3.0	-6.0	-3.0	1.0	-1.0
2015	130.433	8.0	1.0	-3.0	1.0	2.0	4.0	3.0	4.0	0.0	4.0	-6.0	-3.0	7.0	-2.0	5.0	3.0	6.0	0.0	1.0	5.0	4.0	-1.0	3.0	2.0	-2.0	4.0	4.0
2022	130.915	7.67	0.33	4.33	-1.67	0.33	8.33	2.33	-2.67	-3.67	3.33	-1.67	4.33	4.33	-1.67	-0.67	7.33	2.33	0.33	-1.67	3.33	6.33	4.33	4.33	1.33	0.33	8.33	2.33
2029	131.397	8.0	3.0	1.0	3.0	-2.0	6.0	2.0	1.0	-1.0	-1.0	0.0	5.0	11.0	6.0	3.0	4.0	5.0	1.0	-1.0	2.0	5.0	0.0	7.0	2.0	0.0	5.0	9.0
2036	131.879	7.0	0.0	1.0	4.0	-1.0	1.0	-4.0	-1.0	-3.0	0.0	4.0	0.0	4.0	2.0	5.0	1.0	0.0	3.0	0.0	3.0	3.0	4.0	4.0	5.0	0.0	0.0	10.0
2043	132.362	10.67	1.33	-4.67	-2.67	-6.67	-4.67	-7.67	-3.67	-2.67	-6.67	7.33	-3.67	-5.67	-1.67	3.33	-3.67	-2.67	-0.67	-6.67	1.33	-5.67	-1.67	-3.67	1.33	1.33	-3.67	-7.67
2047	132.638	5.67	2.33	5.33	3.33	3.33	-0.67	1.33	-0.67	1.33	3.33	4.33	0.33	4.33	-0.67	4.33	7.33	2.33	5.33	2.33	1.33	-0.67	1.33	0.33	3.33	3.33	1.33	0.33