File: EDX Back Ups and Old Files/EDX Processed Data/Low pH SF Ref.txt
Name: Low pH SF Ref
Number of Scans: 29
Positions: [-13.0, -12.75, -12.5, -12.25, -12.0, -11.75, -11.5, -11.25, -11.0, -10.75, -10.5, -10.25, -10.0, -9.75, -9.5, -9.25, -9.0, -8.75, -8.5, -8.25, -8.0, -7.75, -7.5, -7.25, -7.0, -6.75, -6.5, -6.25, -6.0]
Points per Scan: 2048
Sample Edge: 3
Scans Off Sample: [0, 1, 2]
Conversion Features: [(275, 17444.3), (309, 19608.3), (913, 57981.7), (934, 59318.24), (1058, 67244.3)]
Degree of Fit: 3
Fit Coeffecients: [ 8.59183e-07 -0.001482  64.3003 -144.207]
pH: Low
Steel Fiber: True
Aging Temp.: 25
Aging Atm.: 100% CO2
Aging Humidity: None
Aging Time: 0

*********
#Bins	Energy [keV]	Avg. Background	-12.25	-12.0	-11.75	-11.5	-11.25	-11.0	-10.75	-10.5	-10.25	-10.0	-9.75	-9.5	-9.25	-9.0	-8.75	-8.5	-8.25	-8.0	-7.75	-7.5	-7.25	-7.0	-6.75	-6.5	-6.25	-6.0
6	0.242	1862.67	-90.67	-74.67	12.33	13.33	-18.67	-86.67	-52.67	-49.67	-48.67	-83.67	-5.67	46.33	-100.67	-63.67	-75.67	-36.67	-88.67	-24.67	-175.67	-50.67	-31.67	-47.67	-4.67	-38.67	-105.67	-211.67
13	0.691	1237.33	-26.33	-65.33	-42.33	30.67	2.67	12.67	-43.33	-86.33	-113.33	-10.33	29.67	-32.33	-44.33	-68.33	-19.33	-33.33	18.67	29.67	-73.33	-105.33	-57.33	-55.33	36.67	-32.33	-17.33	-38.33
20	1.141	292.33	-2.33	37.67	0.67	37.67	18.67	27.67	-0.33	-20.33	-23.33	-7.33	24.67	28.67	1.67	19.67	-3.33	22.67	36.67	36.67	7.67	-0.33	32.67	28.67	30.67	33.67	14.67	13.67
27	1.591	54.0	1.0	3.0	1.0	11.0	3.0	-16.0	-3.0	-8.0	-16.0	2.0	-7.0	-14.0	-8.0	-5.0	10.0	-17.0	-6.0	-11.0	-13.0	-1.0	-16.0	-7.0	2.0	-2.0	-12.0	-5.0
34	2.04	4.67	4.33	1.33	0.33	2.33	2.33	5.33	-1.67	3.33	3.33	0.33	4.33	1.33	-1.67	4.33	3.33	0.33	6.33	4.33	3.33	-2.67	2.33	-1.67	1.33	4.33	-0.67	1.33
41	2.49	0.33	-0.33	0.67	2.67	-0.33	-0.33	1.67	0.67	0.67	-0.33	1.67	0.67	-0.33	0.67	-0.33	0.67	-0.33	0.67	0.67	0.67	-0.33	1.67	0.67	1.67	-0.33	1.67	1.67
48	2.939	0.67	-0.67	-0.67	-0.67	-0.67	-0.67	-0.67	-0.67	2.33	-0.67	-0.67	-0.67	-0.67	-0.67	-0.67	-0.67	0.33	0.33	0.33	0.33	0.33	-0.67	0.33	-0.67	-0.67	0.33	0.33
55	3.388	0.33	-0.33	-0.33	-0.33	-0.33	-0.33	-0.33	0.67	-0.33	0.67	-0.33	0.67	-0.33	0.67	0.67	0.67	-0.33	-0.33	0.67	-0.33	-0.33	0.67	-0.33	0.67	-0.33	-0.33	1.67
62	3.837	0.67	0.33	0.33	0.33	-0.67	-0.67	-0.67	0.33	0.33	0.33	-0.67	-0.67	-0.67	-0.67	-0.67	0.33	0.33	-0.67	-0.67	-0.67	-0.67	-0.67	-0.67	-0.67	1.33	-0.67	-0.67
69	4.286	0.33	-0.33	-0.33	-0.33	0.67	0.67	1.67	-0.33	-0.33	0.67	1.67	0.67	-0.33	-0.33	2.67	-0.33	-0.33	-0.33	0.67	-0.33	-0.33	-0.33	-0.33	1.67	0.67	-0.33	1.67
76	4.734	0.33	0.67	-0.33	-0.33	1.67	0.67	-0.33	-0.33	-0.33	-0.33	-0.33	-0.33	-0.33	-0.33	-0.33	-0.33	-0.33	-0.33	-0.33	-0.33	-0.33	-0.33	-0.33	-0.33	-0.33	0.67	-0.33
83	5.183	0.33	-0.33	0.67	-0.33	0.67	-0.33	-0.33	0.67	0.67	-0.33	-0.33	-0.33	-0.33	-0.33	0.67	-0.33	-0.33	0.67	-0.33	-0.33	2.67	-0.33	0.67	-0.33	-0.33	1.67	0.67
90	5.631	0.67	-0.67	0.33	0.33	-0.67	-0.67	-0.67	-0.67	-0.67	-0.67	0.33	-0.67	0.33	0.33	2.33	0.33	2.33	-0.67	-0.67	-0.67	0.33	1.33	-0.67	1.33	1.33	0.33	0.33
97	6.08	1.0	-1.0	0.0	0.0	-1.0	0.0	-1.0	4.0	2.0	-1.0	0.0	-1.0	-1.0	0.0	0.0	0.0	1.0	1.0	0.0	0.0	1.0	-1.0	0.0	-1.0	0.0	2.0	-1.0
104	6.528	0.67	2.33	0.33	-0.67	-0.67	0.33	-0.67	0.33	0.33	2.33	-0.67	0.33	-0.67	1.33	0.33	0.33	-0.67	2.33	-0.67	1.33	0.33	-0.67	-0.67	1.33	-0.67	1.33	1.33
111	6.976	2.67	-1.67	-0.67	-2.67	-0.67	-0.67	-0.67	0.33	0.33	1.33	3.33	-0.67	-1.67	-0.67	1.33	-0.67	1.33	-1.67	0.33	0.33	-1.67	0.33	-2.67	-1.67	-1.67	2.33	2.33
118	7.424	2.67	0.33	2.33	-1.67	1.33	-0.67	4.33	-0.67	5.33	1.33	-1.67	3.33	-0.67	1.33	-0.67	0.33	1.33	0.33	3.33	3.33	-1.67	1.33	-0.67	0.33	2.33	3.33	-1.67
125	7.872	2.33	-0.33	0.67	0.67	0.67	5.67	2.67	2.67	2.67	6.67	1.67	6.67	1.67	-0.33	4.67	2.67	5.67	0.67	4.67	-0.33	5.67	2.67	-1.33	1.67	7.67	1.67	2.67
132	8.32	6.0	3.0	-3.0	-2.0	1.0	10.0	4.0	1.0	-2.0	2.0	-1.0	-2.0	3.0	0.0	1.0	0.0	-1.0	0.0	-2.0	2.0	1.0	4.0	-1.0	2.0	0.0	0.0	2.0
139	8.767	6.0	1.0	1.0	3.0	0.0	4.0	0.0	3.0	5.0	2.0	4.0	1.0	3.0	3.0	8.0	1.0	4.0	-2.0	6.0	6.0	7.0	4.0	2.0	4.0	2.0	5.0	6.0
146	9.215	8.0	-2.0	6.0	8.0	0.0	2.0	3.0	3.0	-1.0	-1.0	-5.0	3.0	2.0	5.0	5.0	3.0	8.0	0.0	3.0	4.0	5.0	0.0	3.0	0.0	-1.0	4.0	1.0
153	9.662	9.67	1.33	2.33	-6.67	5.33	3.33	-2.67	3.33	5.33	-5.67	2.33	2.33	-7.67	7.33	4.33	-1.67	3.33	-1.67	5.33	4.33	-0.67	2.33	4.33	3.33	1.33	3.33	-1.67
160	10.109	9.0	2.0	1.0	0.0	-3.0	2.0	2.0	2.0	-2.0	3.0	0.0	4.0	1.0	-1.0	2.0	4.0	4.0	2.0	0.0	3.0	6.0	8.0	3.0	7.0	5.0	4.0	3.0
167	10.557	10.0	2.0	3.0	2.0	-1.0	-3.0	5.0	1.0	6.0	-1.0	2.0	1.0	6.0	5.0	5.0	0.0	2.0	11.0	4.0	9.0	6.0	9.0	6.0	0.0	2.0	3.0	-1.0
174	11.004	10.67	-0.67	-4.67	1.33	4.33	-1.67	6.33	0.33	2.33	0.33	-0.67	-4.67	6.33	7.33	-3.67	1.33	4.33	1.33	1.33	-1.67	0.33	4.33	7.33	7.33	4.33	8.33	-1.67
181	11.451	8.67	2.33	0.33	3.33	4.33	5.33	0.33	0.33	1.33	0.33	7.33	7.33	1.33	8.33	3.33	5.33	2.33	2.33	6.33	7.33	11.33	7.33	7.33	3.33	-2.67	-1.67	5.33
188	11.898	8.67	2.33	7.33	4.33	1.33	9.33	3.33	0.33	2.33	3.33	1.33	6.33	2.33	6.33	0.33	0.33	6.33	9.33	4.33	9.33	8.33	-2.67	11.33	0.33	7.33	7.33	7.33
195	12.344	8.33	7.67	7.67	2.67	1.67	4.67	0.67	1.67	3.67	2.67	-0.33	3.67	3.67	9.67	8.67	8.67	-0.33	0.67	7.67	4.67	4.67	-1.33	2.67	9.67	-1.33	7.67	5.67
202	12.791	10.67	-0.67	0.33	6.33	1.33	-1.67	-0.67	6.33	10.33	6.33	3.33	6.33	-1.67	3.33	0.33	2.33	-3.67	2.33	0.33	0.33	7.33	-3.67	7.33	2.33	5.33	2.33	-1.67
209	13.238	8.67	-3.67	-1.67	-2.67	1.33	7.33	15.33	1.33	3.33	6.33	3.33	2.33	-0.67	7.33	4.33	2.33	6.33	5.33	0.33	8.33	3.33	10.33	1.33	1.33	8.33	7.33	4.33
216	13.684	8.67	1.33	5.33	4.33	2.33	1.33	8.33	8.33	6.33	5.33	-0.67	5.33	1.33	0.33	2.33	5.33	2.33	4.33	6.33	1.33	8.33	7.33	-0.67	2.33	9.33	2.33	0.33
223	14.131	6.33	4.67	0.67	8.67	8.67	11.67	6.67	5.67	0.67	5.67	9.67	0.67	4.67	7.67	4.67	11.67	8.67	10.67	7.67	1.67	2.67	14.67	1.67	3.67	3.67	8.67	1.67
230	14.577	10.67	-0.67	1.33	1.33	1.33	-1.67	0.33	-1.67	3.33	5.33	4.33	2.33	-0.67	-4.67	4.33	2.33	5.33	-3.67	0.33	8.33	2.33	1.33	5.33	8.33	1.33	-4.67	-0.67
237	15.023	7.33	12.67	5.67	2.67	1.67	1.67	6.67	1.67	8.67	6.67	6.67	4.67	-1.33	6.67	0.67	1.67	4.67	-0.33	10.67	5.67	3.67	1.67	5.67	11.67	9.67	12.67	4.67
244	15.469	10.33	0.67	0.67	3.67	0.67	-0.33	-1.33	1.67	7.67	4.67	-2.33	1.67	1.67	4.67	0.67	1.67	2.67	0.67	2.67	1.67	3.67	7.67	7.67	8.67	2.67	1.67	2.67
251	15.915	5.67	8.33	5.33	5.33	7.33	5.33	8.33	5.33	5.33	5.33	5.33	2.33	4.33	5.33	0.33	1.33	7.33	3.33	3.33	3.33	7.33	4.33	6.33	10.33	5.33	2.33	6.33
258	16.361	7.67	5.33	6.33	2.33	7.33	9.33	3.33	7.33	3.33	5.33	10.33	4.33	3.33	-1.67	1.33	3.33	3.33	7.33	3.33	2.33	6.33	4.33	9.33	4.33	4.33	5.33	7.33
265	16.807	8.67	-4.67	2.33	7.33	5.33	6.33	5.33	9.33	3.33	0.33	4.33	-4.67	10.33	2.33	3.33	1.33	8.33	2.33	1.33	-0.67	4.33	3.33	1.33	6.33	3.33	3.33	4.33
272	17.253	11.0	3.0	-2.0	0.0	-3.0	5.0	2.0	7.0	1.0	-3.0	1.0	-4.0	6.0	7.0	0.0	8.0	0.0	4.0	-2.0	-2.0	-2.0	8.0	1.0	3.0	-2.0	-1.0	3.0
279	17.699	8.33	1.67	4.67	0.67	5.67	1.67	1.67	9.67	1.67	4.67	9.67	8.67	6.67	6.67	3.67	1.67	-0.33	8.67	2.67	10.67	5.67	2.67	3.67	1.67	-2.33	5.67	2.67
286	18.145	9.0	3.0	1.0	-2.0	1.0	1.0	7.0	4.0	1.0	-3.0	9.0	8.0	2.0	3.0	5.0	2.0	-2.0	0.0	0.0	4.0	3.0	3.0	2.0	1.0	5.0	5.0	1.0
293	18.59	9.33	-1.33	-1.33	-1.33	3.67	2.67	5.67	1.67	4.67	2.67	-0.33	-4.33	1.67	13.67	-3.33	7.67	-0.33	1.67	3.67	-1.33	0.67	4.67	-0.33	5.67	-0.33	3.67	3.67
300	19.036	6.67	3.33	2.33	4.33	3.33	11.33	3.33	4.33	1.33	6.33	1.33	0.33	2.33	4.33	6.33	4.33	-2.67	2.33	7.33	7.33	9.33	9.33	2.33	6.33	8.33	5.33	3.33
307	19.481	9.67	-4.67	0.33	2.33	4.33	3.33	-0.67	-5.67	4.33	0.33	2.33	1.33	0.33	0.33	1.33	-1.67	1.33	-0.67	3.33	-1.67	5.33	2.33	-0.67	-4.67	2.33	10.33	3.33
314	19.927	9.67	4.33	-0.67	3.33	-3.67	6.33	2.33	-0.67	3.33	2.33	1.33	4.33	-0.67	0.33	-1.67	5.33	-3.67	4.33	1.33	7.33	8.33	5.33	-0.67	1.33	-0.67	6.33	8.33
321	20.372	10.67	-2.67	-1.67	-0.67	0.33	3.33	-2.67	-2.67	-4.67	3.33	0.33	-5.67	0.33	6.33	-3.67	-1.67	-3.67	-3.67	4.33	6.33	7.33	6.33	4.33	2.33	-1.67	-1.67	0.33
328	20.817	6.0	2.0	8.0	5.0	4.0	-2.0	15.0	7.0	2.0	7.0	-1.0	3.0	8.0	3.0	3.0	1.0	9.0	4.0	11.0	4.0	1.0	4.0	9.0	7.0	9.0	9.0	1.0
335	21.262	10.67	-3.67	2.33	1.33	2.33	1.33	0.33	-5.67	2.33	-0.67	4.33	-0.67	5.33	2.33	2.33	1.33	-1.67	6.33	2.33	-0.67	6.33	2.33	2.33	8.33	4.33	1.33	6.33
342	21.708	8.0	-3.0	-3.0	2.0	-5.0	1.0	2.0	4.0	3.0	0.0	5.0	2.0	0.0	6.0	6.0	3.0	6.0	1.0	-2.0	3.0	5.0	5.0	2.0	-4.0	2.0	2.0	8.0
349	22.153	8.0	3.0	-2.0	2.0	3.0	2.0	1.0	-1.0	2.0	0.0	1.0	7.0	-1.0	0.0	0.0	-1.0	5.0	5.0	7.0	6.0	-1.0	-1.0	8.0	0.0	0.0	6.0	8.0
356	22.598	10.33	0.67	-5.33	-1.33	0.67	1.67	-1.33	4.67	-1.33	-0.33	3.67	0.67	4.67	1.67	0.67	-3.33	0.67	0.67	1.67	0.67	-2.33	0.67	-0.33	5.67	2.67	-0.33	7.67
363	23.043	6.33	3.67	1.67	8.67	0.67	2.67	3.67	5.67	8.67	4.67	3.67	-3.33	3.67	3.67	6.67	4.67	4.67	0.67	6.67	10.67	11.67	-1.33	5.67	6.67	7.67	1.67	3.67
370	23.488	11.33	-3.33	-4.33	2.67	-3.33	-1.33	-7.33	-1.33	2.67	-3.33	-0.33	-3.33	-3.33	3.67	-6.33	0.67	-4.33	-6.33	-0.33	-2.33	0.67	-4.33	-0.33	3.67	5.67	1.67	-0.33
377	23.932	11.33	3.67	-2.33	-3.33	-5.33	-0.33	1.67	0.67	-1.33	-4.33	-2.33	-0.33	-3.33	0.67	-6.33	1.67	-2.33	6.67	-9.33	-1.33	3.67	-3.33	-7.33	-3.33	0.67	1.67	2.67
384	24.377	9.0	-6.0	1.0	0.0	-1.0	-1.0	0.0	-3.0	-2.0	-1.0	-1.0	-6.0	-1.0	5.0	1.0	0.0	4.0	8.0	2.0	5.0	4.0	-1.0	-2.0	1.0	-2.0	-1.0	2.0
391	24.822	8.33	-2.33	-0.33	5.67	-1.33	-0.33	3.67	5.67	-0.33	1.67	1.67	1.67	0.67	2.67	0.67	-0.33	-2.33	-0.33	-0.33	-0.33	7.67	-1.33	-2.33	1.67	-1.33	2.67	2.67
398	25.267	10.67	2.33	-0.67	-1.67	-3.67	-0.67	-7.67	0.33	-2.67	-2.67	-0.67	5.33	-0.67	-3.67	-0.67	2.33	3.33	3.33	6.33	9.33	2.33	-5.67	7.33	2.33	0.33	5.33	-1.67
405	25.711	7.0	-1.0	-1.0	-2.0	3.0	2.0	-5.0	3.0	1.0	5.0	4.0	-2.0	4.0	-2.0	-4.0	4.0	8.0	4.0	3.0	6.0	2.0	3.0	6.0	9.0	6.0	2.0	8.0
412	26.156	6.67	1.33	-0.67	-0.67	1.33	-1.67	8.33	-1.67	-1.67	3.33	1.33	4.33	7.33	2.33	6.33	1.33	0.33	-4.67	1.33	2.33	12.33	4.33	5.33	0.33	3.33	3.33	5.33
419	26.601	8.33	-3.33	3.67	2.67	5.67	2.67	-4.33	-2.33	-2.33	-3.33	4.67	3.67	-1.33	-0.33	1.67	2.67	-4.33	6.67	-1.33	2.67	1.67	5.67	0.67	2.67	-1.33	3.67	3.67
426	27.045	7.67	-1.67	-0.67	-2.67	-1.67	5.33	0.33	-0.67	1.33	4.33	2.33	-0.67	1.33	-4.67	4.33	0.33	0.33	1.33	2.33	-3.67	-0.67	1.33	-2.67	7.33	6.33	6.33	3.33
433	27.49	6.33	-1.33	-0.33	-1.33	1.67	-1.33	0.67	5.67	8.67	2.67	6.67	-2.33	1.67	4.67	0.67	2.67	2.67	0.67	0.67	-2.33	5.67	-0.33	-3.33	-2.33	3.67	1.67	0.67
440	27.934	6.33	4.67	0.67	1.67	-1.33	1.67	3.67	2.67	-2.33	5.67	-0.33	0.67	0.67	1.67	9.67	1.67	1.67	0.67	10.67	0.67	0.67	0.67	-1.33	0.67	-2.33	2.67	3.67
447	28.379	6.67	0.33	-6.67	-4.67	2.33	5.33	2.33	3.33	7.33	0.33	3.33	6.33	3.33	2.33	1.33	1.33	5.33	6.33	-1.67	-1.67	-1.67	-3.67	2.33	7.33	1.33	4.33	4.33
454	28.823	7.0	-1.0	-1.0	-1.0	-2.0	1.0	1.0	-1.0	0.0	4.0	-4.0	1.0	2.0	1.0	0.0	7.0	-1.0	-3.0	6.0	-1.0	4.0	-1.0	-1.0	5.0	-2.0	1.0	3.0
461	29.267	4.33	0.67	3.67	3.67	2.67	-2.33	4.67	6.67	5.67	5.67	5.67	1.67	0.67	0.67	3.67	3.67	1.67	9.67	0.67	4.67	1.67	8.67	4.67	2.67	4.67	4.67	2.67
468	29.712	5.0	1.0	1.0	-1.0	1.0	2.0	2.0	6.0	0.0	3.0	9.0	-2.0	1.0	3.0	2.0	5.0	1.0	5.0	1.0	-3.0	2.0	2.0	3.0	6.0	1.0	3.0	2.0
475	30.156	5.33	-4.33	2.67	5.67	0.67	-2.33	0.67	3.67	-0.33	0.67	-2.33	-2.33	0.67	0.67	1.67	3.67	0.67	0.67	5.67	2.67	2.67	1.67	2.67	3.67	2.67	-0.33	0.67
482	30.6	4.67	-2.67	8.33	5.33	0.33	1.33	-0.67	3.33	0.33	-0.67	0.33	0.33	3.33	6.33	0.33	3.33	4.33	2.33	1.33	2.33	4.33	0.33	3.33	-0.67	1.33	4.33	-0.67
489	31.045	6.33	-3.33	-0.33	0.67	0.67	0.67	-0.33	-0.33	1.67	0.67	-1.33	-0.33	7.67	0.67	-0.33	-0.33	-3.33	0.67	5.67	-1.33	6.67	-2.33	-0.33	-0.33	-1.33	3.67	-0.33
496	31.489	6.0	-4.0	0.0	-2.0	-3.0	2.0	0.0	5.0	2.0	2.0	2.0	0.0	0.0	-1.0	-3.0	0.0	6.0	4.0	-1.0	5.0	13.0	0.0	3.0	0.0	-2.0	0.0	4.0
503	31.933	5.67	0.33	-1.67	0.33	2.33	4.33	-1.67	2.33	-0.67	-0.67	10.33	-1.67	-1.67	1.33	-2.67	2.33	-3.67	3.33	1.33	-2.67	2.33	4.33	5.33	7.33	-1.67	2.33	-1.67
510	32.377	4.0	4.0	1.0	3.0	2.0	3.0	3.0	3.0	8.0	2.0	0.0	2.0	5.0	4.0	9.0	6.0	4.0	1.0	6.0	3.0	0.0	1.0	1.0	1.0	6.0	-1.0	4.0
517	32.822	4.0	7.0	1.0	1.0	-1.0	0.0	-1.0	2.0	3.0	-3.0	2.0	2.0	-2.0	7.0	1.0	-2.0	8.0	4.0	4.0	4.0	2.0	-1.0	2.0	3.0	2.0	-1.0	2.0
524	33.266	3.67	5.33	1.33	2.33	0.33	2.33	1.33	3.33	0.33	1.33	1.33	1.33	2.33	4.33	5.33	5.33	4.33	2.33	-1.67	-0.67	0.33	2.33	2.33	6.33	6.33	4.33	6.33
531	33.71	5.67	-0.67	-2.67	2.33	0.33	-3.67	-0.67	3.33	-1.67	-0.67	-4.67	-3.67	0.33	0.33	8.33	-1.67	4.33	5.33	1.33	2.33	-0.67	3.33	3.33	0.33	-1.67	0.33	3.33
538	34.154	6.67	-1.67	-2.67	3.33	-3.67	3.33	-0.67	0.33	-3.67	0.33	1.33	-0.67	-0.67	1.33	1.33	-1.67	-3.67	3.33	-2.67	-3.67	-3.67	1.33	-3.67	2.33	-2.67	-2.67	-3.67
545	34.598	4.67	1.33	4.33	0.33	-1.67	0.33	2.33	2.33	0.33	4.33	1.33	0.33	-1.67	2.33	-2.67	0.33	2.33	4.33	4.33	3.33	1.33	0.33	4.33	8.33	2.33	1.33	1.33
552	35.043	6.33	-2.33	2.67	-1.33	-2.33	0.67	-1.33	-0.33	-1.33	0.67	1.67	-1.33	-3.33	-0.33	1.67	1.67	-0.33	2.67	-2.33	3.67	-0.33	1.67	1.67	-3.33	2.67	-0.33	1.67
559	35.487	3.67	2.33	0.33	3.33	0.33	3.33	2.33	2.33	0.33	2.33	5.33	0.33	0.33	1.33	0.33	0.33	1.33	2.33	1.33	4.33	7.33	1.33	1.33	1.33	-2.67	1.33	4.33
566	35.931	4.33	-0.33	0.67	3.67	0.67	5.67	1.67	2.67	1.67	1.67	0.67	-1.33	0.67	7.67	3.67	1.67	-0.33	1.67	0.67	2.67	-0.33	-0.33	5.67	3.67	3.67	5.67	1.67
573	36.375	4.33	3.67	-0.33	-0.33	3.67	6.67	4.67	1.67	1.67	4.67	4.67	2.67	0.67	2.67	1.67	0.67	1.67	-4.33	2.67	1.67	3.67	1.67	-0.33	0.67	6.67	-0.33	0.67
580	36.819	2.33	0.67	1.67	9.67	3.67	3.67	2.67	6.67	6.67	7.67	1.67	-1.33	2.67	-0.33	1.67	3.67	5.67	2.67	3.67	3.67	1.67	1.67	6.67	1.67	9.67	4.67	3.67
587	37.263	5.33	7.67	0.67	-3.33	-1.33	-1.33	-1.33	-1.33	0.67	1.67	-0.33	2.67	-0.33	-2.33	0.67	2.67	-0.33	-1.33	3.67	-0.33	-3.33	-2.33	5.67	4.67	3.67	-2.33	-2.33
594	37.707	6.33	-2.33	-3.33	-4.33	-3.33	1.67	2.67	-2.33	-3.33	-0.33	-4.33	-4.33	1.67	-4.33	0.67	-1.33	-1.33	3.67	-1.33	-2.33	-4.33	-2.33	-0.33	-3.33	-0.33	-1.33	2.67
601	38.152	2.67	4.33	6.33	4.33	2.33	7.33	5.33	0.33	5.33	3.33	0.33	-1.67	4.33	1.33	-0.67	3.33	4.33	1.33	0.33	-0.67	5.33	-0.67	6.33	5.33	8.33	1.33	4.33
608	38.596	5.67	3.33	-2.67	1.33	-3.67	-2.67	-1.67	1.33	1.33	-2.67	-1.67	0.33	-0.67	-1.67	-4.67	7.33	2.33	-1.67	3.33	1.33	2.33	-0.67	-2.67	-1.67	6.33	0.33	-1.67
615	39.04	6.33	1.67	4.67	-3.33	-2.33	-1.33	-1.33	-2.33	1.67	-5.33	-0.33	0.67	0.67	-2.33	-3.33	3.67	-1.33	1.67	-2.33	-2.33	-3.33	-1.33	-0.33	0.67	2.67	-2.33	-1.33
622	39.484	6.67	-0.67	-0.67	-3.67	-1.67	-2.67	4.33	-2.67	1.33	2.33	-1.67	-1.67	4.33	-2.67	-1.67	0.33	-1.67	2.33	-1.67	0.33	0.33	1.33	0.33	2.33	-3.67	4.33	-3.67
629	39.928	7.0	0.0	-5.0	0.0	-4.0	0.0	-2.0	-2.0	-1.0	-1.0	-2.0	-1.0	3.0	-2.0	-2.0	0.0	-2.0	-6.0	0.0	1.0	-3.0	-4.0	2.0	-1.0	0.0	-2.0	1.0
636	40.372	6.33	-2.33	0.67	-2.33	-3.33	-0.33	0.67	-2.33	0.67	1.67	1.67	-0.33	-2.33	0.67	-0.33	-4.33	-3.33	-2.33	-1.33	-4.33	-4.33	-0.33	2.67	-0.33	-1.33	-1.33	1.67
643	40.817	3.33	1.67	-1.33	-0.33	6.67	2.67	3.67	-0.33	-0.33	1.67	4.67	1.67	3.67	0.67	-2.33	0.67	5.67	4.67	0.67	0.67	-0.33	3.67	5.67	-1.33	2.67	2.67	4.67
650	41.261	8.0	0.0	-5.0	3.0	-3.0	-2.0	0.0	-2.0	-1.0	-4.0	-5.0	-3.0	-4.0	5.0	-6.0	-2.0	-3.0	-1.0	-1.0	3.0	-3.0	-7.0	-3.0	-3.0	0.0	1.0	-1.0
657	41.705	4.67	-0.67	3.33	1.33	0.33	3.33	3.33	-0.67	1.33	6.33	4.33	1.33	-1.67	-0.67	1.33	1.33	1.33	-2.67	-3.67	-2.67	3.33	3.33	-0.67	4.33	2.33	1.33	4.33
664	42.149	5.33	0.67	-0.33	-2.33	1.67	-1.33	-1.33	5.67	-2.33	-1.33	6.67	1.67	-1.33	-1.33	2.67	2.67	-0.33	-0.33	1.67	-3.33	-1.33	0.67	-1.33	3.67	-4.33	1.67	3.67
671	42.594	4.67	-0.67	1.33	-0.67	3.33	-0.67	2.33	4.33	-0.67	-1.67	-1.67	-2.67	-1.67	2.33	1.33	5.33	5.33	1.33	0.33	-0.67	0.33	-0.67	1.33	6.33	1.33	-0.67	6.33
678	43.038	7.67	-5.67	0.33	-2.67	-1.67	3.33	0.33	5.33	-5.67	-0.67	-3.67	-0.67	1.33	-1.67	-3.67	-2.67	3.33	0.33	1.33	0.33	-2.67	-1.67	-0.67	-2.67	-0.67	2.33	0.33
685	43.482	4.0	1.0	7.0	-1.0	5.0	5.0	4.0	2.0	3.0	3.0	7.0	4.0	-1.0	10.0	4.0	4.0	7.0	5.0	5.0	3.0	6.0	6.0	2.0	-3.0	5.0	0.0	1.0
692	43.927	5.0	-2.0	2.0	1.0	3.0	4.0	3.0	4.0	0.0	8.0	0.0	6.0	1.0	6.0	1.0	5.0	-4.0	-1.0	3.0	-1.0	2.0	5.0	1.0	10.0	6.0	4.0	3.0
699	44.371	6.67	-2.67	-3.67	-4.67	0.33	-2.67	0.33	1.33	5.33	1.33	0.33	-3.67	2.33	0.33	-0.67	0.33	0.33	-1.67	3.33	2.33	0.33	1.33	-0.67	-1.67	-3.67	-0.67	-4.67
706	44.815	6.67	1.33	-1.67	0.33	3.33	7.33	-1.67	0.33	-2.67	0.33	3.33	2.33	-0.67	2.33	3.33	3.33	2.33	-0.67	3.33	-0.67	1.33	-1.67	1.33	2.33	1.33	-1.67	-4.67
713	45.26	7.33	-4.33	-0.33	-1.33	1.67	6.67	4.67	5.67	0.67	-0.33	-5.33	-2.33	5.67	3.67	1.67	2.67	0.67	-0.33	-0.33	0.67	5.67	4.67	1.67	0.67	1.67	-0.33	0.67
720	45.704	7.67	-1.67	1.33	-0.67	5.33	1.33	2.33	2.33	5.33	0.33	-2.67	-0.67	1.33	-0.67	-5.67	4.33	0.33	0.33	-3.67	-1.67	-0.67	5.33	2.33	0.33	0.33	0.33	2.33
727	46.149	6.67	-0.67	-3.67	5.33	4.33	3.33	-3.67	3.33	0.33	2.33	3.33	-1.67	-2.67	2.33	-0.67	0.33	-0.67	2.33	3.33	3.33	-3.67	-0.67	2.33	3.33	-2.67	8.33	2.33
734	46.594	10.67	-5.67	-2.67	-7.67	1.33	-8.67	-3.67	-1.67	-6.67	-3.67	-5.67	-1.67	-5.67	-4.67	0.33	-5.67	-3.67	-4.67	-0.67	-6.67	2.33	0.33	-0.67	-3.67	-5.67	-7.67	-2.67
741	47.038	6.0	2.0	1.0	5.0	4.0	6.0	2.0	0.0	3.0	9.0	3.0	4.0	4.0	-3.0	-1.0	0.0	1.0	-2.0	0.0	2.0	5.0	0.0	0.0	-1.0	-2.0	4.0	0.0
748	47.483	8.67	5.33	-4.67	0.33	4.33	-1.67	-1.67	-2.67	1.33	-5.67	-0.67	-1.67	0.33	-3.67	-1.67	-4.67	-4.67	-2.67	-4.67	3.33	-0.67	-1.67	-0.67	0.33	2.33	-2.67	-2.67
755	47.928	6.33	3.67	5.67	-1.33	1.67	0.67	1.67	-0.33	0.67	0.67	7.67	5.67	1.67	5.67	1.67	5.67	3.67	5.67	-2.33	1.67	5.67	-0.33	-1.33	-1.33	1.67	4.67	8.67
762	48.372	4.67	7.33	3.33	11.33	8.33	12.33	7.33	1.33	6.33	1.33	1.33	2.33	4.33	7.33	2.33	1.33	4.33	3.33	3.33	8.33	1.33	7.33	5.33	8.33	1.33	4.33	3.33
769	48.817	8.0	0.0	-3.0	-3.0	-3.0	3.0	3.0	5.0	8.0	8.0	1.0	5.0	2.0	-4.0	6.0	-5.0	6.0	3.0	3.0	1.0	-2.0	-2.0	-5.0	0.0	3.0	6.0	-6.0
776	49.262	11.33	-1.33	-4.33	-7.33	-1.33	-2.33	1.67	-0.33	-6.33	-3.33	-7.33	-6.33	-1.33	-0.33	1.67	-5.33	0.67	-3.33	-6.33	-4.33	-1.33	-3.33	-1.33	-3.33	-0.33	-3.33	0.67
783	49.707	10.33	0.67	-1.33	-5.33	-3.33	6.67	-1.33	1.67	0.67	1.67	0.67	2.67	-2.33	1.67	-2.33	0.67	-2.33	2.67	-3.33	0.67	-2.33	0.67	-0.33	-0.33	-3.33	-0.33	-6.33
790	50.152	9.33	0.67	3.67	-1.33	2.67	6.67	1.67	-1.33	4.67	1.67	1.67	3.67	5.67	1.67	0.67	8.67	-6.33	-0.33	5.67	0.67	-1.33	4.67	0.67	0.67	1.67	1.67	-3.33
797	50.597	8.0	-2.0	2.0	2.0	8.0	5.0	4.0	1.0	-3.0	10.0	4.0	1.0	4.0	6.0	0.0	-2.0	-1.0	6.0	4.0	2.0	5.0	8.0	-2.0	8.0	5.0	6.0	0.0
804	51.042	8.33	1.67	0.67	1.67	2.67	9.67	-0.33	6.67	6.67	-0.33	3.67	0.67	1.67	7.67	5.67	8.67	-0.33	1.67	1.67	1.67	4.67	-0.33	0.67	1.67	1.67	-5.33	3.67
811	51.487	9.67	-0.67	-0.67	4.33	5.33	8.33	5.33	9.33	4.33	2.33	4.33	1.33	3.33	9.33	1.33	-3.67	6.33	-0.67	10.33	-1.67	2.33	5.33	0.33	2.33	1.33	-0.67	-1.67
818	51.932	14.67	-6.67	-3.67	-1.67	-3.67	-4.67	-5.67	6.33	1.33	-5.67	4.33	-5.67	-1.67	-5.67	-0.67	-3.67	-4.67	-7.67	-4.67	4.33	-7.67	-6.67	0.33	-4.67	3.33	-5.67	-2.67
825	52.377	12.67	-3.67	-7.67	-0.67	-0.67	1.33	-1.67	6.33	3.33	-2.67	-1.67	-0.67	11.33	-0.67	0.33	-2.67	-4.67	0.33	5.33	0.33	-1.67	1.33	-3.67	-5.67	-0.67	-2.67	-0.67
832	52.823	8.67	0.33	3.33	1.33	6.33	0.33	8.33	5.33	8.33	7.33	7.33	9.33	5.33	4.33	10.33	5.33	-1.67	2.33	0.33	7.33	1.33	4.33	1.33	2.33	0.33	2.33	6.33
839	53.268	9.33	-2.33	-3.33	-2.33	0.67	8.67	2.67	4.67	5.67	9.67	0.67	5.67	2.67	8.67	-4.33	1.67	4.67	2.67	4.67	-4.33	5.67	5.67	0.67	1.67	5.67	8.67	5.67
846	53.713	11.0	3.0	3.0	1.0	1.0	5.0	6.0	0.0	1.0	4.0	11.0	9.0	-1.0	5.0	3.0	-2.0	8.0	0.0	10.0	0.0	-3.0	0.0	6.0	-1.0	5.0	-1.0	-3.0
853	54.159	13.0	-3.0	-5.0	5.0	10.0	9.0	5.0	8.0	9.0	9.0	-2.0	2.0	3.0	0.0	5.0	3.0	-3.0	11.0	2.0	0.0	3.0	-1.0	3.0	1.0	0.0	-1.0	6.0
860	54.604	12.33	-5.33	2.67	3.67	4.67	5.67	12.67	8.67	4.67	4.67	1.67	-4.33	3.67	3.67	3.67	5.67	0.67	6.67	-1.33	7.67	4.67	1.67	4.67	2.67	5.67	1.67	3.67
867	55.05	8.33	-4.33	2.67	4.67	4.67	11.67	6.67	7.67	6.67	6.67	7.67	6.67	0.67	4.67	6.67	11.67	-0.33	6.67	7.67	4.67	5.67	2.67	7.67	3.67	9.67	5.67	-0.33
874	55.496	11.33	-1.33	1.67	4.67	7.67	14.67	3.67	1.67	8.67	2.67	3.67	2.67	7.67	0.67	2.67	-2.33	8.67	7.67	3.67	6.67	-1.33	3.67	6.67	2.67	4.67	2.67	8.67
881	55.942	12.33	-0.33	-1.33	-3.33	2.67	3.67	2.67	5.67	-2.33	7.67	2.67	2.67	8.67	2.67	0.67	7.67	3.67	3.67	3.67	1.67	4.67	8.67	-4.33	4.67	-0.33	3.67	-5.33
888	56.387	10.33	-3.33	-1.33	-1.33	1.67	1.67	-2.33	13.67	6.67	6.67	8.67	9.67	10.67	14.67	9.67	8.67	5.67	1.67	8.67	1.67	5.67	2.67	2.67	8.67	6.67	8.67	2.67
895	56.833	12.0	-2.0	4.0	2.0	2.0	5.0	7.0	6.0	16.0	11.0	4.0	2.0	7.0	10.0	5.0	10.0	4.0	-4.0	4.0	-1.0	4.0	0.0	0.0	-2.0	3.0	2.0	-5.0
902	57.279	12.0	-2.0	0.0	5.0	13.0	5.0	6.0	8.0	-1.0	6.0	2.0	4.0	6.0	6.0	2.0	11.0	0.0	2.0	3.0	9.0	-4.0	1.0	2.0	0.0	5.0	12.0	11.0
909	57.726	11.33	8.67	-1.33	8.67	-1.33	4.67	12.67	9.67	12.67	11.67	10.67	5.67	9.67	6.67	11.67	1.67	13.67	3.67	19.67	1.67	7.67	11.67	14.67	1.67	5.67	9.67	10.67
916	58.172	13.67	0.33	-5.67	2.33	11.33	13.33	15.33	12.33	12.33	5.33	4.33	8.33	7.33	4.33	13.33	-0.67	11.33	8.33	1.33	8.33	3.33	1.33	0.33	4.33	6.33	0.33	2.33
923	58.618	14.0	-4.0	-6.0	-1.0	20.0	7.0	3.0	8.0	17.0	6.0	0.0	5.0	2.0	9.0	8.0	6.0	5.0	2.0	6.0	7.0	3.0	8.0	8.0	0.0	7.0	2.0	2.0
930	59.064	14.0	4.0	5.0	11.0	52.0	56.0	52.0	64.0	21.0	13.0	5.0	13.0	19.0	21.0	6.0	10.0	10.0	21.0	19.0	48.0	25.0	15.0	22.0	11.0	27.0	14.0	12.0
937	59.511	20.67	-1.67	0.33	46.33	66.33	93.33	100.33	72.33	23.33	19.33	18.33	20.33	20.33	19.33	16.33	23.33	41.33	25.33	59.33	68.33	47.33	30.33	57.33	74.33	61.33	28.33	23.33
944	59.957	10.0	5.0	11.0	68.0	52.0	123.0	96.0	72.0	45.0	42.0	53.0	25.0	23.0	31.0	25.0	22.0	41.0	48.0	59.0	60.0	73.0	41.0	117.0	119.0	81.0	51.0	12.0
951	60.404	12.33	1.67	1.67	9.67	12.67	25.67	55.67	74.67	78.67	43.67	46.67	29.67	19.67	20.67	6.67	5.67	23.67	44.67	51.67	25.67	17.67	33.67	23.67	25.67	30.67	7.67	5.67
958	60.851	9.67	10.33	4.33	6.33	10.33	8.33	15.33	17.33	32.33	22.33	20.33	12.33	6.33	5.33	20.33	12.33	7.33	12.33	13.33	13.33	11.33	7.33	9.33	15.33	5.33	7.33	10.33
965	61.298	11.0	-1.0	4.0	11.0	1.0	7.0	4.0	15.0	13.0	12.0	18.0	11.0	12.0	1.0	10.0	8.0	5.0	12.0	5.0	9.0	5.0	1.0	13.0	8.0	10.0	4.0	8.0
972	61.745	11.67	-4.67	1.33	1.33	12.33	9.33	15.33	22.33	17.33	9.33	18.33	16.33	9.33	5.33	17.33	11.33	7.33	9.33	10.33	9.33	4.33	10.33	5.33	11.33	2.33	16.33	9.33
979	62.192	11.0	7.0	1.0	9.0	19.0	24.0	21.0	41.0	36.0	26.0	31.0	21.0	22.0	19.0	15.0	28.0	16.0	16.0	20.0	14.0	12.0	21.0	17.0	14.0	18.0	15.0	13.0
986	62.639	13.67	3.33	-1.67	14.33	21.33	53.33	46.33	42.33	26.33	25.33	21.33	45.33	21.33	31.33	48.33	32.33	27.33	13.33	17.33	19.33	28.33	10.33	19.33	15.33	11.33	29.33	8.33
993	63.086	8.0	5.0	-3.0	25.0	37.0	50.0	41.0	37.0	33.0	27.0	34.0	26.0	42.0	34.0	58.0	33.0	16.0	23.0	29.0	24.0	21.0	27.0	36.0	43.0	22.0	15.0	10.0
1000	63.533	10.33	5.67	4.67	25.67	36.67	44.67	47.67	48.67	42.67	23.67	17.67	24.67	16.67	28.67	30.67	17.67	16.67	12.67	28.67	12.67	12.67	24.67	32.67	25.67	13.67	7.67	5.67
1007	63.981	10.33	0.67	4.67	18.67	25.67	23.67	47.67	26.67	18.67	9.67	24.67	11.67	14.67	4.67	4.67	13.67	7.67	2.67	11.67	7.67	11.67	9.67	2.67	6.67	7.67	2.67	5.67
1014	64.428	13.67	3.33	2.33	10.33	11.33	21.33	11.33	4.33	2.33	17.33	6.33	8.33	6.33	5.33	9.33	5.33	9.33	8.33	3.33	11.33	-2.67	6.33	10.33	7.33	7.33	-0.67	11.33
1021	64.876	11.0	4.0	11.0	5.0	13.0	20.0	20.0	25.0	22.0	12.0	14.0	15.0	12.0	6.0	11.0	13.0	15.0	10.0	9.0	11.0	9.0	10.0	6.0	11.0	11.0	13.0	18.0
1028	65.324	10.67	2.33	6.33	13.33	15.33	21.33	21.33	18.33	19.33	17.33	21.33	13.33	11.33	13.33	11.33	16.33	17.33	6.33	9.33	20.33	15.33	17.33	9.33	14.33	7.33	7.33	9.33
1035	65.772	9.0	2.0	8.0	19.0	21.0	20.0	24.0	17.0	33.0	20.0	24.0	15.0	15.0	24.0	22.0	21.0	6.0	16.0	28.0	22.0	21.0	11.0	15.0	7.0	14.0	9.0	9.0
1042	66.22	11.67	9.33	8.33	14.33	10.33	15.33	9.33	21.33	29.33	9.33	8.33	19.33	11.33	20.33	35.33	14.33	12.33	13.33	24.33	13.33	14.33	20.33	9.33	11.33	7.33	10.33	14.33
1049	66.668	11.33	2.67	21.67	9.67	22.67	25.67	12.67	21.67	23.67	19.67	13.67	11.67	17.67	17.67	36.67	35.67	21.67	8.67	23.67	30.67	10.67	17.67	12.67	10.67	11.67	19.67	11.67
1056	67.116	14.33	0.67	11.67	16.67	32.67	39.67	17.67	6.67	30.67	19.67	14.67	8.67	19.67	18.67	45.67	37.67	28.67	26.67	31.67	38.67	24.67	34.67	17.67	11.67	21.67	6.67	19.67
1063	67.564	13.33	3.67	4.67	22.67	49.67	24.67	21.67	29.67	33.67	28.67	28.67	22.67	18.67	27.67	26.67	38.67	16.67	29.67	42.67	57.67	53.67	32.67	22.67	10.67	18.67	24.67	22.67
1070	68.013	13.0	-3.0	3.0	15.0	15.0	36.0	26.0	19.0	18.0	24.0	42.0	34.0	14.0	33.0	21.0	21.0	15.0	19.0	34.0	54.0	49.0	25.0	45.0	22.0	18.0	25.0	10.0
1077	68.462	9.33	1.67	10.67	24.67	43.67	40.67	26.67	27.67	22.67	34.67	44.67	48.67	28.67	33.67	29.67	30.67	23.67	37.67	31.67	60.67	54.67	24.67	21.67	29.67	21.67	21.67	24.67
1084	68.91	12.33	-0.33	3.67	33.67	73.67	53.67	45.67	40.67	27.67	29.67	51.67	57.67	58.67	45.67	45.67	40.67	17.67	32.67	26.67	28.67	17.67	16.67	15.67	46.67	30.67	16.67	29.67
1091	69.359	10.33	1.67	9.67	39.67	41.67	27.67	42.67	22.67	43.67	45.67	35.67	44.67	63.67	51.67	44.67	45.67	19.67	17.67	15.67	27.67	16.67	33.67	40.67	47.67	17.67	30.67	21.67
1098	69.808	13.33	-5.33	7.67	14.67	22.67	28.67	22.67	12.67	17.67	24.67	33.67	35.67	32.67	36.67	35.67	23.67	17.67	21.67	15.67	18.67	19.67	2.67	17.67	17.67	9.67	12.67	6.67
1105	70.257	15.0	0.0	0.0	6.0	14.0	20.0	26.0	13.0	20.0	21.0	12.0	9.0	12.0	13.0	15.0	12.0	14.0	10.0	12.0	-1.0	11.0	4.0	10.0	11.0	12.0	16.0	-1.0
1112	70.707	8.33	0.67	3.67	3.67	14.67	13.67	41.67	20.67	18.67	25.67	16.67	11.67	26.67	11.67	15.67	11.67	9.67	9.67	8.67	5.67	17.67	11.67	8.67	14.67	9.67	21.67	13.67
1119	71.156	9.33	2.67	4.67	6.67	18.67	22.67	23.67	21.67	35.67	19.67	23.67	9.67	7.67	2.67	23.67	11.67	10.67	7.67	10.67	10.67	11.67	16.67	16.67	14.67	15.67	17.67	15.67
1126	71.606	9.0	0.0	6.0	7.0	15.0	29.0	27.0	26.0	21.0	30.0	23.0	13.0	13.0	14.0	10.0	14.0	15.0	19.0	21.0	13.0	10.0	16.0	0.0	5.0	23.0	16.0	15.0
1133	72.055	13.0	3.0	0.0	12.0	14.0	22.0	40.0	25.0	26.0	18.0	13.0	4.0	14.0	23.0	23.0	0.0	10.0	9.0	8.0	11.0	13.0	15.0	17.0	11.0	7.0	19.0	14.0
1140	72.505	11.67	7.33	2.33	14.33	24.33	47.33	62.33	53.33	32.33	37.33	20.33	19.33	18.33	34.33	27.33	17.33	19.33	24.33	32.33	19.33	17.33	12.33	27.33	21.33	17.33	14.33	7.33
1147	72.955	30.33	-9.33	0.67	19.67	32.67	36.67	32.67	36.67	36.67	15.67	17.67	9.67	14.67	7.67	25.67	10.67	20.67	15.67	11.67	16.67	5.67	4.67	5.67	-2.33	8.67	-7.33	23.67
1154	73.405	16.67	0.33	5.33	39.33	50.33	52.33	45.33	45.33	32.33	30.33	22.33	33.33	15.33	22.33	21.33	29.33	22.33	25.33	28.33	28.33	7.33	11.33	23.33	9.33	26.33	19.33	7.33
1161	73.855	13.0	-2.0	3.0	25.0	41.0	46.0	36.0	41.0	19.0	17.0	23.0	18.0	8.0	14.0	19.0	7.0	14.0	13.0	26.0	12.0	7.0	10.0	3.0	13.0	5.0	14.0	7.0
1168	74.306	14.67	-5.67	-0.67	21.33	30.33	17.33	21.33	30.33	11.33	16.33	16.33	10.33	14.33	12.33	14.33	14.33	24.33	12.33	16.33	9.33	11.33	15.33	10.33	5.33	8.33	12.33	1.33
1175	74.756	28.0	-3.0	8.0	9.0	20.0	8.0	21.0	45.0	29.0	37.0	29.0	12.0	15.0	15.0	28.0	16.0	12.0	13.0	15.0	12.0	29.0	21.0	20.0	21.0	4.0	8.0	25.0
1182	75.207	36.67	10.33	20.33	11.33	48.33	34.33	61.33	109.33	98.33	47.33	80.33	31.33	53.33	34.33	51.33	34.33	27.33	48.33	40.33	30.33	45.33	86.33	74.33	88.33	67.33	67.33	51.33
1189	75.658	25.67	10.33	18.33	46.33	88.33	91.33	129.33	166.33	148.33	83.33	114.33	76.33	85.33	57.33	112.33	87.33	65.33	65.33	104.33	62.33	88.33	121.33	125.33	176.33	116.33	96.33	72.33
1196	76.109	13.67	-1.67	15.33	51.33	121.33	200.33	194.33	204.33	112.33	82.33	163.33	98.33	86.33	47.33	99.33	70.33	65.33	93.33	123.33	88.33	55.33	149.33	87.33	173.33	169.33	124.33	78.33
1203	76.56	10.67	7.33	12.33	51.33	117.33	231.33	266.33	164.33	103.33	77.33	146.33	72.33	53.33	43.33	62.33	44.33	66.33	70.33	106.33	47.33	39.33	66.33	46.33	82.33	60.33	71.33	29.33
1210	77.011	13.0	-4.0	-4.0	76.0	105.0	155.0	130.0	67.0	65.0	58.0	70.0	38.0	18.0	29.0	26.0	29.0	34.0	46.0	54.0	26.0	37.0	32.0	23.0	30.0	27.0	20.0	23.0
1217	77.463	17.0	-5.0	-7.0	38.0	56.0	75.0	42.0	26.0	29.0	98.0	73.0	31.0	4.0	18.0	14.0	14.0	16.0	10.0	19.0	10.0	16.0	17.0	20.0	9.0	7.0	15.0	14.0
1224	77.915	14.67	-1.67	3.33	26.33	29.33	37.33	22.33	30.33	14.33	95.33	110.33	58.33	11.33	14.33	7.33	14.33	8.33	27.33	28.33	27.33	12.33	13.33	17.33	11.33	18.33	32.33	25.33
1231	78.366	14.33	-3.33	6.67	30.67	40.67	54.67	54.67	45.67	23.67	56.67	38.67	32.67	26.67	30.67	43.67	32.67	23.67	26.67	19.67	30.67	36.67	26.67	29.67	18.67	22.67	30.67	34.67
1238	78.818	14.67	-4.67	23.33	43.33	72.33	98.33	57.33	73.33	57.33	48.33	44.33	36.33	45.33	75.33	45.33	31.33	49.33	36.33	39.33	29.33	57.33	40.33	33.33	43.33	20.33	21.33	35.33
1245	79.271	14.67	0.33	39.33	116.33	108.33	142.33	106.33	67.33	61.33	40.33	39.33	42.33	75.33	62.33	47.33	50.33	52.33	64.33	61.33	56.33	38.33	56.33	30.33	39.33	24.33	39.33	29.33
1252	79.723	14.0	-7.0	46.0	143.0	154.0	199.0	150.0	67.0	46.0	39.0	54.0	39.0	54.0	48.0	35.0	43.0	70.0	62.0	69.0	65.0	32.0	50.0	31.0	41.0	38.0	27.0	31.0
1259	80.175	18.67	-3.67	3.33	76.33	115.33	92.33	128.33	45.33	35.33	41.33	57.33	44.33	41.33	32.33	24.33	25.33	55.33	42.33	36.33	25.33	41.33	33.33	33.33	30.33	41.33	13.33	29.33
1266	80.628	16.67	-5.67	13.33	28.33	42.33	31.33	49.33	28.33	18.33	22.33	31.33	36.33	39.33	19.33	9.33	17.33	25.33	17.33	20.33	20.33	43.33	29.33	32.33	33.33	21.33	13.33	19.33
1273	81.081	15.0	-4.0	10.0	17.0	9.0	15.0	28.0	27.0	19.0	25.0	21.0	22.0	20.0	22.0	19.0	13.0	23.0	24.0	19.0	11.0	15.0	40.0	32.0	19.0	20.0	12.0	11.0
1280	81.534	17.67	-0.67	-3.67	8.33	18.33	13.33	13.33	14.33	9.33	22.33	6.33	9.33	13.33	6.33	13.33	26.33	23.33	9.33	10.33	8.33	20.33	11.33	14.33	4.33	7.33	13.33	8.33
1287	81.987	20.33	-5.33	-2.33	4.67	7.67	14.67	3.67	3.67	10.67	8.67	6.67	6.67	7.67	5.67	3.67	2.67	15.67	-0.33	6.67	-7.33	2.67	2.67	7.67	5.67	6.67	0.67	1.67
1294	82.441	18.0	3.0	6.0	-2.0	13.0	15.0	7.0	8.0	3.0	12.0	5.0	11.0	10.0	10.0	4.0	12.0	8.0	11.0	0.0	13.0	10.0	3.0	7.0	15.0	5.0	15.0	16.0
1301	82.894	16.67	8.33	5.33	6.33	1.33	8.33	11.33	7.33	11.33	2.33	13.33	16.33	16.33	12.33	6.33	11.33	25.33	5.33	17.33	10.33	21.33	5.33	11.33	16.33	8.33	2.33	10.33
1308	83.348	19.67	8.33	0.33	-1.67	8.33	7.33	17.33	17.33	21.33	8.33	12.33	16.33	18.33	9.33	15.33	18.33	6.33	6.33	15.33	7.33	9.33	-3.67	7.33	14.33	11.33	13.33	8.33
1315	83.802	17.67	2.33	12.33	12.33	20.33	25.33	26.33	32.33	12.33	31.33	18.33	15.33	11.33	16.33	20.33	20.33	22.33	17.33	16.33	17.33	6.33	18.33	19.33	19.33	0.33	14.33	18.33
1322	84.256	19.33	11.67	15.67	19.67	12.67	14.67	49.67	48.67	39.67	32.67	16.67	24.67	22.67	24.67	24.67	8.67	21.67	27.67	17.67	15.67	26.67	31.67	21.67	16.67	4.67	23.67	17.67
1329	84.71	22.67	14.33	9.33	18.33	23.33	30.33	53.33	67.33	59.33	42.33	17.33	30.33	30.33	21.33	29.33	31.33	34.33	25.33	26.33	36.33	25.33	33.33	27.33	37.33	30.33	21.33	36.33
1336	85.165	33.67	7.33	1.33	27.33	21.33	14.33	49.33	41.33	28.33	42.33	21.33	12.33	3.33	24.33	30.33	18.33	12.33	15.33	13.33	12.33	22.33	16.33	6.33	19.33	8.33	14.33	17.33
1343	85.619	30.0	-3.0	-3.0	10.0	13.0	30.0	32.0	35.0	14.0	16.0	29.0	16.0	9.0	6.0	12.0	27.0	16.0	12.0	26.0	15.0	23.0	21.0	13.0	15.0	20.0	9.0	6.0
1350	86.074	25.33	-11.33	1.67	16.67	8.67	28.67	25.67	25.67	15.67	17.67	18.67	16.67	26.67	10.67	13.67	18.67	24.67	13.67	19.67	8.67	19.67	9.67	13.67	17.67	12.67	5.67	13.67
1357	86.529	17.33	-0.33	8.67	15.67	32.67	41.67	34.67	31.67	28.67	29.67	26.67	18.67	10.67	22.67	23.67	20.67	24.67	8.67	29.67	26.67	22.67	23.67	28.67	29.67	12.67	14.67	23.67
1364	86.985	24.67	3.33	9.33	19.33	14.33	28.33	25.33	13.33	12.33	21.33	32.33	9.33	11.33	16.33	8.33	8.33	28.33	16.33	3.33	19.33	3.33	23.33	22.33	11.33	6.33	23.33	13.33
1371	87.44	20.67	-1.67	7.33	28.33	17.33	36.33	22.33	28.33	16.33	18.33	31.33	15.33	35.33	42.33	34.33	22.33	12.33	18.33	18.33	17.33	11.33	26.33	26.33	29.33	25.33	17.33	22.33
1378	87.896	30.0	-2.0	-2.0	4.0	10.0	22.0	22.0	7.0	14.0	12.0	21.0	3.0	7.0	19.0	6.0	4.0	12.0	17.0	15.0	16.0	9.0	15.0	39.0	35.0	19.0	14.0	7.0
1385	88.352	27.67	-9.67	6.33	7.33	10.33	16.33	-2.67	7.33	12.33	17.33	7.33	16.33	3.33	14.33	8.33	15.33	5.33	4.33	10.33	1.33	16.33	6.33	7.33	10.33	13.33	9.33	12.33
1392	88.808	20.33	-1.33	3.67	5.67	18.67	5.67	17.67	20.67	16.67	9.67	11.67	25.67	16.67	15.67	11.67	6.67	4.67	18.67	22.67	15.67	19.67	22.67	9.67	19.67	13.67	2.67	18.67
1399	89.264	25.0	-2.0	0.0	-6.0	26.0	12.0	8.0	17.0	9.0	3.0	1.0	16.0	6.0	9.0	15.0	6.0	5.0	6.0	10.0	8.0	8.0	9.0	7.0	7.0	11.0	6.0	7.0
1406	89.72	25.0	-1.0	7.0	8.0	4.0	4.0	0.0	9.0	7.0	19.0	11.0	17.0	8.0	19.0	6.0	14.0	12.0	10.0	26.0	7.0	5.0	7.0	2.0	6.0	14.0	15.0	7.0
1413	90.177	25.0	4.0	11.0	4.0	1.0	7.0	14.0	4.0	20.0	17.0	10.0	19.0	0.0	15.0	11.0	12.0	10.0	9.0	19.0	11.0	5.0	19.0	11.0	3.0	7.0	5.0	3.0
1420	90.634	27.33	-2.33	-3.33	7.67	8.67	-2.33	-0.33	6.67	6.67	1.67	12.67	2.67	6.67	7.67	-5.33	2.67	14.67	6.67	11.67	8.67	3.67	15.67	-0.33	5.67	5.67	-0.33	1.67
1427	91.091	25.0	0.0	13.0	2.0	1.0	22.0	17.0	13.0	13.0	18.0	10.0	16.0	4.0	6.0	11.0	9.0	25.0	15.0	8.0	11.0	9.0	4.0	13.0	10.0	4.0	4.0	10.0
1434	91.549	24.67	-3.67	-0.67	2.33	7.33	14.33	6.33	24.33	15.33	12.33	11.33	8.33	8.33	16.33	11.33	16.33	7.33	14.33	15.33	3.33	21.33	18.33	9.33	6.33	9.33	9.33	10.33
1441	92.006	25.67	2.33	6.33	8.33	-0.67	13.33	14.33	15.33	12.33	23.33	5.33	21.33	25.33	17.33	11.33	13.33	14.33	12.33	9.33	13.33	14.33	14.33	5.33	11.33	7.33	12.33	2.33
1448	92.464	26.33	3.67	1.67	13.67	10.67	10.67	20.67	19.67	15.67	22.67	12.67	19.67	0.67	9.67	13.67	13.67	18.67	10.67	4.67	5.67	6.67	9.67	2.67	12.67	7.67	10.67	10.67
1455	92.922	29.67	-5.67	-10.67	10.33	0.33	7.33	9.33	10.33	8.33	18.33	9.33	11.33	2.33	19.33	6.33	23.33	20.33	10.33	9.33	-1.67	6.33	1.33	7.33	-0.67	4.33	8.33	3.33
1462	93.38	29.67	6.33	-1.67	-3.67	8.33	0.33	16.33	15.33	14.33	9.33	2.33	6.33	10.33	14.33	13.33	0.33	8.33	13.33	10.33	6.33	21.33	7.33	8.33	4.33	-6.67	-0.67	-3.67
1469	93.839	34.0	-7.0	-2.0	-3.0	3.0	2.0	6.0	3.0	-5.0	16.0	11.0	14.0	9.0	2.0	11.0	6.0	0.0	13.0	-8.0	-5.0	8.0	-9.0	7.0	-6.0	4.0	8.0	6.0
1476	94.297	32.0	-11.0	-3.0	-5.0	-3.0	5.0	-7.0	8.0	5.0	4.0	2.0	4.0	-7.0	1.0	0.0	15.0	-4.0	7.0	-4.0	1.0	-4.0	10.0	-6.0	14.0	1.0	1.0	5.0
1483	94.756	29.0	-3.0	-3.0	-5.0	-2.0	10.0	3.0	19.0	19.0	12.0	0.0	7.0	17.0	-2.0	7.0	14.0	11.0	5.0	13.0	18.0	8.0	11.0	3.0	7.0	12.0	14.0	14.0
1490	95.215	31.33	-6.33	2.67	9.67	-5.33	12.67	7.67	6.67	14.67	2.67	1.67	12.67	12.67	7.67	-2.33	2.67	1.67	8.67	2.67	3.67	-5.33	5.67	-1.33	11.67	1.67	-9.33	2.67
1497	95.675	32.0	3.0	-3.0	9.0	7.0	2.0	4.0	2.0	8.0	3.0	4.0	-1.0	1.0	11.0	1.0	7.0	10.0	1.0	9.0	-7.0	23.0	3.0	-2.0	1.0	10.0	14.0	7.0
1504	96.134	31.0	-1.0	3.0	10.0	-1.0	13.0	5.0	13.0	-3.0	17.0	10.0	9.0	10.0	9.0	5.0	7.0	11.0	7.0	4.0	10.0	4.0	5.0	4.0	7.0	11.0	8.0	-2.0
1511	96.594	30.33	-0.33	3.67	2.67	5.67	-0.33	2.67	15.67	12.67	13.67	16.67	6.67	3.67	2.67	16.67	9.67	12.67	13.67	7.67	6.67	7.67	12.67	7.67	8.67	16.67	3.67	1.67
1518	97.054	39.33	-7.33	-2.33	-5.33	-8.33	-0.33	14.67	-4.33	-3.33	-1.33	1.67	6.67	11.67	2.67	-5.33	0.67	6.67	-1.33	-0.33	-1.33	-12.33	-0.33	2.67	7.67	-1.33	-4.33	-3.33
1525	97.514	33.0	6.0	-10.0	5.0	7.0	2.0	5.0	0.0	2.0	14.0	5.0	15.0	9.0	4.0	4.0	12.0	6.0	3.0	13.0	14.0	7.0	16.0	8.0	1.0	8.0	2.0	13.0
1532	97.975	30.0	-5.0	3.0	17.0	8.0	9.0	11.0	19.0	9.0	9.0	10.0	5.0	9.0	10.0	3.0	9.0	7.0	4.0	19.0	16.0	16.0	13.0	12.0	7.0	15.0	-2.0	14.0
1539	98.436	32.67	1.33	-3.67	1.33	-3.67	0.33	0.33	8.33	13.33	12.33	0.33	4.33	3.33	13.33	0.33	3.33	8.33	9.33	13.33	-7.67	24.33	2.33	-1.67	-0.67	7.33	2.33	5.33
1546	98.897	34.0	-5.0	9.0	10.0	8.0	12.0	5.0	11.0	7.0	10.0	-1.0	3.0	-4.0	13.0	17.0	8.0	8.0	13.0	8.0	8.0	0.0	-7.0	10.0	15.0	9.0	-1.0	-2.0
1553	99.358	35.33	-10.33	-0.33	-7.33	-1.33	3.67	8.67	12.67	3.67	14.67	6.67	4.67	10.67	16.67	8.67	5.67	-2.33	11.67	5.67	10.67	5.67	3.67	3.67	9.67	-1.33	7.67	18.67
1560	99.82	31.67	11.33	0.33	-0.67	2.33	13.33	15.33	5.33	5.33	10.33	18.33	18.33	6.33	11.33	11.33	19.33	38.33	10.33	6.33	15.33	24.33	5.33	18.33	9.33	12.33	8.33	2.33
1567	100.281	27.0	9.0	2.0	20.0	21.0	17.0	14.0	12.0	6.0	14.0	22.0	20.0	10.0	9.0	22.0	13.0	20.0	18.0	15.0	11.0	15.0	24.0	7.0	14.0	4.0	1.0	18.0
1574	100.743	28.67	4.33	5.33	1.33	23.33	3.33	19.33	17.33	13.33	20.33	11.33	9.33	1.33	26.33	9.33	19.33	21.33	13.33	14.33	4.33	14.33	16.33	9.33	20.33	10.33	16.33	11.33
1581	101.206	32.67	2.33	-5.67	8.33	18.33	13.33	4.33	4.33	3.33	4.33	5.33	15.33	4.33	4.33	20.33	15.33	12.33	5.33	14.33	-1.67	6.33	8.33	13.33	8.33	6.33	16.33	6.33
1588	101.668	31.33	2.67	-4.33	8.67	8.67	11.67	7.67	17.67	9.67	12.67	17.67	16.67	18.67	14.67	3.67	18.67	14.67	-2.33	16.67	-2.33	2.67	25.67	5.67	22.67	10.67	9.67	15.67
1595	102.131	36.33	-8.33	-7.33	0.67	2.67	2.67	18.67	-6.33	6.67	-1.33	3.67	-3.33	-5.33	15.67	-8.33	1.67	-0.33	-0.33	8.67	9.67	10.67	4.67	-9.33	5.67	-4.33	-9.33	-0.33
1602	102.594	26.33	-7.33	14.67	15.67	14.67	4.67	9.67	7.67	15.67	16.67	3.67	5.67	16.67	15.67	5.67	23.67	-2.33	13.67	3.67	19.67	14.67	13.67	10.67	14.67	11.67	9.67	11.67
1609	103.057	35.33	-2.33	5.67	-8.33	-5.33	-2.33	3.67	1.67	-1.33	0.67	0.67	1.67	2.67	11.67	7.67	9.67	-5.33	-0.33	6.67	3.67	11.67	-3.33	6.67	-5.33	2.67	1.67	-5.33
1616	103.521	29.0	0.0	5.0	9.0	0.0	15.0	9.0	7.0	13.0	11.0	15.0	11.0	17.0	8.0	17.0	1.0	2.0	12.0	3.0	5.0	10.0	-1.0	2.0	9.0	11.0	0.0	6.0
1623	103.985	29.0	4.0	-1.0	0.0	9.0	6.0	15.0	1.0	7.0	18.0	20.0	10.0	10.0	3.0	4.0	11.0	6.0	7.0	11.0	7.0	13.0	8.0	20.0	11.0	11.0	-1.0	7.0
1630	104.449	26.67	-0.67	5.33	-3.67	12.33	2.33	7.33	12.33	8.33	34.33	20.33	13.33	13.33	12.33	8.33	11.33	10.33	2.33	-2.67	16.33	9.33	12.33	3.33	19.33	11.33	2.33	1.33
1637	104.913	30.0	3.0	-2.0	-4.0	-6.0	-2.0	11.0	-5.0	9.0	16.0	14.0	19.0	1.0	1.0	-8.0	3.0	17.0	11.0	-2.0	12.0	1.0	12.0	9.0	5.0	-2.0	5.0	4.0
1644	105.378	26.33	15.67	7.67	4.67	18.67	-6.33	2.67	1.67	15.67	8.67	10.67	20.67	0.67	4.67	13.67	6.67	4.67	19.67	8.67	6.67	-1.33	8.67	10.67	7.67	11.67	13.67	8.67
1651	105.843	23.67	8.33	0.33	15.33	0.33	7.33	5.33	2.33	1.33	8.33	7.33	17.33	12.33	11.33	11.33	11.33	11.33	8.33	5.33	6.33	-1.67	5.33	5.33	9.33	17.33	14.33	7.33
1658	106.308	32.67	-14.67	-13.67	1.33	9.33	2.33	-6.67	11.33	-2.67	8.33	10.33	2.33	-1.67	3.33	-1.67	-2.67	4.33	-2.67	-10.67	-9.67	-1.67	0.33	5.33	6.33	4.33	4.33	0.33
1665	106.773	29.67	-7.67	-4.67	5.33	8.33	1.33	4.33	2.33	4.33	1.33	0.33	-6.67	-0.67	1.33	4.33	-5.67	0.33	-10.67	1.33	5.33	4.33	6.33	-0.67	1.33	-3.67	-0.67	6.33
1672	107.239	24.33	-0.33	-1.33	4.67	6.67	3.67	9.67	8.67	4.67	2.67	-4.33	-3.33	12.67	9.67	-1.33	3.67	4.67	-5.33	25.67	5.67	-0.33	-3.33	-0.33	12.67	7.67	2.67	-3.33
1679	107.705	25.33	2.67	2.67	-4.33	-7.33	3.67	9.67	0.67	7.67	3.67	6.67	11.67	13.67	14.67	0.67	7.67	3.67	11.67	1.67	2.67	-2.33	9.67	-2.33	1.67	1.67	10.67	3.67
1686	108.171	27.33	6.67	-8.33	3.67	1.67	-8.33	-5.33	5.67	-2.33	0.67	-2.33	-4.33	5.67	-8.33	-0.33	0.67	-2.33	1.67	5.67	-3.33	-1.33	2.67	2.67	0.67	9.67	-1.33	4.67
1693	108.638	26.0	8.0	5.0	-2.0	-9.0	5.0	5.0	-2.0	-2.0	1.0	-1.0	4.0	14.0	-3.0	3.0	7.0	7.0	-1.0	11.0	9.0	7.0	-3.0	4.0	0.0	7.0	4.0	-2.0
1700	109.105	24.0	9.0	-2.0	1.0	-1.0	12.0	7.0	2.0	4.0	-3.0	2.0	1.0	-1.0	3.0	0.0	7.0	1.0	7.0	3.0	-2.0	5.0	0.0	4.0	1.0	0.0	11.0	0.0
1707	109.572	21.67	3.33	11.33	2.33	-3.67	7.33	4.33	4.33	0.33	9.33	0.33	6.33	12.33	11.33	0.33	-2.67	3.33	11.33	7.33	3.33	1.33	1.33	5.33	12.33	2.33	3.33	9.33
1714	110.039	23.33	-6.33	0.67	3.67	-3.33	-0.33	-4.33	7.67	0.67	8.67	1.67	-4.33	0.67	1.67	4.67	-5.33	5.67	13.67	2.67	-1.33	7.67	1.67	-1.33	3.67	5.67	-0.33	10.67
1721	110.507	24.33	1.67	-8.33	0.67	-5.33	1.67	1.67	-2.33	1.67	-5.33	-1.33	5.67	4.67	-0.33	-7.33	-5.33	-0.33	0.67	-5.33	-2.33	-2.33	4.67	-3.33	6.67	-6.33	-9.33	-2.33
1728	110.975	20.0	1.0	11.0	9.0	0.0	11.0	-4.0	1.0	8.0	14.0	7.0	8.0	7.0	0.0	8.0	4.0	-1.0	5.0	4.0	13.0	13.0	9.0	-3.0	0.0	6.0	-5.0	6.0
1735	111.443	22.33	-1.33	-0.33	-5.33	4.67	2.67	0.67	-5.33	1.67	2.67	0.67	2.67	5.67	-2.33	10.67	2.67	0.67	5.67	-2.33	6.67	3.67	-1.33	0.67	7.67	3.67	-3.33	-0.33
1742	111.912	24.0	1.0	-5.0	-2.0	-2.0	10.0	4.0	12.0	-2.0	5.0	0.0	9.0	-3.0	2.0	-5.0	5.0	-3.0	3.0	-3.0	0.0	1.0	2.0	-6.0	-6.0	-3.0	3.0	3.0
1749	112.38	18.67	2.33	2.33	7.33	-1.67	10.33	7.33	4.33	5.33	8.33	3.33	10.33	13.33	8.33	1.33	7.33	18.33	5.33	-3.67	10.33	4.33	16.33	2.33	12.33	5.33	12.33	1.33
1756	112.85	19.67	4.33	6.33	10.33	1.33	-3.67	6.33	5.33	7.33	5.33	15.33	15.33	-0.67	-1.67	-1.67	-0.67	-1.67	8.33	10.33	2.33	6.33	9.33	1.33	14.33	2.33	4.33	7.33
1763	113.319	19.67	3.33	-3.67	-6.67	9.33	1.33	5.33	5.33	-0.67	17.33	6.33	12.33	9.33	-3.67	10.33	-2.67	5.33	7.33	1.33	-3.67	-4.67	6.33	5.33	1.33	2.33	4.33	1.33
1770	113.789	19.0	2.0	-2.0	-2.0	0.0	-1.0	-7.0	-1.0	2.0	3.0	8.0	9.0	10.0	3.0	2.0	-3.0	-1.0	2.0	5.0	11.0	4.0	2.0	1.0	0.0	0.0	-5.0	-6.0
1777	114.259	20.67	-0.67	-2.67	-2.67	-3.67	-0.67	0.33	2.33	1.33	1.33	6.33	6.33	0.33	1.33	-2.67	5.33	-5.67	0.33	0.33	-3.67	7.33	4.33	-4.67	-8.67	-6.67	3.33	-3.67
1784	114.729	16.67	0.33	-7.67	-0.67	4.33	-3.67	8.33	1.33	4.33	-0.67	1.33	7.33	9.33	7.33	1.33	0.33	4.33	0.33	2.33	5.33	0.33	-1.67	4.33	5.33	0.33	3.33	-0.67
1791	115.2	18.33	-0.33	-1.33	-1.33	1.67	7.67	9.67	4.67	4.67	2.67	12.67	6.67	3.67	5.67	1.67	5.67	5.67	2.67	-0.33	5.67	3.67	16.67	9.67	2.67	4.67	-1.33	15.67
1798	115.671	15.0	7.0	5.0	6.0	10.0	12.0	8.0	8.0	-2.0	7.0	7.0	14.0	1.0	1.0	6.0	9.0	2.0	3.0	6.0	8.0	5.0	5.0	9.0	12.0	5.0	5.0	-1.0
1805	116.142	15.0	3.0	5.0	11.0	7.0	3.0	2.0	5.0	0.0	-3.0	-2.0	-3.0	-1.0	6.0	0.0	9.0	8.0	13.0	2.0	4.0	-2.0	9.0	3.0	2.0	4.0	7.0	1.0
1812	116.614	16.0	5.0	3.0	5.0	6.0	3.0	-5.0	6.0	6.0	0.0	-2.0	-3.0	-6.0	-4.0	-5.0	-1.0	11.0	-3.0	4.0	3.0	3.0	4.0	5.0	7.0	4.0	6.0	-3.0
1819	117.086	16.67	2.33	-3.67	4.33	-0.67	-3.67	0.33	-2.67	7.33	3.33	3.33	0.33	-2.67	2.33	5.33	11.33	-1.67	-0.67	1.33	4.33	1.33	0.33	3.33	-0.67	0.33	3.33	1.33
1826	117.558	18.67	0.33	-2.67	-1.67	0.33	1.33	-4.67	-0.67	-1.67	7.33	-3.67	-1.67	-2.67	-5.67	3.33	-2.67	2.33	0.33	-1.67	-6.67	-3.67	5.33	-0.67	-3.67	-2.67	-2.67	7.33
1833	118.03	15.67	2.33	-1.67	6.33	4.33	1.33	4.33	-1.67	0.33	1.33	0.33	0.33	-2.67	2.33	-8.67	-3.67	9.33	3.33	-0.67	-1.67	2.33	4.33	9.33	3.33	2.33	1.33	1.33
1840	118.503	12.67	-2.67	4.33	12.33	3.33	4.33	8.33	9.33	2.33	3.33	1.33	9.33	8.33	-1.67	5.33	-1.67	0.33	12.33	2.33	-0.67	5.33	3.33	-0.67	4.33	7.33	2.33	9.33
1847	118.976	14.33	0.67	-0.33	7.67	-5.33	-2.33	1.67	2.67	1.67	-0.33	0.67	-0.33	-2.33	1.67	2.67	-0.33	-0.33	6.67	-1.33	-2.33	2.67	4.67	-4.33	9.67	4.67	2.67	-3.33
1854	119.45	15.0	3.0	5.0	-3.0	-4.0	2.0	3.0	-9.0	1.0	7.0	4.0	0.0	7.0	0.0	2.0	-3.0	6.0	15.0	3.0	2.0	0.0	8.0	0.0	2.0	-2.0	3.0	2.0
1861	119.924	12.0	-4.0	6.0	-2.0	6.0	1.0	5.0	7.0	5.0	1.0	-1.0	7.0	-5.0	5.0	2.0	5.0	4.0	3.0	10.0	0.0	13.0	4.0	7.0	7.0	-4.0	2.0	2.0
1868	120.398	10.33	7.67	0.67	4.67	9.67	8.67	3.67	6.67	-0.33	0.67	7.67	9.67	-0.33	3.67	6.67	1.67	4.67	-0.33	0.67	9.67	6.67	5.67	0.67	10.67	4.67	10.67	11.67
1875	120.872	10.33	-0.33	6.67	3.67	7.67	10.67	6.67	2.67	6.67	0.67	6.67	9.67	3.67	4.67	5.67	6.67	1.67	5.67	5.67	11.67	7.67	4.67	13.67	15.67	5.67	6.67	7.67
1882	121.347	14.33	-2.33	-1.33	0.67	-0.33	-5.33	9.67	-5.33	2.67	9.67	-2.33	-6.33	1.67	-4.33	0.67	12.67	4.67	2.67	7.67	7.67	-0.33	0.67	3.67	0.67	1.67	-1.33	-4.33
1889	121.822	11.33	-1.33	-0.33	3.67	4.67	-4.33	18.67	-2.33	10.67	3.67	7.67	1.67	0.67	1.67	8.67	4.67	8.67	1.67	5.67	2.67	2.67	9.67	4.67	-6.33	9.67	6.67	10.67
1896	122.298	10.67	5.33	4.33	1.33	8.33	9.33	4.33	1.33	5.33	3.33	2.33	6.33	1.33	6.33	0.33	14.33	3.33	-2.67	6.33	4.33	1.33	7.33	4.33	-0.67	6.33	3.33	4.33
1903	122.773	10.0	-4.0	-3.0	3.0	0.0	3.0	2.0	7.0	3.0	1.0	9.0	7.0	2.0	2.0	2.0	7.0	-1.0	7.0	6.0	-4.0	3.0	6.0	7.0	4.0	5.0	-4.0	-1.0
1910	123.25	12.33	-0.33	-1.33	-2.33	2.67	-3.33	-1.33	-2.33	5.67	-2.33	0.67	0.67	-7.33	6.67	5.67	-6.33	-1.33	-2.33	-3.33	2.67	1.67	1.67	5.67	-1.33	6.67	-1.33	4.67
1917	123.726	14.67	-1.67	-3.67	-2.67	0.33	-4.67	1.33	-6.67	-4.67	-2.67	0.33	-4.67	-2.67	0.33	-2.67	5.33	1.33	-2.67	4.33	-3.67	-1.67	-7.67	-2.67	0.33	4.33	-2.67	2.33
1924	124.203	9.33	1.67	-4.33	3.67	3.67	2.67	-2.33	-0.33	1.67	-0.33	5.67	-3.33	5.67	0.67	1.67	-1.33	1.67	1.67	2.67	3.67	-3.33	1.67	-4.33	1.67	7.67	0.67	8.67
1931	124.68	10.33	-0.33	0.67	8.67	5.67	2.67	-2.33	-2.33	-0.33	-3.33	-1.33	8.67	1.67	6.67	2.67	-4.33	-1.33	-2.33	-0.33	-4.33	10.67	-1.33	0.67	5.67	1.67	2.67	1.67
1938	125.158	8.33	-0.33	2.67	-4.33	6.67	5.67	7.67	3.67	3.67	7.67	11.67	2.67	3.67	3.67	2.67	4.67	5.67	1.67	9.67	2.67	0.67	5.67	-1.33	4.67	6.67	3.67	13.67
1945	125.635	9.33	-2.33	-1.33	7.67	-0.33	6.67	-1.33	2.67	-1.33	1.67	1.67	1.67	3.67	11.67	-2.33	4.67	4.67	-1.33	8.67	3.67	7.67	7.67	2.67	-1.33	5.67	2.67	-0.33
1952	126.114	15.0	-2.0	-4.0	-5.0	-12.0	-5.0	-8.0	-8.0	1.0	-1.0	-5.0	-4.0	3.0	-6.0	-1.0	-5.0	-5.0	-3.0	-1.0	3.0	-3.0	-5.0	1.0	-5.0	-4.0	1.0	-3.0
1959	126.592	6.67	5.33	0.33	4.33	2.33	6.33	4.33	6.33	2.33	5.33	7.33	7.33	6.33	7.33	2.33	1.33	4.33	4.33	6.33	8.33	2.33	8.33	7.33	3.33	-0.67	3.33	9.33
1966	127.071	9.0	3.0	0.0	3.0	-2.0	2.0	2.0	-4.0	-1.0	5.0	3.0	6.0	2.0	5.0	1.0	10.0	-1.0	6.0	9.0	10.0	4.0	-3.0	1.0	2.0	6.0	8.0	1.0
1973	127.55	8.33	1.67	-1.33	1.67	7.67	1.67	3.67	3.67	-0.33	8.67	2.67	1.67	3.67	6.67	0.67	3.67	2.67	1.67	7.67	-3.33	0.67	6.67	1.67	3.67	7.67	11.67	0.67
1980	128.03	9.33	-2.33	-2.33	-3.33	3.67	3.67	1.67	7.67	2.67	5.67	-0.33	1.67	2.67	3.67	5.67	5.67	0.67	4.67	-0.33	-1.33	4.67	-1.33	2.67	-1.33	5.67	-0.33	0.67
1987	128.51	5.33	3.67	5.67	10.67	3.67	0.67	-1.33	2.67	3.67	6.67	6.67	1.67	12.67	6.67	6.67	0.67	4.67	3.67	11.67	-0.33	5.67	9.67	6.67	8.67	2.67	6.67	3.67
1994	128.99	7.67	2.33	-1.67	11.33	-1.67	0.33	7.33	5.33	10.33	0.33	3.33	5.33	1.33	1.33	8.33	6.33	3.33	5.33	2.33	-0.67	5.33	-1.67	3.33	2.33	5.33	4.33	6.33
2001	129.471	6.67	2.33	7.33	-0.67	4.33	-0.67	5.33	1.33	2.33	2.33	-0.67	5.33	12.33	5.33	7.33	4.33	3.33	-0.67	1.33	7.33	8.33	2.33	2.33	4.33	-0.67	7.33	1.33
2008	129.952	4.33	3.67	5.67	8.67	5.67	3.67	3.67	1.67	9.67	2.67	8.67	8.67	0.67	0.67	10.67	6.67	5.67	6.67	3.67	5.67	9.67	5.67	6.67	7.67	4.67	7.67	7.67
2015	130.433	11.33	-6.33	-0.33	-5.33	-1.33	-1.33	3.67	10.67	-5.33	2.67	1.67	0.67	-2.33	-3.33	-2.33	-0.33	-0.33	-2.33	-2.33	-1.33	0.67	-1.33	-2.33	1.67	2.67	-0.33	0.67
2022	130.915	8.33	-0.33	3.67	-2.33	4.67	-2.33	-0.33	-0.33	-0.33	-2.33	4.67	9.67	-2.33	-3.33	1.67	1.67	-2.33	1.67	4.67	0.67	5.67	-2.33	-1.33	3.67	-0.33	-1.33	4.67
2029	131.397	11.33	-7.33	-0.33	-6.33	-8.33	2.67	0.67	-5.33	-10.33	-1.33	-6.33	-0.33	-5.33	-1.33	-6.33	-4.33	-5.33	-1.33	-3.33	0.67	-5.33	-2.33	2.67	-1.33	-2.33	-6.33	0.67
2036	131.879	9.0	-2.0	-3.0	-3.0	1.0	2.0	0.0	-1.0	3.0	1.0	-2.0	0.0	-1.0	-2.0	-2.0	-1.0	0.0	3.0	2.0	-5.0	3.0	3.0	-4.0	5.0	3.0	3.0	-3.0
2043	132.362	5.33	0.67	4.67	4.67	0.67	1.67	4.67	0.67	1.67	6.67	9.67	4.67	1.67	-0.33	5.67	5.67	5.67	2.67	3.67	5.67	9.67	0.67	2.67	4.67	6.67	4.67	3.67
2047	132.638	7.0	0.0	-2.0	-1.0	4.0	0.0	0.0	5.0	1.0	5.0	1.0	1.0	1.0	0.0	8.0	2.0	-3.0	1.0	-3.0	2.0	0.0	1.0	0.0	3.0	1.0	-1.0	5.0