File: EDX Back Ups and Old Files/EDX Processed Data/Low pH SF 60C 4d.txt
Name: Low pH SF 60C 4d
Number of Scans: 29
Positions: [-13.0, -12.75, -12.5, -12.25, -12.0, -11.75, -11.5, -11.25, -11.0, -10.75, -10.5, -10.25, -10.0, -9.75, -9.5, -9.25, -9.0, -8.75, -8.5, -8.25, -8.0, -7.75, -7.5, -7.25, -7.0, -6.75, -6.5, -6.25, -6.0]
Points per Scan: 2048
Sample Edge: 3
Scans Off Sample: [0, 1, 2]
Conversion Features: [(275, 17444.3), (309, 19608.3), (913, 57981.7), (934, 59318.24), (1058, 67244.3)]
Degree of Fit: 3
Fit Coeffecients: [ 8.59183e-07 -0.001482  64.3003 -144.207]
pH: Low
Steel Fiber: True
Aging Temp.: 60
Aging Atm.: 100% CO2
Aging Humidity: None
Aging Time: 4

*********
#Bins	Energy [keV]	Avg. Background	-12.25	-12.0	-11.75	-11.5	-11.25	-11.0	-10.75	-10.5	-10.25	-10.0	-9.75	-9.5	-9.25	-9.0	-8.75	-8.5	-8.25	-8.0	-7.75	-7.5	-7.25	-7.0	-6.75	-6.5	-6.25	-6.0
6	0.242	1813.33	27.67	95.67	15.67	75.67	25.67	56.67	54.67	31.67	-16.33	37.67	-3.33	83.67	104.67	37.67	-39.33	15.67	-25.33	18.67	80.67	71.67	-14.33	-35.33	83.67	39.67	-8.33	-70.33
13	0.691	1239.67	51.33	22.33	-35.67	13.33	35.33	6.33	55.33	10.33	10.33	-32.67	-21.67	45.33	48.33	-45.67	-2.67	-17.67	16.33	-31.67	-20.67	-4.67	0.33	7.33	-13.67	26.33	29.33	-0.67
20	1.141	324.67	6.33	-2.67	-25.67	-32.67	-45.67	-45.67	27.33	21.33	-35.67	-9.67	-37.67	-35.67	-6.67	-27.67	-7.67	-11.67	-16.67	-9.67	-5.67	-10.67	-14.67	-31.67	-15.67	-5.67	-4.67	-0.67
27	1.591	48.0	14.0	22.0	-1.0	-1.0	0.0	-6.0	22.0	1.0	1.0	-6.0	-7.0	8.0	1.0	3.0	-1.0	4.0	11.0	7.0	13.0	20.0	2.0	4.0	6.0	2.0	6.0	1.0
34	2.04	4.67	1.33	2.33	3.33	0.33	8.33	6.33	1.33	5.33	4.33	1.33	3.33	3.33	1.33	4.33	-0.67	0.33	1.33	3.33	4.33	2.33	-3.67	2.33	3.33	5.33	1.33	1.33
41	2.49	0.0	1.0	0.0	1.0	1.0	0.0	1.0	1.0	1.0	1.0	1.0	0.0	0.0	1.0	0.0	0.0	0.0	1.0	0.0	0.0	2.0	1.0	1.0	0.0	0.0	0.0	0.0
48	2.939	0.33	-0.33	-0.33	-0.33	-0.33	-0.33	-0.33	-0.33	-0.33	-0.33	-0.33	-0.33	0.67	0.67	0.67	0.67	-0.33	-0.33	0.67	-0.33	1.67	-0.33	0.67	-0.33	-0.33	-0.33	-0.33
55	3.388	0.0	0.0	1.0	0.0	1.0	0.0	0.0	0.0	1.0	1.0	0.0	0.0	0.0	0.0	0.0	0.0	1.0	0.0	2.0	0.0	0.0	2.0	0.0	1.0	0.0	2.0	0.0
62	3.837	0.67	0.33	-0.67	-0.67	0.33	-0.67	-0.67	0.33	-0.67	-0.67	-0.67	-0.67	1.33	1.33	0.33	-0.67	-0.67	-0.67	-0.67	-0.67	0.33	-0.67	-0.67	0.33	0.33	0.33	-0.67
69	4.286	0.67	-0.67	-0.67	-0.67	-0.67	-0.67	-0.67	0.33	-0.67	-0.67	0.33	0.33	-0.67	-0.67	-0.67	0.33	-0.67	0.33	-0.67	-0.67	0.33	-0.67	-0.67	-0.67	-0.67	-0.67	0.33
76	4.734	0.0	0.0	2.0	1.0	0.0	1.0	0.0	0.0	0.0	1.0	0.0	2.0	0.0	1.0	0.0	1.0	1.0	0.0	0.0	1.0	0.0	2.0	0.0	0.0	1.0	0.0	0.0
83	5.183	0.33	1.67	-0.33	0.67	-0.33	-0.33	-0.33	-0.33	-0.33	0.67	1.67	-0.33	-0.33	0.67	-0.33	-0.33	0.67	-0.33	2.67	0.67	-0.33	-0.33	3.67	-0.33	-0.33	-0.33	0.67
90	5.631	0.33	0.67	-0.33	-0.33	-0.33	-0.33	-0.33	0.67	-0.33	0.67	-0.33	-0.33	0.67	-0.33	2.67	-0.33	0.67	-0.33	1.67	-0.33	1.67	1.67	-0.33	2.67	0.67	0.67	-0.33
97	6.08	0.33	-0.33	-0.33	-0.33	-0.33	0.67	0.67	-0.33	1.67	1.67	0.67	1.67	5.67	1.67	4.67	-0.33	-0.33	0.67	0.67	0.67	2.67	2.67	-0.33	1.67	-0.33	1.67	-0.33
104	6.528	0.33	-0.33	2.67	0.67	0.67	-0.33	1.67	-0.33	0.67	0.67	1.67	2.67	1.67	-0.33	1.67	2.67	1.67	-0.33	-0.33	1.67	0.67	0.67	1.67	-0.33	-0.33	-0.33	1.67
111	6.976	1.0	0.0	3.0	4.0	0.0	1.0	3.0	0.0	1.0	3.0	1.0	2.0	2.0	1.0	2.0	-1.0	-1.0	1.0	0.0	0.0	1.0	2.0	3.0	2.0	2.0	3.0	1.0
118	7.424	1.67	3.33	2.33	0.33	3.33	4.33	3.33	4.33	5.33	1.33	2.33	-0.67	0.33	9.33	1.33	2.33	-0.67	1.33	5.33	9.33	2.33	6.33	2.33	2.33	0.33	-0.67	1.33
125	7.872	4.67	3.33	-2.67	0.33	-1.67	2.33	-0.67	-2.67	-0.67	-0.67	-0.67	2.33	5.33	0.33	2.33	0.33	1.33	-2.67	-0.67	0.33	1.33	2.33	1.33	2.33	-0.67	2.33	-1.67
132	8.32	5.0	2.0	-1.0	-1.0	2.0	2.0	-4.0	3.0	0.0	5.0	-2.0	3.0	2.0	2.0	6.0	2.0	1.0	3.0	8.0	2.0	6.0	5.0	4.0	1.0	2.0	0.0	4.0
139	8.767	9.0	-2.0	-3.0	0.0	1.0	-3.0	2.0	-1.0	1.0	-2.0	-3.0	-2.0	3.0	3.0	4.0	4.0	-2.0	-6.0	1.0	-4.0	-1.0	-2.0	-6.0	-5.0	1.0	0.0	-1.0
146	9.215	8.0	6.0	3.0	1.0	0.0	-3.0	3.0	2.0	7.0	5.0	0.0	4.0	0.0	4.0	-1.0	-3.0	2.0	3.0	2.0	0.0	7.0	-1.0	4.0	5.0	5.0	5.0	2.0
153	9.662	8.0	-4.0	1.0	5.0	4.0	-3.0	2.0	5.0	5.0	0.0	1.0	-2.0	9.0	6.0	1.0	5.0	2.0	8.0	7.0	-1.0	6.0	6.0	-3.0	2.0	5.0	2.0	5.0
160	10.109	7.0	-1.0	3.0	4.0	12.0	0.0	8.0	4.0	4.0	1.0	8.0	6.0	1.0	9.0	4.0	1.0	11.0	2.0	4.0	5.0	8.0	8.0	-2.0	3.0	12.0	5.0	5.0
167	10.557	11.67	-3.67	0.33	-0.67	-2.67	-1.67	-1.67	-0.67	3.33	-5.67	3.33	2.33	-1.67	-1.67	-4.67	-0.67	-0.67	3.33	-1.67	-2.67	-2.67	-4.67	1.33	3.33	0.33	3.33	4.33
174	11.004	9.0	6.0	5.0	7.0	2.0	1.0	5.0	-1.0	4.0	-1.0	0.0	4.0	-2.0	3.0	5.0	2.0	4.0	0.0	2.0	0.0	2.0	0.0	2.0	4.0	-2.0	5.0	0.0
181	11.451	11.33	-2.33	-0.33	-5.33	-1.33	3.67	0.67	2.67	2.67	2.67	-0.33	-2.33	0.67	3.67	1.67	-0.33	2.67	-3.33	-1.33	1.67	1.67	-1.33	8.67	0.67	-3.33	-1.33	5.67
188	11.898	9.33	-1.33	-1.33	-1.33	5.67	-0.33	2.67	3.67	3.67	4.67	2.67	-2.33	2.67	1.67	14.67	6.67	1.67	2.67	2.67	4.67	2.67	3.67	5.67	0.67	4.67	4.67	4.67
195	12.344	8.67	5.33	4.33	11.33	1.33	5.33	1.33	-2.67	2.33	2.33	9.33	8.33	5.33	1.33	5.33	4.33	0.33	5.33	3.33	5.33	5.33	-0.67	-2.67	5.33	3.33	4.33	1.33
202	12.791	9.67	-1.67	1.33	0.33	-1.67	0.33	3.33	5.33	3.33	2.33	0.33	5.33	1.33	2.33	1.33	3.33	3.33	3.33	4.33	6.33	4.33	0.33	6.33	2.33	2.33	4.33	6.33
209	13.238	8.33	3.67	4.67	-1.33	1.67	3.67	2.67	7.67	2.67	1.67	4.67	8.67	6.67	-0.33	1.67	0.67	-2.33	4.67	2.67	2.67	4.67	4.67	3.67	1.67	1.67	10.67	7.67
216	13.684	13.33	-7.33	-6.33	-5.33	-4.33	4.67	1.67	-2.33	-8.33	-3.33	2.67	0.67	-3.33	-4.33	-2.33	0.67	0.67	-3.33	4.67	-1.33	-1.33	-7.33	7.67	-5.33	-5.33	1.67	0.67
223	14.131	11.0	1.0	2.0	4.0	0.0	4.0	-1.0	-2.0	-3.0	2.0	-3.0	-2.0	5.0	-4.0	-2.0	0.0	5.0	3.0	-1.0	2.0	0.0	-2.0	9.0	6.0	0.0	-1.0	0.0
230	14.577	8.67	7.33	2.33	2.33	5.33	7.33	4.33	4.33	9.33	3.33	9.33	4.33	4.33	7.33	3.33	4.33	2.33	2.33	3.33	5.33	4.33	4.33	9.33	2.33	10.33	8.33	-3.67
237	15.023	10.33	-5.33	2.67	2.67	0.67	-1.33	-2.33	1.67	1.67	-1.33	0.67	3.67	-2.33	3.67	1.67	6.67	-3.33	1.67	5.67	1.67	-3.33	5.67	2.67	5.67	1.67	6.67	4.67
244	15.469	7.67	3.33	3.33	7.33	3.33	3.33	8.33	1.33	4.33	2.33	6.33	2.33	0.33	2.33	6.33	8.33	2.33	12.33	0.33	4.33	3.33	4.33	6.33	6.33	8.33	7.33	3.33
251	15.915	6.67	3.33	1.33	4.33	1.33	5.33	4.33	3.33	8.33	6.33	1.33	3.33	1.33	10.33	5.33	5.33	5.33	5.33	10.33	4.33	9.33	4.33	8.33	2.33	12.33	8.33	17.33
258	16.361	8.33	6.67	2.67	1.67	-1.33	5.67	8.67	4.67	5.67	1.67	10.67	-0.33	3.67	-0.33	-0.33	7.67	8.67	3.67	3.67	1.67	3.67	4.67	3.67	4.67	0.67	-2.33	6.67
265	16.807	8.67	0.33	0.33	2.33	3.33	2.33	-1.67	2.33	-0.67	-0.67	-1.67	2.33	0.33	-2.67	4.33	4.33	1.33	6.33	5.33	1.33	1.33	-0.67	-0.67	0.33	2.33	3.33	12.33
272	17.253	7.67	2.33	2.33	1.33	0.33	7.33	4.33	4.33	1.33	4.33	3.33	4.33	5.33	7.33	5.33	7.33	2.33	1.33	6.33	8.33	4.33	4.33	2.33	1.33	6.33	3.33	1.33
279	17.699	11.67	-7.67	-3.67	-0.67	-5.67	-2.67	1.33	1.33	-0.67	-1.67	-3.67	-0.67	-5.67	-0.67	4.33	-1.67	-4.67	0.33	6.33	-0.67	-0.67	2.33	1.33	1.33	-1.67	-2.67	1.33
286	18.145	8.0	3.0	4.0	8.0	1.0	7.0	2.0	4.0	-5.0	4.0	10.0	7.0	2.0	9.0	5.0	1.0	2.0	1.0	5.0	11.0	4.0	8.0	5.0	0.0	1.0	1.0	4.0
293	18.59	9.67	-4.67	0.33	0.33	-1.67	5.33	-1.67	-2.67	2.33	-2.67	5.33	-2.67	1.33	3.33	0.33	4.33	3.33	0.33	7.33	3.33	3.33	9.33	0.33	0.33	2.33	1.33	3.33
300	19.036	11.67	-6.67	0.33	-3.67	-3.67	-5.67	-1.67	1.33	-2.67	-3.67	-2.67	1.33	-2.67	1.33	5.33	3.33	-5.67	4.33	-3.67	2.33	2.33	0.33	6.33	-0.67	-6.67	1.33	-3.67
307	19.481	11.67	-3.67	-2.67	-4.67	-2.67	3.33	1.33	-5.67	1.33	2.33	-1.67	3.33	7.33	0.33	-4.67	2.33	0.33	5.33	-0.67	0.33	4.33	1.33	-0.67	-1.67	2.33	4.33	-4.67
314	19.927	8.33	4.67	-5.33	3.67	1.67	3.67	1.67	5.67	-2.33	-3.33	-2.33	-2.33	0.67	-0.33	-2.33	-1.33	0.67	-1.33	4.67	3.67	6.67	1.67	1.67	5.67	-4.33	3.67	3.67
321	20.372	8.67	-0.67	0.33	3.33	3.33	9.33	6.33	1.33	5.33	-1.67	-1.67	3.33	4.33	2.33	0.33	8.33	7.33	6.33	5.33	3.33	3.33	1.33	0.33	0.33	8.33	7.33	2.33
328	20.817	9.67	3.33	-0.67	3.33	8.33	-2.67	2.33	-3.67	6.33	0.33	-0.67	-3.67	5.33	2.33	-2.67	4.33	1.33	-2.67	-1.67	-2.67	1.33	-0.67	-2.67	0.33	1.33	-2.67	2.33
335	21.262	9.0	1.0	-1.0	-2.0	5.0	1.0	3.0	-2.0	3.0	0.0	1.0	-1.0	0.0	0.0	3.0	6.0	7.0	6.0	4.0	7.0	9.0	3.0	2.0	5.0	-4.0	0.0	6.0
342	21.708	9.33	0.67	1.67	-0.33	0.67	-2.33	-0.33	1.67	1.67	-2.33	6.67	-3.33	-5.33	2.67	-0.33	-2.33	1.67	-0.33	0.67	-4.33	-2.33	-3.33	4.67	1.67	-2.33	2.67	-2.33
349	22.153	5.67	3.33	1.33	4.33	10.33	7.33	0.33	2.33	2.33	2.33	4.33	0.33	3.33	5.33	10.33	5.33	8.33	2.33	4.33	4.33	1.33	3.33	8.33	5.33	6.33	5.33	7.33
356	22.598	9.67	-5.67	12.33	4.33	-6.67	1.33	0.33	-5.67	-2.67	-3.67	0.33	3.33	-1.67	-0.67	0.33	5.33	5.33	-2.67	-2.67	2.33	-4.67	-1.67	-1.67	3.33	-5.67	4.33	7.33
363	23.043	11.0	-1.0	-3.0	-1.0	-1.0	-2.0	2.0	-4.0	12.0	2.0	-1.0	-1.0	4.0	1.0	0.0	-5.0	-1.0	-1.0	-2.0	-1.0	0.0	5.0	2.0	1.0	-1.0	2.0	-3.0
370	23.488	9.0	-1.0	1.0	2.0	2.0	-2.0	-2.0	0.0	0.0	1.0	3.0	0.0	-1.0	-1.0	-1.0	-2.0	4.0	-3.0	-1.0	-2.0	6.0	7.0	2.0	7.0	2.0	3.0	2.0
377	23.932	7.67	2.33	0.33	-0.67	0.33	2.33	-1.67	-3.67	1.33	0.33	1.33	6.33	1.33	4.33	1.33	-2.67	4.33	0.33	1.33	2.33	3.33	0.33	5.33	9.33	4.33	0.33	0.33
384	24.377	7.67	0.33	2.33	-3.67	1.33	2.33	2.33	8.33	2.33	-1.67	6.33	-2.67	4.33	5.33	3.33	2.33	3.33	5.33	1.33	2.33	3.33	0.33	-1.67	2.33	4.33	3.33	-0.67
391	24.822	7.33	-1.33	-0.33	4.67	-1.33	-4.33	2.67	1.67	-7.33	3.67	7.67	3.67	3.67	7.67	2.67	8.67	3.67	1.67	4.67	4.67	-0.33	7.67	5.67	-2.33	0.67	1.67	1.67
398	25.267	8.0	2.0	-2.0	0.0	-2.0	0.0	0.0	0.0	4.0	5.0	8.0	-2.0	-4.0	-1.0	0.0	3.0	2.0	9.0	2.0	-1.0	-1.0	5.0	6.0	5.0	-1.0	6.0	-2.0
405	25.711	5.33	1.67	3.67	2.67	2.67	2.67	4.67	-0.33	6.67	4.67	9.67	2.67	7.67	2.67	9.67	3.67	2.67	5.67	-0.33	4.67	3.67	4.67	3.67	3.67	3.67	3.67	10.67
412	26.156	9.0	-3.0	-1.0	5.0	-3.0	0.0	3.0	-2.0	-3.0	1.0	-5.0	-2.0	2.0	-3.0	2.0	0.0	-1.0	1.0	3.0	3.0	0.0	2.0	6.0	5.0	3.0	-4.0	1.0
419	26.601	6.0	-2.0	8.0	8.0	2.0	3.0	1.0	0.0	3.0	2.0	0.0	-1.0	3.0	1.0	7.0	3.0	1.0	4.0	-2.0	6.0	3.0	0.0	4.0	8.0	7.0	4.0	6.0
426	27.045	6.67	3.33	0.33	-1.67	1.33	0.33	3.33	1.33	-0.67	1.33	3.33	0.33	1.33	3.33	4.33	6.33	6.33	1.33	6.33	4.33	1.33	1.33	1.33	1.33	5.33	10.33	5.33
433	27.49	7.0	1.0	4.0	1.0	1.0	0.0	4.0	-1.0	-1.0	3.0	0.0	-4.0	1.0	2.0	2.0	3.0	6.0	8.0	0.0	1.0	1.0	0.0	-1.0	1.0	3.0	-2.0	4.0
440	27.934	6.33	-1.33	-0.33	5.67	5.67	0.67	0.67	-4.33	-2.33	-3.33	1.67	5.67	6.67	-2.33	3.67	3.67	-1.33	1.67	1.67	0.67	5.67	2.67	0.67	1.67	-0.33	-1.33	2.67
447	28.379	6.67	-0.67	-0.67	-1.67	3.33	2.33	-0.67	1.33	3.33	-1.67	3.33	0.33	7.33	1.33	1.33	-4.67	0.33	-1.67	2.33	-2.67	2.33	2.33	-0.67	4.33	3.33	3.33	3.33
454	28.823	6.0	3.0	2.0	-2.0	1.0	-3.0	-1.0	3.0	0.0	4.0	3.0	5.0	5.0	4.0	2.0	4.0	4.0	2.0	0.0	3.0	6.0	0.0	4.0	1.0	4.0	7.0	-1.0
461	29.267	6.67	2.33	1.33	0.33	0.33	-0.67	-1.67	1.33	1.33	0.33	3.33	-4.67	5.33	4.33	0.33	-2.67	-1.67	0.33	-0.67	0.33	-1.67	1.33	1.33	8.33	3.33	-3.67	-1.67
468	29.712	5.33	-2.33	0.67	-3.33	-1.33	-1.33	-0.33	6.67	2.67	3.67	2.67	1.67	4.67	-0.33	2.67	4.67	-0.33	1.67	-0.33	2.67	5.67	6.67	0.67	-3.33	1.67	-0.33	-0.33
475	30.156	6.33	-0.33	1.67	-0.33	0.67	1.67	2.67	1.67	-0.33	-1.33	3.67	2.67	-3.33	4.67	1.67	1.67	-0.33	-2.33	0.67	-0.33	3.67	3.67	0.67	4.67	-1.33	-2.33	5.67
482	30.6	7.0	0.0	0.0	-4.0	-2.0	-3.0	1.0	-1.0	-3.0	-2.0	2.0	2.0	-3.0	4.0	3.0	-2.0	2.0	1.0	1.0	-3.0	9.0	0.0	-3.0	6.0	1.0	-1.0	0.0
489	31.045	6.67	-3.67	1.33	-6.67	-4.67	2.33	6.33	1.33	0.33	0.33	5.33	-3.67	2.33	3.33	-1.67	0.33	0.33	-2.67	3.33	1.33	-1.67	-0.67	7.33	3.33	2.33	-2.67	3.33
496	31.489	7.67	-4.67	-0.67	3.33	-0.67	-4.67	0.33	-3.67	-0.67	-5.67	5.33	1.33	0.33	-5.67	7.33	-0.67	-3.67	-1.67	-3.67	4.33	1.33	-0.67	4.33	0.33	-3.67	1.33	0.33
503	31.933	8.33	2.67	-2.33	-2.33	-6.33	-2.33	-2.33	1.67	-0.33	-3.33	0.67	-3.33	-2.33	-4.33	-1.33	-1.33	-6.33	-0.33	-1.33	-3.33	-3.33	-6.33	-3.33	-3.33	3.67	1.67	-1.33
510	32.377	4.67	0.33	1.33	1.33	2.33	8.33	1.33	-1.67	-1.67	2.33	5.33	-1.67	2.33	1.33	0.33	0.33	-1.67	2.33	-0.67	2.33	3.33	0.33	3.33	6.33	10.33	3.33	6.33
517	32.822	3.0	4.0	1.0	1.0	8.0	3.0	-1.0	8.0	0.0	2.0	1.0	0.0	5.0	3.0	7.0	1.0	5.0	3.0	3.0	3.0	3.0	1.0	3.0	7.0	3.0	3.0	5.0
524	33.266	6.33	-1.33	-0.33	-4.33	-1.33	-5.33	-1.33	-1.33	0.67	1.67	0.67	-1.33	-0.33	-3.33	4.67	-5.33	-1.33	-2.33	1.67	-0.33	-2.33	-0.33	-3.33	0.67	0.67	5.67	3.67
531	33.71	6.33	-1.33	-2.33	-0.33	-5.33	3.67	0.67	2.67	0.67	-2.33	7.67	-4.33	1.67	-1.33	1.67	0.67	1.67	1.67	-1.33	0.67	2.67	-0.33	-0.33	-4.33	-1.33	1.67	1.67
538	34.154	4.67	-0.67	0.33	3.33	6.33	-0.67	-0.67	1.33	5.33	0.33	0.33	4.33	1.33	1.33	4.33	-0.67	-1.67	2.33	1.33	-0.67	7.33	-2.67	10.33	0.33	5.33	0.33	2.33
545	34.598	5.67	-0.67	-1.67	0.33	-1.67	3.33	0.33	-4.67	-0.67	0.33	6.33	2.33	-3.67	2.33	4.33	-3.67	-3.67	-0.67	2.33	-0.67	-1.67	-0.67	3.33	2.33	-1.67	0.33	-0.67
552	35.043	5.0	1.0	-2.0	0.0	1.0	4.0	1.0	0.0	0.0	0.0	-2.0	1.0	1.0	1.0	-2.0	0.0	1.0	1.0	-1.0	-2.0	1.0	-1.0	-4.0	0.0	4.0	-1.0	4.0
559	35.487	4.0	0.0	0.0	1.0	0.0	-1.0	0.0	1.0	-2.0	-1.0	-3.0	-1.0	-1.0	2.0	6.0	3.0	0.0	-3.0	2.0	0.0	5.0	10.0	0.0	-1.0	7.0	0.0	-2.0
566	35.931	4.0	3.0	1.0	1.0	2.0	1.0	2.0	2.0	-2.0	0.0	5.0	2.0	-2.0	5.0	8.0	1.0	1.0	4.0	1.0	2.0	2.0	0.0	-1.0	-1.0	3.0	3.0	4.0
573	36.375	4.0	-3.0	3.0	0.0	5.0	-1.0	-1.0	1.0	0.0	1.0	2.0	0.0	4.0	-2.0	7.0	4.0	2.0	4.0	2.0	1.0	1.0	7.0	0.0	-1.0	3.0	1.0	4.0
580	36.819	5.0	-5.0	-2.0	-1.0	3.0	-1.0	3.0	-1.0	-2.0	1.0	-1.0	0.0	-1.0	4.0	-2.0	-3.0	4.0	5.0	-1.0	0.0	-1.0	1.0	3.0	1.0	1.0	0.0	0.0
587	37.263	5.0	-1.0	2.0	-1.0	-2.0	-1.0	-1.0	1.0	3.0	1.0	7.0	3.0	-1.0	1.0	0.0	-3.0	1.0	0.0	1.0	0.0	0.0	5.0	-2.0	2.0	-1.0	-3.0	7.0
594	37.707	4.0	2.0	0.0	-1.0	2.0	2.0	-1.0	1.0	-1.0	4.0	1.0	2.0	0.0	3.0	5.0	2.0	3.0	5.0	0.0	2.0	-2.0	3.0	0.0	5.0	0.0	3.0	1.0
601	38.152	6.0	-3.0	-2.0	-2.0	1.0	2.0	3.0	1.0	-2.0	0.0	-3.0	1.0	-3.0	-3.0	-4.0	-1.0	6.0	-2.0	5.0	-1.0	0.0	0.0	0.0	-3.0	2.0	6.0	1.0
608	38.596	6.33	-1.33	-3.33	3.67	-0.33	-0.33	-3.33	0.67	0.67	1.67	-2.33	-3.33	-4.33	-4.33	-3.33	0.67	-1.33	2.67	-0.33	-5.33	-2.33	6.67	5.67	-2.33	2.67	4.67	1.67
615	39.04	5.0	-3.0	-1.0	1.0	-2.0	3.0	1.0	0.0	3.0	3.0	2.0	-3.0	2.0	1.0	-3.0	6.0	0.0	3.0	3.0	1.0	2.0	1.0	-3.0	0.0	1.0	2.0	1.0
622	39.484	6.33	1.67	-1.33	-1.33	1.67	-4.33	-3.33	-2.33	-3.33	-2.33	-1.33	-1.33	-0.33	0.67	-1.33	-2.33	-0.33	-1.33	0.67	0.67	-2.33	-2.33	-4.33	0.67	2.67	-1.33	-0.33
629	39.928	8.0	-2.0	0.0	-3.0	-3.0	-6.0	0.0	-1.0	3.0	-2.0	-4.0	-6.0	-1.0	-4.0	-7.0	-1.0	-2.0	-2.0	2.0	-3.0	0.0	-3.0	-3.0	-1.0	0.0	-2.0	-1.0
636	40.372	7.33	0.67	-0.33	-1.33	-5.33	-2.33	-1.33	-4.33	-1.33	-2.33	0.67	-2.33	-1.33	-4.33	-1.33	1.67	0.67	-4.33	2.67	-2.33	-0.33	-3.33	-2.33	-0.33	-0.33	-3.33	-1.33
643	40.817	7.33	-6.33	-0.33	-1.33	-5.33	-2.33	-4.33	-1.33	-3.33	-1.33	-0.33	-0.33	-3.33	-3.33	-2.33	-1.33	-0.33	0.67	-2.33	-3.33	0.67	-2.33	-1.33	-2.33	1.67	-1.33	-3.33
650	41.261	5.33	1.67	-3.33	-0.33	-2.33	-3.33	-3.33	-0.33	-3.33	-3.33	2.67	-2.33	-1.33	6.67	-2.33	-0.33	-2.33	1.67	3.67	0.67	3.67	-1.33	-0.33	2.67	-0.33	0.67	1.67
657	41.705	7.67	-0.67	-0.67	1.33	-0.67	-5.67	-2.67	-4.67	-2.67	-4.67	1.33	-1.67	-4.67	-1.67	-1.67	-5.67	-1.67	-2.67	-2.67	-2.67	-5.67	4.33	1.33	-3.67	-2.67	1.33	2.33
664	42.149	7.0	-1.0	-3.0	0.0	-5.0	-3.0	-4.0	1.0	-3.0	-4.0	-2.0	5.0	0.0	0.0	3.0	2.0	-3.0	-1.0	-1.0	1.0	1.0	-2.0	-1.0	-3.0	2.0	0.0	0.0
671	42.594	7.33	-3.33	-3.33	2.67	3.67	-3.33	2.67	-0.33	-4.33	0.67	-2.33	-3.33	-5.33	-0.33	-3.33	-0.33	-0.33	-3.33	-3.33	-0.33	-3.33	0.67	0.67	-5.33	-3.33	0.67	-4.33
678	43.038	8.33	0.67	3.67	-5.33	2.67	0.67	-5.33	-4.33	-5.33	-4.33	-3.33	-3.33	-0.33	-4.33	-2.33	-1.33	2.67	-6.33	2.67	-6.33	-5.33	-3.33	-5.33	-0.33	4.67	-4.33	-3.33
685	43.482	8.0	-5.0	-1.0	-5.0	-2.0	-1.0	-6.0	-2.0	1.0	-5.0	0.0	-1.0	3.0	-5.0	-5.0	0.0	-1.0	-1.0	-4.0	-4.0	4.0	0.0	-2.0	-2.0	-1.0	1.0	-3.0
692	43.927	6.0	1.0	4.0	3.0	1.0	2.0	3.0	7.0	4.0	0.0	6.0	-1.0	2.0	-1.0	3.0	1.0	-2.0	2.0	0.0	0.0	2.0	3.0	5.0	0.0	2.0	-1.0	1.0
699	44.371	9.0	-7.0	-4.0	-6.0	0.0	-1.0	-3.0	-4.0	-4.0	1.0	0.0	-2.0	2.0	-2.0	-3.0	3.0	-1.0	-1.0	-4.0	-1.0	-4.0	-6.0	-2.0	-1.0	-3.0	-3.0	-2.0
706	44.815	7.67	-2.67	0.33	0.33	0.33	3.33	1.33	-0.67	-0.67	-1.67	-3.67	1.33	3.33	-0.67	-2.67	-3.67	-2.67	-5.67	-2.67	0.33	-2.67	-1.67	7.33	-0.67	-0.67	0.33	-0.67
713	45.26	9.0	-4.0	-3.0	-1.0	-1.0	-1.0	0.0	2.0	-4.0	-2.0	-3.0	-4.0	1.0	0.0	-2.0	-3.0	-4.0	0.0	1.0	-6.0	-5.0	-1.0	-3.0	-2.0	-4.0	-2.0	-5.0
720	45.704	10.67	-5.67	-5.67	-6.67	1.33	-1.67	-5.67	-5.67	-5.67	1.33	-3.67	-0.67	-4.67	0.33	1.33	-1.67	-3.67	-6.67	-6.67	-6.67	-5.67	-3.67	-8.67	-0.67	-4.67	0.33	-5.67
727	46.149	9.33	-0.33	1.67	-4.33	1.67	1.67	-0.33	-5.33	-2.33	2.67	-2.33	-2.33	1.67	-3.33	-7.33	-4.33	-3.33	0.67	-0.33	-0.33	-2.33	-3.33	2.67	-5.33	-3.33	-3.33	-5.33
734	46.594	13.67	-8.67	-8.67	-7.67	-3.67	-5.67	-5.67	-3.67	-3.67	-4.67	-5.67	-3.67	-8.67	-1.67	-3.67	-0.67	-2.67	-5.67	-3.67	-7.67	-4.67	-6.67	-7.67	-3.67	-10.67	-8.67	-2.67
741	47.038	13.0	0.0	-5.0	-2.0	-9.0	0.0	-4.0	1.0	-3.0	-4.0	-3.0	-4.0	-5.0	2.0	-5.0	-7.0	-7.0	-7.0	-10.0	-3.0	-6.0	4.0	-7.0	-11.0	-9.0	-6.0	-4.0
748	47.483	10.0	5.0	-5.0	-4.0	-1.0	5.0	-1.0	-8.0	2.0	-4.0	0.0	-3.0	1.0	0.0	-2.0	-4.0	-2.0	-3.0	-4.0	-2.0	-2.0	-1.0	-1.0	2.0	1.0	-5.0	-8.0
755	47.928	11.0	-4.0	-4.0	-4.0	-3.0	-1.0	-2.0	-3.0	-6.0	1.0	3.0	1.0	-2.0	-2.0	2.0	-5.0	0.0	-5.0	0.0	-5.0	-4.0	0.0	-6.0	2.0	-2.0	0.0	-5.0
762	48.372	10.33	-1.33	-1.33	7.67	-6.33	0.67	-3.33	-2.33	-1.33	-0.33	-4.33	-4.33	-7.33	1.67	-0.33	-1.33	-2.33	-3.33	-0.33	-2.33	-4.33	-6.33	-0.33	-5.33	-5.33	-4.33	-3.33
769	48.817	8.67	1.33	3.33	1.33	0.33	-2.67	-3.67	0.33	-2.67	0.33	-2.67	-5.67	-1.67	-3.67	-1.67	-2.67	-2.67	7.33	-0.67	-1.67	2.33	1.33	1.33	-1.67	1.33	-2.67	4.33
776	49.262	11.0	-5.0	-3.0	2.0	-2.0	3.0	-3.0	-4.0	-2.0	2.0	-4.0	-2.0	4.0	1.0	-9.0	2.0	4.0	-4.0	-4.0	-3.0	1.0	-1.0	-2.0	-1.0	-2.0	-4.0	4.0
783	49.707	11.67	2.33	-1.67	-5.67	-1.67	-1.67	-6.67	-3.67	-1.67	3.33	1.33	6.33	4.33	-2.67	1.33	-0.67	-1.67	-6.67	-1.67	1.33	-3.67	-3.67	-3.67	-0.67	-1.67	2.33	-7.67
790	50.152	10.67	2.33	2.33	4.33	-1.67	1.33	-3.67	4.33	-2.67	-0.67	1.33	0.33	-2.67	1.33	-2.67	-5.67	-1.67	-6.67	-1.67	0.33	-3.67	-2.67	-7.67	-2.67	-1.67	1.33	0.33
797	50.597	12.67	-3.67	-4.67	-5.67	-2.67	0.33	0.33	2.33	-2.67	-2.67	-4.67	-4.67	-1.67	-4.67	-1.67	-2.67	-6.67	-0.67	-7.67	-3.67	-6.67	-4.67	-6.67	-4.67	-3.67	2.33	-0.67
804	51.042	13.67	-5.67	-1.67	-4.67	3.33	2.33	-2.67	1.33	1.33	-3.67	-3.67	0.33	-2.67	-4.67	-3.67	-4.67	-2.67	0.33	-2.67	-3.67	2.33	-6.67	-4.67	1.33	-2.67	5.33	-5.67
811	51.487	13.67	-5.67	1.33	0.33	3.33	3.33	-4.67	-1.67	1.33	-3.67	-8.67	2.33	-5.67	-3.67	0.33	-4.67	-2.67	-5.67	0.33	-1.67	-6.67	-4.67	-7.67	-3.67	-0.67	0.33	-6.67
818	51.932	14.67	0.33	-0.67	-4.67	-4.67	-4.67	2.33	-9.67	-3.67	2.33	-3.67	1.33	-5.67	-6.67	5.33	-8.67	-0.67	-5.67	-6.67	-5.67	-4.67	-2.67	-3.67	-10.67	0.33	-3.67	-4.67
825	52.377	15.33	-5.33	-7.33	-0.33	-8.33	-0.33	-4.33	-8.33	0.67	-3.33	-6.33	-5.33	-8.33	-4.33	-6.33	-1.33	-8.33	-3.33	-6.33	-5.33	-8.33	-3.33	-8.33	-2.33	-4.33	-3.33	-3.33
832	52.823	12.0	-1.0	-2.0	-1.0	-1.0	2.0	-3.0	3.0	-1.0	-2.0	1.0	-4.0	2.0	-3.0	5.0	-6.0	-4.0	-1.0	-2.0	-1.0	-3.0	4.0	-4.0	1.0	-4.0	-4.0	-5.0
839	53.268	17.67	-9.67	-8.67	-4.67	-5.67	-3.67	-6.67	-7.67	-6.67	-1.67	-10.67	6.33	-5.67	-9.67	-2.67	-6.67	-2.67	-9.67	-3.67	-4.67	-5.67	-1.67	-12.67	-10.67	-4.67	-9.67	-10.67
846	53.713	15.0	-6.0	1.0	-6.0	-3.0	-5.0	-6.0	-5.0	-8.0	-6.0	0.0	-1.0	1.0	-4.0	-4.0	-1.0	3.0	-1.0	-1.0	3.0	-3.0	-3.0	-8.0	-5.0	-4.0	-4.0	-4.0
853	54.159	15.0	-2.0	-7.0	-4.0	0.0	0.0	5.0	-3.0	-7.0	-2.0	0.0	1.0	12.0	4.0	-2.0	0.0	6.0	-6.0	1.0	-3.0	0.0	-2.0	-3.0	1.0	-4.0	-1.0	-6.0
860	54.604	14.67	-2.67	2.33	-1.67	10.33	5.33	-1.67	-1.67	-2.67	-1.67	8.33	-1.67	-2.67	-3.67	1.33	-1.67	-7.67	-4.67	1.33	-1.67	-5.67	7.33	-0.67	-0.67	-3.67	-4.67	-4.67
867	55.05	14.67	-3.67	-6.67	-1.67	-4.67	-0.67	-2.67	-1.67	-1.67	-0.67	3.33	-2.67	4.33	-5.67	-7.67	1.33	1.33	0.33	4.33	-3.67	-12.67	-5.67	-9.67	-9.67	-1.67	1.33	-2.67
874	55.496	16.67	-8.67	-1.67	-5.67	2.33	6.33	-8.67	-1.67	-8.67	4.33	-2.67	-2.67	-0.67	4.33	5.33	-6.67	-0.67	-7.67	-2.67	-5.67	1.33	-5.67	-4.67	-5.67	-5.67	8.33	-5.67
881	55.942	13.67	1.33	-4.67	-2.67	0.33	5.33	4.33	3.33	0.33	3.33	0.33	-4.67	6.33	5.33	-0.67	10.33	-5.67	3.33	-3.67	-1.67	2.33	12.33	-0.67	-1.67	-1.67	3.33	2.33
888	56.387	15.67	2.33	4.33	-2.67	5.33	1.33	3.33	-2.67	-3.67	-4.67	-1.67	7.33	-1.67	-3.67	1.33	-2.67	-1.67	-3.67	-3.67	-1.67	0.33	-1.67	-1.67	-1.67	2.33	0.33	-1.67
895	56.833	14.67	3.33	2.33	1.33	9.33	14.33	8.33	5.33	4.33	-0.67	-0.67	1.33	-0.67	3.33	2.33	3.33	-7.67	-0.67	-4.67	-7.67	-2.67	-2.67	3.33	-0.67	-1.67	1.33	-6.67
902	57.279	17.0	0.0	1.0	-6.0	3.0	5.0	-6.0	-4.0	0.0	2.0	1.0	4.0	1.0	-4.0	6.0	5.0	-4.0	-7.0	2.0	3.0	-1.0	-8.0	2.0	-1.0	-5.0	0.0	0.0
909	57.726	21.33	-9.33	-2.33	-4.33	-2.33	-2.33	-2.33	-0.33	-0.33	-1.33	-5.33	-5.33	-6.33	-2.33	-2.33	1.67	-5.33	-0.33	-8.33	-3.33	-1.33	0.67	-6.33	-8.33	-7.33	-7.33	-0.33
916	58.172	18.0	-5.0	-9.0	4.0	12.0	10.0	2.0	11.0	4.0	-1.0	5.0	0.0	-3.0	0.0	-8.0	7.0	10.0	3.0	-1.0	0.0	1.0	-7.0	8.0	3.0	-4.0	-5.0	-5.0
923	58.618	18.0	-8.0	-2.0	8.0	5.0	-3.0	6.0	6.0	6.0	1.0	1.0	8.0	0.0	-2.0	3.0	-2.0	-1.0	4.0	6.0	2.0	7.0	4.0	8.0	3.0	-2.0	0.0	1.0
930	59.064	20.67	-6.67	-2.67	11.33	39.33	25.33	15.33	5.33	2.33	6.33	17.33	17.33	16.33	12.33	5.33	-2.67	14.33	0.33	10.33	9.33	32.33	45.33	38.33	7.33	2.33	4.33	7.33
937	59.511	19.67	-9.67	6.33	20.33	82.33	81.33	22.33	11.33	15.33	27.33	61.33	68.33	93.33	25.33	2.33	13.33	20.33	16.33	5.33	41.33	100.33	103.33	72.33	20.33	27.33	18.33	9.33
944	59.957	21.0	-6.0	3.0	11.0	29.0	54.0	12.0	28.0	10.0	30.0	44.0	110.0	91.0	19.0	7.0	24.0	15.0	23.0	7.0	24.0	37.0	39.0	32.0	19.0	41.0	36.0	15.0
951	60.404	16.33	-5.33	3.67	21.67	8.67	27.67	7.67	15.67	11.67	18.67	15.67	35.67	20.67	-2.33	10.67	6.67	0.67	4.67	10.67	19.67	8.67	14.67	5.67	12.67	20.67	23.67	13.67
958	60.851	21.33	-6.33	-8.33	-2.33	-1.33	8.67	-3.33	-6.33	3.67	2.67	6.67	4.67	-2.33	-11.33	-5.33	-3.33	-1.33	-10.33	0.67	-2.33	-2.33	-9.33	-6.33	-0.33	0.67	3.67	-6.33
965	61.298	22.33	-8.33	-13.33	-1.33	1.67	-1.33	-1.33	2.67	6.67	-0.33	-5.33	-8.33	-3.33	-9.33	-10.33	-2.33	1.67	-5.33	-10.33	-1.33	0.67	-10.33	-6.33	-1.33	-7.33	-2.33	-8.33
972	61.745	18.33	-4.33	-4.33	1.67	-6.33	13.67	-0.33	4.67	6.67	3.67	2.67	5.67	2.67	0.67	-1.33	1.67	3.67	0.67	-5.33	3.67	2.67	4.67	1.67	0.67	2.67	3.67	10.67
979	62.192	17.33	-4.33	-3.33	16.67	18.67	22.67	19.67	23.67	47.67	10.67	12.67	4.67	9.67	8.67	18.67	6.67	10.67	19.67	10.67	14.67	5.67	4.67	1.67	-1.33	15.67	15.67	20.67
986	62.639	18.33	-3.33	42.67	28.67	46.67	44.67	20.67	28.67	30.67	18.67	15.67	20.67	22.67	21.67	23.67	26.67	21.67	13.67	6.67	8.67	8.67	18.67	10.67	5.67	15.67	11.67	24.67
993	63.086	19.0	2.0	125.0	103.0	110.0	75.0	20.0	4.0	16.0	12.0	63.0	30.0	19.0	21.0	18.0	23.0	14.0	13.0	7.0	13.0	0.0	3.0	10.0	9.0	6.0	16.0	14.0
1000	63.533	17.33	0.67	65.67	75.67	71.67	35.67	13.67	7.67	13.67	15.67	22.67	12.67	9.67	13.67	-1.33	-0.33	11.67	3.67	2.67	1.67	1.67	-6.33	9.67	-2.33	9.67	3.67	2.67
1007	63.981	20.33	-4.33	-0.33	11.67	10.67	-5.33	0.67	5.67	-8.33	2.67	9.67	-4.33	-1.33	2.67	0.67	-1.33	-0.33	-5.33	-3.33	-5.33	-2.33	-3.33	4.67	-0.33	-10.33	-4.33	-8.33
1014	64.428	16.0	-7.0	-7.0	-1.0	1.0	5.0	11.0	7.0	6.0	11.0	7.0	6.0	2.0	2.0	9.0	7.0	-2.0	7.0	5.0	11.0	14.0	20.0	8.0	10.0	-4.0	2.0	-2.0
1021	64.876	21.33	-6.33	-5.33	-0.33	2.67	4.67	6.67	9.67	6.67	5.67	-0.33	3.67	4.67	1.67	1.67	4.67	1.67	3.67	-3.33	9.67	15.67	38.67	17.67	-1.33	-2.33	-7.33	-9.33
1028	65.324	15.33	1.67	3.67	2.67	8.67	21.67	16.67	7.67	10.67	9.67	17.67	-1.33	7.67	5.67	16.67	11.67	2.67	6.67	9.67	12.67	14.67	10.67	13.67	3.67	7.67	7.67	11.67
1035	65.772	22.0	-5.0	-2.0	-9.0	9.0	8.0	6.0	18.0	11.0	10.0	3.0	17.0	-2.0	-1.0	0.0	5.0	8.0	-5.0	-1.0	-2.0	6.0	4.0	0.0	9.0	-1.0	-2.0	4.0
1042	66.22	16.33	-2.33	3.67	-2.33	0.67	17.67	24.67	35.67	17.67	18.67	6.67	10.67	13.67	14.67	7.67	8.67	16.67	3.67	10.67	12.67	11.67	14.67	9.67	0.67	1.67	9.67	11.67
1049	66.668	21.67	-6.67	-0.67	3.33	10.33	20.33	16.33	12.33	10.33	11.33	6.33	11.33	-3.67	8.33	5.33	-5.67	-2.67	-2.67	2.33	2.33	18.33	13.33	9.33	-3.67	-5.67	1.33	12.33
1056	67.116	19.67	-7.67	5.33	5.33	8.33	19.33	25.33	6.33	11.33	16.33	13.33	15.33	18.33	22.33	15.33	12.33	14.33	8.33	16.33	13.33	23.33	15.33	18.33	14.33	11.33	7.33	14.33
1063	67.564	17.0	-3.0	5.0	12.0	9.0	35.0	24.0	27.0	13.0	21.0	25.0	20.0	24.0	38.0	27.0	26.0	11.0	15.0	13.0	22.0	24.0	24.0	13.0	14.0	26.0	15.0	30.0
1070	68.013	12.0	0.0	6.0	13.0	16.0	50.0	31.0	24.0	21.0	17.0	23.0	37.0	32.0	39.0	14.0	28.0	28.0	25.0	18.0	19.0	30.0	7.0	22.0	11.0	11.0	45.0	47.0
1077	68.462	16.0	-6.0	2.0	12.0	12.0	30.0	17.0	17.0	26.0	29.0	9.0	9.0	16.0	17.0	3.0	22.0	20.0	10.0	5.0	-1.0	13.0	9.0	15.0	9.0	31.0	75.0	64.0
1084	68.91	14.67	1.33	2.33	10.33	14.33	19.33	13.33	19.33	17.33	23.33	27.33	22.33	20.33	6.33	16.33	12.33	13.33	15.33	3.33	7.33	26.33	22.33	11.33	21.33	20.33	43.33	48.33
1091	69.359	13.67	0.33	0.33	13.33	26.33	20.33	20.33	21.33	34.33	20.33	24.33	20.33	8.33	18.33	7.33	16.33	21.33	18.33	16.33	19.33	30.33	12.33	8.33	12.33	27.33	37.33	34.33
1098	69.808	16.67	-6.67	5.33	10.33	11.33	17.33	14.33	19.33	20.33	3.33	10.33	15.33	16.33	6.33	3.33	26.33	14.33	15.33	14.33	14.33	10.33	5.33	3.33	3.33	19.33	14.33	8.33
1105	70.257	13.33	-0.33	-3.33	15.67	8.67	14.67	24.67	17.67	12.67	9.67	16.67	12.67	3.67	11.67	11.67	12.67	1.67	3.67	18.67	8.67	8.67	6.67	8.67	-2.33	8.67	2.67	4.67
1112	70.707	12.0	2.0	3.0	7.0	9.0	16.0	11.0	15.0	10.0	5.0	12.0	13.0	5.0	5.0	5.0	23.0	2.0	8.0	1.0	8.0	9.0	8.0	11.0	9.0	3.0	8.0	13.0
1119	71.156	17.0	-1.0	-9.0	4.0	2.0	0.0	1.0	3.0	13.0	7.0	3.0	0.0	1.0	3.0	1.0	1.0	6.0	-2.0	7.0	9.0	5.0	3.0	7.0	12.0	7.0	3.0	6.0
1126	71.606	10.0	6.0	7.0	7.0	12.0	18.0	14.0	5.0	16.0	16.0	9.0	15.0	6.0	14.0	14.0	14.0	13.0	10.0	16.0	12.0	8.0	8.0	25.0	15.0	8.0	14.0	18.0
1133	72.055	13.33	-1.33	5.67	14.67	20.67	7.67	13.67	6.67	6.67	7.67	12.67	10.67	2.67	-0.33	5.67	15.67	22.67	16.67	13.67	14.67	2.67	13.67	1.67	8.67	13.67	5.67	13.67
1140	72.505	18.33	-1.33	8.67	25.67	42.67	24.67	12.67	21.67	18.67	8.67	9.67	8.67	16.67	3.67	5.67	22.67	21.67	27.67	18.67	23.67	4.67	13.67	6.67	7.67	16.67	4.67	8.67
1147	72.955	24.0	5.0	23.0	31.0	32.0	37.0	22.0	17.0	25.0	11.0	22.0	18.0	18.0	34.0	35.0	42.0	34.0	38.0	30.0	16.0	13.0	11.0	6.0	22.0	6.0	14.0	7.0
1154	73.405	21.33	10.67	7.67	11.67	9.67	20.67	8.67	20.67	13.67	7.67	8.67	5.67	30.67	29.67	45.67	56.67	60.67	48.67	22.67	-0.33	8.67	-1.33	2.67	8.67	-5.33	5.67	24.67
1161	73.855	13.67	1.33	4.33	10.33	14.33	9.33	19.33	14.33	6.33	10.33	18.33	19.33	21.33	39.33	29.33	41.33	27.33	33.33	11.33	8.33	6.33	11.33	7.33	8.33	8.33	12.33	6.33
1168	74.306	19.67	0.33	-1.67	-2.67	8.33	2.33	6.33	-8.67	12.33	6.33	2.33	5.33	14.33	9.33	7.33	11.33	0.33	-4.67	3.33	3.33	3.33	7.33	-3.67	1.33	4.33	-1.67	6.33
1175	74.756	23.67	2.33	3.33	8.33	16.33	18.33	9.33	23.33	26.33	14.33	20.33	19.33	21.33	9.33	23.33	16.33	19.33	3.33	15.33	16.33	5.33	9.33	11.33	7.33	13.33	27.33	28.33
1182	75.207	40.0	6.0	25.0	30.0	27.0	50.0	15.0	42.0	63.0	27.0	29.0	42.0	24.0	41.0	12.0	16.0	32.0	31.0	13.0	42.0	39.0	24.0	21.0	31.0	44.0	62.0	54.0
1189	75.658	24.67	2.33	89.33	82.33	40.33	93.33	89.33	124.33	111.33	47.33	72.33	79.33	59.33	51.33	49.33	35.33	71.33	145.33	68.33	42.33	63.33	45.33	79.33	61.33	79.33	72.33	72.33
1196	76.109	12.0	8.0	162.0	152.0	65.0	148.0	224.0	184.0	141.0	66.0	83.0	77.0	51.0	35.0	45.0	46.0	94.0	130.0	93.0	46.0	62.0	50.0	171.0	163.0	97.0	48.0	50.0
1203	76.56	15.33	4.67	100.67	191.67	93.67	138.67	205.67	158.67	137.67	119.67	70.67	65.67	45.67	33.67	36.67	28.67	57.67	29.67	58.67	43.67	49.67	39.67	111.67	121.67	68.67	69.67	38.67
1210	77.011	14.67	3.33	49.33	75.33	60.33	97.33	94.33	67.33	108.33	79.33	27.33	38.33	34.33	26.33	24.33	9.33	23.33	17.33	31.33	33.33	27.33	21.33	29.33	29.33	53.33	52.33	39.33
1217	77.463	13.67	-1.67	17.33	18.33	18.33	28.33	28.33	28.33	38.33	24.33	15.33	26.33	22.33	20.33	20.33	38.33	10.33	15.33	25.33	41.33	17.33	11.33	19.33	27.33	39.33	36.33	16.33
1224	77.915	8.33	6.67	20.67	12.67	25.67	24.67	30.67	29.67	22.67	27.67	17.67	25.67	26.67	22.67	23.67	33.67	20.67	24.67	22.67	34.67	26.67	28.67	33.67	41.67	40.67	26.67	15.67
1231	78.366	15.0	2.0	4.0	6.0	55.0	29.0	55.0	28.0	21.0	28.0	26.0	22.0	41.0	45.0	18.0	25.0	26.0	12.0	15.0	27.0	21.0	21.0	13.0	15.0	19.0	10.0	25.0
1238	78.818	11.33	3.67	24.67	33.67	57.67	54.67	55.67	52.67	50.67	26.67	31.67	37.67	60.67	66.67	33.67	32.67	33.67	32.67	36.67	44.67	49.67	30.67	36.67	25.67	25.67	28.67	41.67
1245	79.271	19.33	-8.33	16.67	32.67	67.67	46.67	71.67	50.67	38.67	42.67	33.67	67.67	58.67	60.67	43.67	39.67	35.67	28.67	53.67	40.67	36.67	22.67	45.67	17.67	25.67	28.67	38.67
1252	79.723	13.33	1.67	10.67	37.67	74.67	49.67	66.67	50.67	54.67	26.67	23.67	50.67	60.67	72.67	48.67	37.67	41.67	31.67	59.67	38.67	25.67	19.67	33.67	19.67	26.67	36.67	25.67
1259	80.175	21.33	-4.33	-8.33	26.67	62.67	16.67	28.67	21.67	21.67	35.67	17.67	29.67	64.67	50.67	36.67	19.67	21.67	18.67	34.67	24.67	20.67	19.67	9.67	12.67	5.67	12.67	14.67
1266	80.628	13.0	4.0	17.0	17.0	42.0	14.0	28.0	33.0	37.0	34.0	18.0	31.0	45.0	42.0	23.0	20.0	19.0	19.0	23.0	19.0	13.0	12.0	14.0	25.0	12.0	17.0	23.0
1273	81.081	13.33	3.67	5.67	15.67	27.67	18.67	23.67	30.67	16.67	24.67	16.67	15.67	29.67	15.67	18.67	14.67	7.67	13.67	12.67	11.67	12.67	10.67	15.67	20.67	7.67	16.67	15.67
1280	81.534	16.67	3.33	4.33	9.33	5.33	16.33	16.33	11.33	13.33	10.33	10.33	12.33	28.33	9.33	7.33	12.33	9.33	8.33	15.33	14.33	15.33	4.33	2.33	7.33	8.33	7.33	13.33
1287	81.987	15.33	11.67	0.67	11.67	10.67	3.67	10.67	14.67	8.67	9.67	12.67	21.67	20.67	1.67	3.67	11.67	8.67	5.67	12.67	9.67	12.67	10.67	9.67	16.67	2.67	6.67	14.67
1294	82.441	22.67	2.33	-3.67	5.33	12.33	2.33	10.33	5.33	6.33	14.33	4.33	1.33	-2.67	6.33	9.33	1.33	0.33	-9.67	-2.67	-5.67	2.33	12.33	2.33	-1.67	5.33	-2.67	-3.67
1301	82.894	17.0	11.0	2.0	1.0	15.0	13.0	-4.0	8.0	8.0	6.0	10.0	15.0	8.0	8.0	10.0	6.0	13.0	10.0	11.0	0.0	6.0	9.0	6.0	1.0	9.0	5.0	9.0
1308	83.348	18.33	15.67	-3.33	2.67	11.67	15.67	7.67	12.67	12.67	19.67	14.67	19.67	11.67	9.67	4.67	14.67	10.67	14.67	10.67	1.67	12.67	7.67	16.67	5.67	3.67	12.67	15.67
1315	83.802	20.0	13.0	5.0	15.0	10.0	32.0	24.0	16.0	11.0	13.0	14.0	17.0	20.0	23.0	9.0	16.0	16.0	19.0	15.0	6.0	19.0	12.0	23.0	7.0	17.0	14.0	9.0
1322	84.256	22.33	11.67	26.67	40.67	31.67	24.67	14.67	41.67	15.67	21.67	15.67	8.67	17.67	11.67	26.67	19.67	28.67	19.67	25.67	28.67	20.67	23.67	13.67	13.67	12.67	27.67	14.67
1329	84.71	29.67	-7.67	31.33	32.33	32.33	29.33	27.33	23.33	19.33	34.33	25.33	3.33	23.33	6.33	35.33	22.33	23.33	9.33	18.33	19.33	16.33	15.33	21.33	4.33	12.33	15.33	14.33
1336	85.165	30.0	11.0	5.0	42.0	32.0	7.0	21.0	25.0	16.0	19.0	13.0	24.0	26.0	15.0	30.0	18.0	7.0	34.0	26.0	24.0	7.0	14.0	23.0	25.0	25.0	12.0	19.0
1343	85.619	22.33	5.67	12.67	33.67	31.67	25.67	27.67	20.67	20.67	34.67	18.67	36.67	9.67	13.67	15.67	24.67	26.67	33.67	18.67	23.67	28.67	22.67	22.67	28.67	9.67	18.67	12.67
1350	86.074	24.33	11.67	8.67	13.67	14.67	8.67	12.67	11.67	17.67	13.67	12.67	12.67	14.67	5.67	12.67	13.67	12.67	26.67	12.67	26.67	15.67	16.67	14.67	5.67	3.67	25.67	26.67
1357	86.529	22.33	-1.33	7.67	22.67	6.67	19.67	25.67	14.67	24.67	12.67	12.67	5.67	10.67	6.67	7.67	20.67	7.67	20.67	11.67	15.67	17.67	3.67	17.67	3.67	16.67	17.67	22.67
1364	86.985	22.67	6.33	19.33	22.33	13.33	18.33	17.33	8.33	12.33	9.33	5.33	17.33	11.33	12.33	1.33	22.33	7.33	17.33	11.33	5.33	16.33	9.33	12.33	16.33	8.33	6.33	11.33
1371	87.44	21.0	10.0	2.0	28.0	20.0	24.0	25.0	20.0	18.0	19.0	10.0	25.0	23.0	19.0	17.0	14.0	21.0	13.0	25.0	11.0	21.0	5.0	15.0	4.0	13.0	16.0	20.0
1378	87.896	21.67	7.33	10.33	33.33	27.33	15.33	18.33	24.33	11.33	14.33	11.33	18.33	16.33	6.33	17.33	5.33	20.33	14.33	13.33	19.33	28.33	15.33	8.33	8.33	19.33	11.33	12.33
1385	88.352	24.33	-1.33	23.67	20.67	13.67	19.67	12.67	10.67	10.67	7.67	21.67	11.67	18.67	7.67	13.67	11.67	1.67	4.67	12.67	13.67	21.67	6.67	2.67	13.67	7.67	6.67	10.67
1392	88.808	21.33	1.67	15.67	12.67	30.67	17.67	22.67	17.67	19.67	5.67	19.67	4.67	3.67	4.67	13.67	15.67	24.67	12.67	-1.33	11.67	12.67	-0.33	-2.33	11.67	6.67	14.67	7.67
1399	89.264	22.33	1.67	2.67	22.67	14.67	5.67	8.67	17.67	3.67	12.67	4.67	13.67	18.67	8.67	12.67	4.67	7.67	5.67	-2.33	11.67	10.67	6.67	-0.33	6.67	10.67	-2.33	7.67
1406	89.72	18.67	2.33	15.33	17.33	20.33	17.33	26.33	14.33	9.33	10.33	7.33	18.33	14.33	6.33	19.33	11.33	4.33	10.33	11.33	7.33	8.33	15.33	5.33	5.33	8.33	11.33	10.33
1413	90.177	24.33	0.67	13.67	6.67	3.67	17.67	7.67	4.67	14.67	5.67	9.67	14.67	12.67	10.67	0.67	7.67	4.67	15.67	-4.33	8.67	11.67	7.67	-2.33	7.67	14.67	10.67	1.67
1420	90.634	18.33	6.67	5.67	7.67	11.67	19.67	22.67	20.67	16.67	15.67	27.67	16.67	13.67	18.67	18.67	14.67	10.67	17.67	7.67	12.67	10.67	9.67	13.67	12.67	14.67	9.67	14.67
1427	91.091	24.33	5.67	-4.33	9.67	10.67	15.67	22.67	14.67	4.67	6.67	5.67	7.67	14.67	7.67	15.67	4.67	10.67	19.67	17.67	-2.33	4.67	-1.33	7.67	0.67	7.67	4.67	8.67
1434	91.549	19.67	3.33	10.33	15.33	19.33	13.33	22.33	14.33	16.33	11.33	15.33	12.33	20.33	6.33	14.33	16.33	17.33	18.33	10.33	12.33	14.33	16.33	5.33	10.33	18.33	9.33	14.33
1441	92.006	16.67	9.33	6.33	9.33	19.33	6.33	27.33	18.33	14.33	19.33	13.33	11.33	16.33	19.33	23.33	3.33	26.33	19.33	16.33	22.33	8.33	16.33	23.33	16.33	24.33	23.33	8.33
1448	92.464	24.33	1.67	2.67	8.67	3.67	10.67	13.67	17.67	15.67	15.67	9.67	8.67	22.67	6.67	1.67	6.67	29.67	18.67	12.67	13.67	12.67	8.67	25.67	3.67	6.67	12.67	10.67
1455	92.922	18.33	7.67	15.67	8.67	11.67	18.67	10.67	10.67	23.67	24.67	17.67	17.67	20.67	11.67	21.67	18.67	16.67	24.67	27.67	25.67	6.67	18.67	5.67	5.67	9.67	11.67	8.67
1462	93.38	29.33	-0.33	12.67	-2.33	4.67	3.67	-6.33	2.67	1.67	26.67	14.67	2.67	5.67	-3.33	3.67	1.67	11.67	-2.33	6.67	-4.33	10.67	-4.33	11.67	2.67	0.67	8.67	0.67
1469	93.839	20.67	4.33	14.33	10.33	21.33	8.33	18.33	13.33	10.33	18.33	10.33	11.33	20.33	13.33	16.33	9.33	17.33	18.33	2.33	13.33	14.33	3.33	7.33	19.33	18.33	11.33	21.33
1476	94.297	27.33	7.67	8.67	-5.33	4.67	12.67	-3.33	0.67	16.67	12.67	17.67	8.67	1.67	-2.33	5.67	6.67	10.67	5.67	19.67	17.67	3.67	12.67	-2.33	-2.33	-0.33	28.67	7.67
1483	94.756	29.67	-7.67	4.33	8.33	8.33	3.33	10.33	1.33	1.33	-1.67	-0.67	3.33	6.33	0.33	0.33	5.33	-1.67	6.33	5.33	10.33	5.33	-5.67	0.33	-4.67	-0.67	-2.67	10.33
1490	95.215	28.0	-4.0	1.0	3.0	9.0	-3.0	9.0	11.0	0.0	-9.0	-1.0	0.0	-5.0	3.0	11.0	15.0	-5.0	6.0	1.0	11.0	9.0	1.0	4.0	8.0	-2.0	-4.0	4.0
1497	95.675	28.67	1.33	-3.67	3.33	6.33	3.33	-6.67	5.33	0.33	8.33	2.33	-2.67	9.33	8.33	0.33	6.33	-0.67	11.33	15.33	5.33	-0.67	4.33	9.33	6.33	-5.67	12.33	11.33
1504	96.134	25.67	1.33	9.33	5.33	7.33	17.33	19.33	13.33	4.33	8.33	9.33	9.33	-0.67	6.33	7.33	3.33	9.33	6.33	9.33	1.33	12.33	10.33	-3.67	12.33	5.33	6.33	6.33
1511	96.594	25.33	0.67	10.67	14.67	12.67	7.67	16.67	11.67	19.67	2.67	12.67	7.67	26.67	6.67	12.67	5.67	11.67	14.67	14.67	2.67	18.67	4.67	13.67	10.67	10.67	16.67	3.67
1518	97.054	29.0	-5.0	-4.0	3.0	9.0	10.0	0.0	10.0	12.0	23.0	22.0	9.0	6.0	4.0	7.0	6.0	2.0	3.0	5.0	12.0	0.0	-5.0	-5.0	13.0	0.0	4.0	4.0
1525	97.514	25.33	5.67	0.67	9.67	8.67	9.67	13.67	4.67	9.67	7.67	10.67	16.67	4.67	10.67	4.67	5.67	6.67	12.67	9.67	3.67	9.67	5.67	8.67	15.67	15.67	4.67	8.67
1532	97.975	32.0	-5.0	7.0	-6.0	5.0	2.0	4.0	-2.0	-1.0	5.0	4.0	11.0	9.0	4.0	7.0	1.0	14.0	-7.0	7.0	4.0	-11.0	3.0	1.0	7.0	4.0	0.0	23.0
1539	98.436	37.67	-14.67	-9.67	-7.67	-10.67	1.33	10.33	-4.67	-3.67	-7.67	0.33	-5.67	-5.67	-6.67	2.33	1.33	-0.67	0.33	0.33	-13.67	1.33	0.33	6.33	3.33	0.33	-12.67	2.33
1546	98.897	29.67	7.33	0.33	2.33	3.33	-5.67	16.33	10.33	8.33	3.33	3.33	5.33	12.33	14.33	18.33	-0.67	10.33	12.33	8.33	9.33	2.33	7.33	-1.67	2.33	6.33	27.33	-3.67
1553	99.358	33.33	5.67	-6.33	9.67	9.67	17.67	8.67	3.67	1.67	1.67	8.67	6.67	4.67	8.67	7.67	8.67	13.67	-2.33	-0.33	-9.33	-6.33	6.67	-3.33	17.67	12.67	14.67	2.67
1560	99.82	29.67	-1.67	0.33	6.33	18.33	15.33	29.33	25.33	14.33	19.33	26.33	32.33	6.33	18.33	7.33	14.33	8.33	6.33	5.33	7.33	12.33	-1.67	3.33	16.33	10.33	15.33	15.33
1567	100.281	30.33	6.67	3.67	-5.33	12.67	3.67	14.67	22.67	1.67	26.67	21.67	14.67	21.67	18.67	6.67	6.67	14.67	12.67	1.67	9.67	0.67	15.67	-0.33	9.67	2.67	19.67	19.67
1574	100.743	26.0	11.0	10.0	17.0	19.0	8.0	26.0	13.0	16.0	20.0	13.0	13.0	7.0	16.0	14.0	14.0	15.0	10.0	19.0	13.0	15.0	8.0	13.0	1.0	4.0	5.0	11.0
1581	101.206	35.67	-6.67	1.33	1.33	9.33	-1.67	5.33	10.33	6.33	12.33	3.33	-4.67	2.33	-2.67	11.33	11.33	2.33	7.33	-8.67	2.33	-14.67	0.33	8.33	8.33	1.33	-2.67	5.33
1588	101.668	29.33	-3.33	4.67	8.67	9.67	13.67	15.67	15.67	14.67	12.67	7.67	3.67	10.67	-0.33	8.67	20.67	12.67	9.67	10.67	14.67	17.67	-1.33	-3.33	27.67	15.67	3.67	6.67
1595	102.131	26.67	4.33	10.33	11.33	8.33	20.33	16.33	3.33	6.33	12.33	3.33	22.33	9.33	15.33	9.33	8.33	22.33	7.33	6.33	12.33	11.33	7.33	13.33	10.33	-2.67	12.33	3.33
1602	102.594	27.33	-1.33	4.67	6.67	14.67	-1.33	3.67	8.67	9.67	6.67	1.67	1.67	11.67	14.67	9.67	3.67	4.67	6.67	18.67	9.67	12.67	3.67	13.67	6.67	4.67	7.67	9.67
1609	103.057	31.0	0.0	0.0	2.0	1.0	-3.0	12.0	13.0	-1.0	-5.0	1.0	6.0	9.0	9.0	-1.0	0.0	12.0	-1.0	7.0	1.0	4.0	2.0	0.0	2.0	2.0	-1.0	-4.0
1616	103.521	26.33	-1.33	7.67	-5.33	10.67	0.67	8.67	7.67	11.67	6.67	4.67	13.67	12.67	9.67	14.67	12.67	5.67	1.67	6.67	14.67	5.67	-1.33	19.67	3.67	3.67	10.67	11.67
1623	103.985	31.33	-1.33	4.67	-7.33	-5.33	-1.33	-7.33	14.67	-5.33	11.67	-1.33	-4.33	-2.33	2.67	11.67	-10.33	1.67	-0.33	4.67	7.67	-3.33	3.67	-0.33	18.67	-5.33	3.67	12.67
1630	104.449	27.0	0.0	-3.0	12.0	13.0	1.0	1.0	8.0	3.0	4.0	11.0	8.0	6.0	0.0	2.0	7.0	4.0	-2.0	5.0	6.0	-6.0	8.0	10.0	-1.0	13.0	20.0	9.0
1637	104.913	24.33	-0.33	-0.33	1.67	-4.33	6.67	8.67	0.67	8.67	9.67	10.67	11.67	9.67	6.67	6.67	8.67	0.67	11.67	12.67	11.67	8.67	10.67	9.67	4.67	10.67	2.67	-0.33
1644	105.378	29.33	-5.33	-1.33	5.67	-2.33	-0.33	-0.33	-5.33	1.67	8.67	0.67	1.67	8.67	-1.33	-0.33	-0.33	6.67	5.67	2.67	6.67	-8.33	6.67	-7.33	0.67	-8.33	-0.33	10.67
1651	105.843	29.67	-9.67	-1.67	-2.67	-2.67	0.33	4.33	2.33	6.33	-8.67	-0.67	-3.67	-2.67	4.33	-4.67	4.33	-6.67	-5.67	-7.67	10.33	8.33	-1.67	-3.67	-4.67	-1.67	-7.67	0.33
1658	106.308	26.33	5.67	4.67	6.67	3.67	-10.33	3.67	4.67	-0.33	-1.33	-0.33	3.67	5.67	3.67	11.67	6.67	-0.33	-0.33	8.67	4.67	1.67	2.67	-3.33	-3.33	8.67	-1.33	-8.33
1665	106.773	23.33	-1.33	3.67	3.67	-6.33	4.67	12.67	7.67	12.67	2.67	10.67	0.67	0.67	4.67	3.67	8.67	-0.33	9.67	3.67	8.67	4.67	12.67	8.67	1.67	7.67	4.67	2.67
1672	107.239	21.33	16.67	-2.33	8.67	4.67	-1.33	6.67	5.67	3.67	1.67	7.67	0.67	1.67	-4.33	3.67	1.67	10.67	1.67	15.67	14.67	6.67	14.67	1.67	-1.33	1.67	5.67	4.67
1679	107.705	27.67	-11.67	2.33	-7.67	-12.67	-2.67	1.33	8.33	7.33	1.33	0.33	-7.67	-2.67	-1.67	4.33	10.33	-2.67	5.33	2.33	4.33	0.33	2.33	-0.67	-5.67	-3.67	0.33	-1.67
1686	108.171	21.0	-1.0	8.0	-1.0	1.0	9.0	-3.0	0.0	1.0	6.0	-2.0	5.0	-1.0	-3.0	3.0	6.0	4.0	7.0	7.0	2.0	4.0	0.0	4.0	4.0	1.0	-5.0	2.0
1693	108.638	23.67	-5.67	5.33	6.33	-8.67	-1.67	3.33	11.33	-0.67	-2.67	3.33	-1.67	-0.67	-4.67	1.33	6.33	3.33	0.33	-5.67	3.33	2.33	-2.67	-6.67	-0.67	2.33	11.33	6.33
1700	109.105	25.0	-9.0	-4.0	-6.0	-2.0	8.0	4.0	4.0	-1.0	-5.0	4.0	5.0	3.0	-5.0	-2.0	0.0	5.0	3.0	6.0	5.0	2.0	-3.0	-2.0	-6.0	-2.0	-2.0	-7.0
1707	109.572	19.67	9.33	-3.67	-1.67	3.33	10.33	1.33	10.33	6.33	10.33	5.33	6.33	7.33	4.33	8.33	11.33	10.33	1.33	-6.67	1.33	3.33	6.33	7.33	8.33	9.33	5.33	10.33
1714	110.039	25.0	1.0	-6.0	3.0	-6.0	-4.0	2.0	-7.0	2.0	-1.0	-7.0	3.0	-12.0	-5.0	0.0	-5.0	-2.0	0.0	-2.0	-2.0	-5.0	0.0	4.0	4.0	-2.0	0.0	4.0
1721	110.507	23.0	-8.0	3.0	-9.0	3.0	-1.0	-4.0	2.0	-4.0	-1.0	0.0	4.0	4.0	1.0	-2.0	7.0	6.0	-5.0	-2.0	-1.0	-2.0	3.0	-1.0	0.0	0.0	3.0	5.0
1728	110.975	20.67	-6.67	5.33	2.33	1.33	-4.67	-8.67	4.33	8.33	3.33	-1.67	5.33	0.33	6.33	7.33	1.33	8.33	15.33	3.33	0.33	9.33	-2.67	5.33	0.33	3.33	3.33	7.33
1735	111.443	19.0	-6.0	5.0	-2.0	-6.0	1.0	13.0	-3.0	3.0	10.0	0.0	1.0	6.0	-4.0	5.0	11.0	6.0	11.0	0.0	10.0	-1.0	12.0	5.0	2.0	6.0	7.0	20.0
1742	111.912	16.33	-3.33	14.67	2.67	5.67	12.67	7.67	4.67	7.67	7.67	7.67	7.67	10.67	5.67	7.67	10.67	11.67	18.67	5.67	5.67	5.67	1.67	6.67	5.67	-0.33	1.67	5.67
1749	112.38	23.67	-5.67	-7.67	-2.67	-4.67	10.33	3.33	1.33	6.33	-5.67	1.33	3.33	0.33	-7.67	0.33	-4.67	2.33	-0.67	4.33	-3.67	-0.67	1.33	-9.67	-0.67	-5.67	5.33	1.33
1756	112.85	15.67	-1.67	4.33	3.33	11.33	2.33	3.33	9.33	6.33	7.33	9.33	5.33	2.33	7.33	10.33	5.33	1.33	6.33	10.33	5.33	8.33	5.33	8.33	14.33	10.33	6.33	15.33
1763	113.319	18.33	9.67	-8.33	7.67	2.67	-6.33	6.67	12.67	2.67	-3.33	-4.33	-0.33	-1.33	0.67	4.67	-1.33	9.67	10.67	6.67	-3.33	2.67	4.67	3.67	8.67	8.67	0.67	7.67
1770	113.789	21.0	1.0	-1.0	2.0	-2.0	-1.0	-3.0	2.0	-5.0	-5.0	-4.0	-3.0	-3.0	7.0	-1.0	-2.0	-4.0	-1.0	7.0	-6.0	-3.0	-1.0	12.0	0.0	-5.0	1.0	-6.0
1777	114.259	14.0	2.0	4.0	-2.0	10.0	5.0	5.0	11.0	6.0	3.0	6.0	7.0	10.0	4.0	6.0	8.0	1.0	1.0	10.0	6.0	5.0	4.0	6.0	13.0	6.0	7.0	0.0
1784	114.729	19.33	-8.33	-6.33	2.67	-0.33	10.67	5.67	1.67	2.67	3.67	1.67	-2.33	2.67	2.67	6.67	1.67	5.67	5.67	-11.33	-4.33	-5.33	5.67	6.67	2.67	-3.33	-7.33	5.67
1791	115.2	16.33	2.67	2.67	1.67	5.67	-1.33	10.67	5.67	-2.33	7.67	-2.33	0.67	9.67	-2.33	5.67	3.67	-0.33	6.67	8.67	6.67	5.67	0.67	3.67	13.67	4.67	-7.33	2.67
1798	115.671	14.33	-2.33	1.67	14.67	1.67	2.67	9.67	5.67	-0.33	3.67	-0.33	4.67	1.67	-1.33	-2.33	3.67	16.67	-3.33	6.67	-2.33	2.67	3.67	4.67	3.67	-0.33	3.67	6.67
1805	116.142	17.0	-1.0	-2.0	3.0	4.0	-1.0	-1.0	-3.0	-7.0	-4.0	4.0	8.0	-9.0	-4.0	-2.0	9.0	7.0	5.0	-6.0	4.0	3.0	3.0	2.0	-5.0	-4.0	4.0	1.0
1812	116.614	15.0	1.0	4.0	8.0	0.0	4.0	4.0	4.0	0.0	0.0	3.0	8.0	3.0	0.0	6.0	2.0	-1.0	4.0	-3.0	5.0	7.0	7.0	0.0	5.0	1.0	1.0	1.0
1819	117.086	11.67	7.33	-1.67	4.33	5.33	3.33	10.33	6.33	3.33	10.33	10.33	12.33	-1.67	7.33	8.33	5.33	2.33	11.33	1.33	7.33	1.33	12.33	0.33	15.33	-2.67	0.33	7.33
1826	117.558	20.33	-4.33	-10.33	-8.33	-5.33	-7.33	-4.33	-12.33	-9.33	-3.33	-8.33	-9.33	-6.33	-11.33	-1.33	-5.33	1.67	-8.33	-7.33	-0.33	3.67	0.67	2.67	4.67	1.67	6.67	-3.33
1833	118.03	13.33	0.67	-0.33	-3.33	7.67	7.67	0.67	-1.33	8.67	1.67	6.67	-4.33	-0.33	5.67	0.67	-0.33	2.67	2.67	0.67	1.67	7.67	9.67	-0.33	13.67	9.67	1.67	2.67
1840	118.503	16.33	-7.33	0.67	-1.33	-5.33	4.67	-3.33	2.67	0.67	-1.33	4.67	1.67	-3.33	1.67	-0.33	2.67	-0.33	-1.33	-1.33	2.67	-3.33	0.67	4.67	-1.33	6.67	3.67	2.67
1847	118.976	15.33	-5.33	-2.33	-7.33	1.67	-3.33	-1.33	-1.33	-0.33	-3.33	0.67	-7.33	-5.33	-0.33	-4.33	-2.33	-5.33	2.67	0.67	-4.33	-3.33	8.67	0.67	-1.33	-0.33	3.67	3.67
1854	119.45	10.33	1.67	-0.33	8.67	5.67	1.67	10.67	3.67	7.67	9.67	10.67	12.67	8.67	0.67	7.67	10.67	14.67	2.67	1.67	8.67	8.67	12.67	6.67	6.67	-0.33	8.67	5.67
1861	119.924	8.67	0.33	3.33	1.33	9.33	13.33	5.33	8.33	6.33	13.33	9.33	13.33	15.33	8.33	13.33	13.33	3.33	6.33	10.33	1.33	10.33	11.33	9.33	4.33	5.33	2.33	5.33
1868	120.398	11.33	-4.33	4.67	0.67	0.67	2.67	7.67	2.67	-1.33	3.67	7.67	1.67	2.67	7.67	-2.33	7.67	7.67	9.67	4.67	14.67	0.67	2.67	-1.33	15.67	5.67	1.67	6.67
1875	120.872	10.33	5.67	5.67	10.67	7.67	3.67	-3.33	6.67	4.67	0.67	3.67	10.67	8.67	-0.33	12.67	7.67	3.67	1.67	7.67	2.67	3.67	9.67	1.67	-2.33	6.67	3.67	3.67
1882	121.347	10.33	5.67	4.67	8.67	5.67	3.67	-0.33	-2.33	4.67	4.67	5.67	6.67	4.67	3.67	4.67	3.67	7.67	8.67	5.67	3.67	8.67	7.67	7.67	8.67	0.67	3.67	9.67
1889	121.822	11.0	2.0	2.0	3.0	10.0	7.0	-4.0	0.0	2.0	10.0	0.0	2.0	8.0	5.0	4.0	1.0	11.0	5.0	0.0	6.0	4.0	6.0	0.0	1.0	3.0	-1.0	8.0
1896	122.298	11.33	3.67	7.67	-1.33	7.67	1.67	-1.33	-2.33	-2.33	2.67	7.67	7.67	4.67	-0.33	3.67	-0.33	0.67	0.67	-2.33	5.67	2.67	0.67	-3.33	0.67	0.67	5.67	5.67
1903	122.773	12.67	-1.67	-3.67	-4.67	4.33	0.33	-1.67	-3.67	-2.67	-2.67	3.33	1.33	4.33	4.33	9.33	6.33	-6.67	-1.67	-0.67	6.33	-2.67	-1.67	-1.67	2.33	3.33	7.33	0.33
1910	123.25	10.67	5.33	-1.67	4.33	-5.67	4.33	-1.67	0.33	1.33	2.33	1.33	-2.67	8.33	-2.67	4.33	1.33	1.33	1.33	5.33	7.33	3.33	1.33	-3.67	8.33	2.33	4.33	0.33
1917	123.726	11.67	1.33	3.33	-0.67	3.33	2.33	3.33	0.33	4.33	-4.67	0.33	2.33	4.33	-2.67	0.33	-4.67	7.33	1.33	0.33	6.33	4.33	6.33	-4.67	2.33	0.33	-0.67	3.33
1924	124.203	10.67	4.33	0.33	7.33	1.33	-4.67	3.33	-0.67	8.33	0.33	-3.67	4.33	-2.67	6.33	-0.67	1.33	1.33	-1.67	7.33	5.33	7.33	0.33	1.33	-5.67	2.33	-3.67	2.33
1931	124.68	11.33	1.67	0.67	1.67	0.67	-6.33	2.67	-2.33	-2.33	-1.33	-0.33	-2.33	2.67	1.67	0.67	1.67	-1.33	-4.33	6.67	0.67	-1.33	0.67	-2.33	-3.33	0.67	-0.33	0.67
1938	125.158	10.0	-3.0	2.0	2.0	4.0	3.0	5.0	-6.0	-2.0	4.0	1.0	0.0	-5.0	4.0	1.0	2.0	13.0	10.0	2.0	2.0	3.0	0.0	6.0	7.0	-3.0	7.0	-2.0
1945	125.635	7.33	3.67	5.67	3.67	1.67	12.67	2.67	3.67	3.67	3.67	2.67	5.67	3.67	6.67	1.67	0.67	2.67	-0.33	2.67	2.67	1.67	4.67	5.67	5.67	2.67	9.67	2.67
1952	126.114	9.67	0.33	7.33	7.33	6.33	1.33	6.33	5.33	-0.67	-0.67	-0.67	4.33	-4.67	3.33	4.33	1.33	0.33	-1.67	2.33	2.33	-2.67	8.33	4.33	4.33	3.33	4.33	2.33
1959	126.592	6.33	0.67	4.67	2.67	4.67	6.67	2.67	5.67	4.67	7.67	0.67	5.67	0.67	1.67	7.67	2.67	7.67	-0.33	6.67	0.67	6.67	10.67	11.67	7.67	7.67	6.67	7.67
1966	127.071	9.67	0.33	2.33	4.33	6.33	6.33	-1.67	-4.67	3.33	5.33	3.33	9.33	3.33	-0.67	-3.67	3.33	5.33	-2.67	10.33	1.33	4.33	8.33	3.33	8.33	3.33	1.33	6.33
1973	127.55	11.0	1.0	-1.0	-3.0	1.0	2.0	3.0	0.0	0.0	-1.0	-3.0	-6.0	4.0	6.0	-2.0	6.0	5.0	-1.0	4.0	4.0	5.0	7.0	-2.0	-2.0	7.0	1.0	1.0
1980	128.03	7.67	0.33	0.33	3.33	5.33	-4.67	6.33	5.33	3.33	13.33	1.33	4.33	2.33	5.33	0.33	2.33	8.33	14.33	9.33	2.33	7.33	4.33	2.33	5.33	7.33	4.33	3.33
1987	128.51	8.67	-1.67	8.33	3.33	-3.67	-3.67	2.33	1.33	0.33	-2.67	-0.67	-3.67	1.33	-0.67	2.33	0.33	0.33	6.33	4.33	3.33	2.33	3.33	2.33	5.33	1.33	4.33	4.33
1994	128.99	9.67	3.33	2.33	-1.67	1.33	5.33	-1.67	-0.67	0.33	0.33	2.33	-3.67	2.33	-1.67	-5.67	-1.67	-3.67	0.33	1.33	6.33	0.33	2.33	3.33	3.33	2.33	4.33	6.33
2001	129.471	10.33	1.67	-0.33	-2.33	-4.33	-0.33	0.67	-5.33	1.67	-0.33	-0.33	2.67	0.67	-2.33	2.67	-1.33	1.67	-5.33	-2.33	-4.33	-1.33	-1.33	2.67	0.67	-0.33	3.67	3.67
2008	129.952	10.67	6.33	1.33	-6.67	1.33	-3.67	0.33	-4.67	-3.67	-1.67	-1.67	-0.67	-3.67	-0.67	4.33	-0.67	0.33	-6.67	-2.67	4.33	1.33	5.33	5.33	-0.67	3.33	1.33	-4.67
2015	130.433	9.67	2.33	5.33	2.33	1.33	3.33	0.33	-1.67	5.33	-1.67	-1.67	-0.67	1.33	-3.67	-2.67	-0.67	-4.67	0.33	0.33	1.33	-3.67	-4.67	-1.67	8.33	-1.67	-1.67	-0.67
2022	130.915	9.67	1.33	1.33	-0.67	0.33	-2.67	-3.67	6.33	4.33	1.33	-1.67	2.33	-1.67	4.33	-0.67	-4.67	-0.67	0.33	-3.67	0.33	4.33	0.33	1.33	4.33	-0.67	-0.67	0.33
2029	131.397	8.0	2.0	2.0	2.0	-3.0	0.0	7.0	2.0	3.0	4.0	2.0	0.0	4.0	2.0	7.0	1.0	3.0	-2.0	1.0	0.0	-3.0	0.0	-4.0	-1.0	-2.0	-2.0	-4.0
2036	131.879	6.0	-4.0	0.0	3.0	4.0	0.0	-1.0	-2.0	0.0	6.0	3.0	2.0	5.0	-2.0	0.0	5.0	1.0	1.0	4.0	5.0	5.0	0.0	0.0	6.0	8.0	1.0	6.0
2043	132.362	9.0	-3.0	-2.0	-1.0	-5.0	2.0	-5.0	-2.0	-2.0	2.0	-2.0	0.0	-2.0	0.0	5.0	1.0	1.0	-2.0	0.0	-2.0	2.0	1.0	5.0	3.0	-1.0	-1.0	-3.0
2047	132.638	8.0	4.0	0.0	2.0	7.0	3.0	1.0	7.0	2.0	4.0	1.0	-3.0	0.0	1.0	0.0	1.0	-1.0	2.0	5.0	3.0	-2.0	-1.0	9.0	1.0	4.0	4.0	1.0