File: EDX Back Ups and Old Files/Spectra copy 3.3.23/Samples/Low pH SF 25C 2d/10.25.txt
0.0
-30.67
-6.33
-53.33
-27.33
82.33
44.33
27.33
-9.0
31.67
-13.67
-8.67
-13.33
-12.0
-4.67
-10.0
10.67
-1.67
4.33
0.33
-1.0
0.33
-1.33
1.0
0.0
0.0
0.0
0.0
1.0
-0.33
-0.33
-0.33
0.67
-0.33
0.0
1.0
-0.67
0.33
-1.0
-0.67
0.0
0.0
-1.0
0.33
4.0
1.33
0.33
0.0
0.67
-0.67
0.67
-0.67
2.0
-1.0
0.0
-0.33
3.67
1.0
4.67
1.0
2.0
1.33
0.67
0.33
4.67
-2.0
2.33
1.0
2.0
1.0
-1.67
1.0
0.33
3.33
-2.33
6.0
0.33
3.67
3.67
2.67
2.33
0.0
-1.33
1.0
1.33
2.33
3.0
-5.0
4.0
1.67
0.0
-1.33
2.0
1.33
-4.0
-1.33
8.67
3.0
1.0
2.67
1.33
5.33
7.33
5.0
10.33
-1.0
1.67
0.33
8.67
-7.33
0.67
5.33
10.33
0.67
0.0
1.67
-1.0
4.33
3.67
-1.33
-5.67
7.67
-2.33
5.67
-0.67
1.33
1.67
-0.33
3.67
-2.33
1.67
3.67
3.0
-1.0
3.67
-0.67
-1.67
3.33
-0.33
3.0
1.0
3.0
5.33
4.33
-0.67
6.33
1.67
2.67
1.33
5.67
8.0
-0.33
-2.33
2.0
2.0
5.33
7.33
0.0
1.33
3.67
-1.67
9.67
-6.67
2.0
-1.0
1.0
2.0
4.0
3.33
2.0
2.67
4.0
-1.33
6.67
0.67
-2.67
5.0
9.33
-0.33
-4.67
6.33
5.0
9.67
-1.0
1.33
1.33
1.0
1.67
-3.0
-3.67
-0.33
4.0
4.33
1.67
8.0
-0.67
0.67
-3.33
-0.67
4.33
-2.67
4.33
2.0
-1.0
5.0
-2.33
8.0
1.0
5.67
1.67
-2.0
0.67
1.33
-4.0
-1.33
2.0
-1.0
2.33
-3.0
-0.67
1.33
-2.33
0.0
-1.67
3.0
-0.67
-6.0
-3.0
-0.67
-2.67
3.0
2.0
-4.67
-0.33
6.67
-5.0
0.33
0.33
0.67
-0.33
-3.33
0.33
0.33
0.67
-2.33
1.33
2.67
-1.33
6.0
2.0
3.33
0.67
8.33
-1.33
2.33
1.67
-5.0
-1.33
0.67
1.33
-6.67
-2.33
2.33
2.0
-1.67
1.33
-1.33
1.33
0.67
-1.0
-1.67
-1.33
0.33
0.33
0.33
-0.67
0.67
1.67
1.67
-3.33
-4.0
1.0
4.0
-5.67
4.67
0.0
-1.67
-2.0
2.0
0.33
-2.67
2.33
2.33
3.67
0.33
2.67
5.33
-3.33
2.33
-0.67
0.0
-1.0
0.0
0.0
-4.0
-0.33
2.0
-0.67
-0.67
1.0
2.0
4.0
-0.33
3.33
3.33
-0.33
3.33
-1.67
-4.67
-0.67
-2.0
2.67
-1.0
3.33
0.67
0.67
0.67
-3.33
0.33
-2.0
-4.0
9.0
-0.67
2.0
0.67
-3.33
-4.67
-1.33
0.33
1.67
4.33
0.0
-1.33
5.33
-0.33
-1.33
5.0
-6.0
2.67
4.0
1.0
-1.67
3.0
2.0
3.33
-3.33
-2.33
6.67
7.33
2.0
0.33
-1.67
2.67
0.33
4.67
1.0
-3.67
2.33
8.33
-1.33
-0.67
3.0
-2.33
-1.33
-6.33
-6.33
0.0
1.33
3.0
7.67
0.67
-5.0
0.67
6.0
0.33
2.67
5.33
-3.0
-2.0
-6.33
-2.0
1.33
2.67
9.0
4.67
-2.0
4.0
-2.0
2.33
4.67
7.33
4.33
0.0
-0.67
1.67
10.33
4.0
9.33
9.0
7.33
5.33
5.0
7.33
0.67
6.33
0.67
12.33
7.0
-2.67
5.67
-0.33
5.67
8.0
8.33
8.0
12.67
5.33
1.0
10.0
-1.0
2.67
12.0
6.67
6.0
4.33
12.0
9.33
12.0
3.33
2.0
6.0
11.67
7.33
15.0
16.33
9.0
8.33
1.33
9.67
6.0
4.33
3.67
8.33
11.67
5.33
4.0
17.67
11.67
6.33
4.33
3.0
9.0
11.0
7.0
9.67
15.33
15.33
14.33
36.67
60.67
45.0
53.67
47.0
43.67
49.0
19.0
32.33
16.33
26.0
3.67
10.67
10.33
15.33
5.67
12.0
19.67
17.0
27.0
20.0
24.33
46.0
43.33
77.0
87.0
117.33
125.0
94.0
95.0
70.33
42.67
40.67
22.0
7.67
7.33
9.33
12.33
9.67
15.0
8.33
17.33
15.0
13.33
22.0
15.0
2.33
20.67
19.0
11.33
20.0
10.33
17.67
24.67
5.67
16.67
23.33
27.33
26.33
22.0
29.33
37.33
34.33
42.67
25.67
32.67
26.0
43.33
30.67
17.33
22.33
31.0
33.67
33.33
26.33
38.0
40.33
37.0
23.33
30.33
22.0
32.33
39.0
31.67
30.0
26.0
28.33
24.67
27.0
22.0
16.0
13.67
11.0
15.67
2.67
10.33
9.0
7.0
9.33
17.0
10.33
9.0
30.33
15.67
14.33
19.33
18.33
24.0
14.67
11.67
20.0
18.67
11.0
8.0
14.33
21.33
13.67
24.0
21.67
26.33
34.0
39.0
50.0
53.67
52.67
59.67
80.33
75.33
83.33
52.67
83.33
59.33
54.33
47.33
39.33
27.33
32.67
21.67
25.0
28.67
22.0
34.0
28.67
26.33
33.33
31.67
33.67
42.0
33.0
44.0
42.33
37.67
48.33
47.33
44.0
28.0
52.0
38.33
32.33
34.67
22.67
31.0
37.0
21.33
22.67
25.0
19.67
26.67
14.67
20.67
19.0
10.0
11.67
12.0
6.33
1.67
9.67
26.67
14.67
9.33
17.67
29.0
12.0
5.67
17.0
5.0
21.0
17.0
8.67
27.0
13.67
19.67
22.0
35.33
23.67
12.67
26.0
23.33
9.67
21.0
14.67
26.33
17.67
18.33
25.33
16.0
20.67
22.0
26.33
28.0
20.33
28.0
21.33
31.0
21.33
22.67
36.67
11.33
34.67
10.0
25.0
15.0
0.0
26.33
14.0
14.67
21.0
17.0
14.67
2.0
10.67
10.0
15.33
18.33
22.33
5.33
11.0
9.33
4.33
18.0
16.33
1.67
11.33
9.0
5.0
7.33
5.33
2.33
16.0
13.0
10.67
11.0
13.33
5.67
11.33
3.67
23.67
19.0
13.67
43.33
13.0
6.0
12.33
11.67
20.67
5.0
18.67
16.67
19.67
0.67
-2.0
10.0
-12.33
8.0
4.67
11.0
4.67
15.67
8.0
4.33
5.33
4.33
-4.0
11.33
-6.33
10.33
13.0
10.67
10.67
19.0
14.33
15.33
13.67
14.33
21.67
4.67
12.0
0.0
17.33
18.67
10.0
19.33
9.67
1.67
8.33
14.0
19.0
8.33
18.33
8.67
11.67
-2.0
20.67
7.0
26.67
16.33
24.0
8.0
9.67
14.0
5.67
25.67
15.67
1.33
6.33
7.67
8.67
6.67
15.33
17.67
8.33
11.33
11.0
17.33
1.0
21.67
13.67
6.0
19.0
10.0
4.0
4.33
17.0
8.33
-3.67
11.0
6.67
10.33
2.33
13.67
5.67
10.0
9.33
3.0
0.67
-2.0
5.0
9.33
4.0
8.67
1.0
14.67
10.0
2.0
-1.67
0.33
-3.0
2.33
-1.67
9.0
2.0
5.0
-4.67
0.0
7.67
2.0
7.67
3.33
-15.0
-1.67
5.33
13.0
6.33
6.67
-3.67
6.0
6.0
3.33
-1.33
-4.67
-4.33
-1.67
5.67
3.0
-1.0
14.0
5.33
2.67
10.33
5.67
3.67
8.67
-2.67
-1.0
5.33
3.67
4.0
4.0
6.67
-3.67
6.33
11.33
5.67
2.67
7.33
-4.33
5.33
9.0
1.0
13.0
2.67
4.33
-2.0
4.67
4.67
-2.67
1.33
3.67
6.33
11.33
5.67
-2.0
-1.0
6.33
-0.67
4.67
-1.0
1.67
5.67
6.33
7.0
8.0
8.0
1.67
8.67
0.67
1.0
7.67
2.33
1.0
-0.33
6.0
9.0
10.33
2.33
3.67
4.33
3.33
0.67
10.67
-2.0
4.33
6.0
5.33
0.0
-0.67
-6.0
3.67
7.0
4.67
0.0
1.67
-1.0
2.33
6.67
6.0
3.67
1.33
5.33
-2.0
4.0
2.33
-3.67
0.67
0.0
5.33
2.0
-2.33
2.0
6.0
11.33
10.0
1.0
1.0
-0.33
4.0
7.67
-1.0
0.67
8.0
1.67
0.33
2.33
-1.33
2.0
1.0
8.33
-5.33
7.0
5.67
2.33
4.67
9.33
-1.33
7.67
-0.33
4.33
1.0
8.0
3.0
4.67
-5.0
2.67
-7.0
5.0
1.33
0.0
1.67
1.0
6.33
2.67
-5.0
1.0
-5.67
-1.67
3.0
1.67
0.33
4.0
6.0
-3.0
-3.0
4.67
-2.67
1.33
-1.33
-0.67
-2.33
0.33
2.0
2.0
4.0
-2.33
4.67
0.0
-0.33
4.0