File: EDX Back Ups and Old Files/Spectra copy 3.3.23/Samples/Low pH SF 25C 2d/10.5.txt
0.0
9.33
-29.33
-38.33
23.67
23.33
-43.67
-30.67
-97.0
23.67
-24.67
-20.67
8.67
-13.0
-6.67
-6.0
2.67
6.33
0.33
-0.67
0.0
-0.67
0.67
2.0
0.0
0.0
0.0
0.0
1.0
-0.33
-0.33
1.67
-0.33
1.67
0.0
0.0
-0.67
-0.67
0.0
-0.67
1.0
1.0
-1.0
1.33
1.0
1.33
-0.67
0.0
-0.33
0.33
0.67
-0.67
-1.0
2.0
-1.0
1.67
3.67
3.0
2.67
-2.0
0.0
-1.67
-0.33
2.33
2.67
0.0
4.33
3.0
2.0
-3.0
4.33
1.0
-4.67
4.33
0.67
6.0
5.33
4.67
1.67
0.67
-0.67
1.0
2.67
2.0
5.33
-1.67
1.0
-2.0
0.0
11.67
1.0
-0.33
2.0
3.33
-3.0
7.67
1.67
1.0
0.0
4.67
4.33
-1.67
-0.67
2.0
1.33
-1.0
6.67
5.33
8.67
2.67
2.67
6.33
8.33
10.67
7.0
2.67
-4.0
3.33
3.67
-0.33
1.33
0.67
-0.33
3.67
9.33
-1.67
1.67
4.67
1.67
-8.33
-1.33
0.67
-2.0
6.0
1.67
1.33
2.33
-0.67
-0.33
2.0
4.0
3.0
7.33
0.33
0.33
5.33
3.67
4.67
-2.67
-0.33
-1.0
-2.33
3.67
2.0
7.0
3.33
-2.67
-3.0
2.33
1.67
-0.67
2.67
3.33
8.0
0.0
6.0
4.0
3.0
2.33
0.0
-2.33
-3.0
7.67
3.67
0.67
2.33
-4.0
7.33
5.67
-1.67
-1.67
5.0
7.67
2.0
-1.67
-0.67
2.0
1.67
5.0
2.33
3.67
1.0
3.33
0.67
1.0
0.33
9.67
7.67
2.33
0.33
2.33
1.33
-5.0
-5.0
1.0
-4.33
-1.0
6.0
3.67
-1.33
-1.0
-0.33
5.33
1.0
-1.33
2.0
-4.0
-1.67
-5.0
2.33
4.33
-0.33
4.0
4.33
6.0
-4.67
-5.0
-7.0
-2.67
1.33
1.0
1.0
1.33
-0.33
-1.33
-2.0
2.33
7.33
-3.33
0.67
-5.33
1.33
3.33
1.67
0.67
1.33
3.67
3.67
1.0
4.0
-0.67
2.67
-1.67
-1.33
4.33
4.67
1.0
0.67
-1.33
-0.67
-1.67
-1.33
-0.67
5.0
2.33
2.33
-2.33
1.33
-2.33
2.0
0.33
-4.33
1.33
3.33
0.33
5.33
-1.33
4.67
2.67
-0.33
1.0
-3.0
1.0
-1.67
-0.33
0.0
4.33
3.0
0.0
1.33
-3.67
-0.67
-2.67
4.67
3.33
2.67
-2.67
-3.33
2.33
-2.67
-2.0
-1.0
-2.0
1.0
3.0
2.67
3.0
-1.67
0.33
4.0
3.0
0.0
2.67
1.33
-0.67
2.67
2.33
0.33
1.33
1.33
-1.0
-3.33
2.0
-0.67
2.67
2.67
-3.33
-2.33
1.33
-2.0
-2.0
3.0
-0.67
2.0
-1.33
1.67
1.33
-2.33
4.33
1.67
-0.67
2.0
0.67
3.33
4.67
2.67
2.0
-3.0
-1.33
1.0
-4.0
-0.67
1.0
-2.0
-2.67
0.67
0.67
1.67
3.33
2.0
1.33
2.33
-0.33
-0.67
-2.33
0.0
0.33
1.33
4.33
-0.33
-1.67
3.0
-2.33
3.67
-4.33
-0.33
-1.0
4.33
3.0
3.67
3.67
-7.0
4.67
5.0
4.33
2.67
2.33
3.0
8.0
-5.33
-2.0
3.33
8.67
6.0
5.67
1.0
-1.0
6.0
1.33
2.67
4.33
2.33
6.0
5.33
-0.33
4.33
11.0
4.33
7.0
6.33
-0.67
10.0
-1.67
1.67
3.33
8.67
8.33
7.0
8.33
9.67
4.67
0.67
4.0
3.33
2.0
10.67
6.33
-1.0
11.0
-2.0
21.67
3.0
13.67
6.0
8.33
12.0
9.33
7.0
7.33
8.0
6.0
6.67
12.33
11.0
14.33
4.0
16.33
3.33
6.67
5.0
10.33
5.67
15.33
11.67
16.33
10.0
18.67
4.67
14.33
6.33
3.0
9.0
10.0
6.0
19.67
28.33
10.33
34.33
29.67
43.67
32.0
32.67
38.0
27.67
33.0
12.0
12.33
15.33
5.0
11.67
4.67
20.33
12.33
9.67
18.0
17.67
23.0
27.0
21.0
30.33
33.0
33.33
69.0
80.0
106.33
108.0
111.0
109.0
87.33
61.67
57.67
57.0
45.67
17.33
21.33
22.33
7.67
16.0
16.33
14.33
20.0
24.33
28.0
22.0
18.33
25.67
25.0
40.33
34.0
31.33
30.67
35.67
35.67
33.67
34.33
43.33
26.33
36.0
51.33
65.33
66.33
65.67
54.67
63.67
57.0
41.33
38.67
26.33
28.33
37.0
16.67
18.33
15.33
35.0
12.33
25.0
23.33
32.33
32.0
24.33
24.0
22.67
29.0
38.0
37.33
28.67
24.0
35.0
25.0
16.67
15.0
14.67
14.67
14.33
0.0
18.0
13.33
7.0
13.33
2.0
15.33
22.67
15.33
10.33
30.33
15.0
30.67
12.67
10.0
26.67
15.0
15.0
15.33
0.33
13.67
1.0
23.67
27.33
32.0
14.0
33.0
27.67
53.67
48.67
57.33
66.33
86.33
93.67
86.33
88.33
80.33
72.33
76.33
59.33
44.67
44.67
30.0
39.67
38.0
34.0
25.67
37.33
30.33
28.67
35.67
38.0
56.0
50.0
42.33
49.67
48.33
56.33
69.0
59.0
45.0
69.33
57.33
43.67
54.67
37.0
42.0
38.33
35.67
33.0
29.67
13.67
7.67
22.67
13.0
9.0
9.67
3.0
8.33
12.67
-1.33
15.67
4.67
11.33
9.67
23.0
15.0
7.67
26.0
23.0
15.0
10.0
19.67
23.0
23.67
11.67
32.0
38.33
22.67
10.67
30.0
28.33
21.67
16.0
22.67
11.33
14.67
9.33
14.33
14.0
28.67
10.0
5.33
18.0
17.33
18.0
18.33
26.0
34.33
23.67
30.67
28.33
35.67
26.0
27.0
27.0
6.0
21.33
6.0
19.67
18.0
13.0
1.67
13.0
5.67
4.0
20.33
13.33
15.33
1.33
12.0
20.33
13.33
15.0
5.33
6.67
11.33
0.0
2.0
6.33
8.33
18.33
23.0
3.0
7.67
24.0
15.33
12.67
15.33
20.67
21.67
29.0
22.67
34.33
22.0
16.0
18.33
7.67
10.67
12.0
11.67
15.67
12.67
4.67
8.0
13.0
7.67
3.0
15.67
5.0
7.67
7.67
12.0
1.33
7.33
0.33
8.0
23.33
-5.33
14.33
14.0
1.67
4.67
24.0
13.33
10.33
2.67
11.33
14.67
1.67
19.0
-1.0
11.33
15.67
11.0
4.33
16.67
-4.33
2.33
10.0
2.0
-1.67
3.33
16.67
10.67
1.0
26.67
12.0
14.67
13.33
30.0
-4.0
7.67
16.0
8.67
16.67
6.67
7.33
-4.67
9.67
11.67
20.67
20.33
6.67
-7.67
8.33
13.0
10.33
4.0
2.67
9.67
15.0
4.0
12.0
4.0
-1.67
5.0
-1.67
3.33
5.0
25.67
5.33
11.33
4.67
1.67
16.0
3.33
17.0
-7.33
11.0
11.0
-1.67
13.0
2.67
4.0
8.67
11.0
-2.0
3.33
7.33
13.0
4.33
3.33
4.0
-3.0
-3.0
5.33
3.0
5.67
6.0
-9.33
6.33
14.0
-9.67
-2.67
5.0
-2.67
13.67
3.33
-1.0
-2.0
-1.67
-4.33
9.33
-3.33
0.33
0.67
13.0
-11.0
10.0
9.33
3.67
0.33
11.67
5.67
0.67
16.33
6.0
12.33
4.67
22.0
11.0
-2.33
8.33
8.33
7.33
-1.33
4.67
8.33
-0.33
12.33
6.0
5.0
3.0
-0.33
6.33
9.0
1.67
-0.33
10.33
1.33
6.67
3.33
-2.67
1.67
2.0
3.0
13.33
1.33
2.67
6.0
8.67
6.67
-0.67
4.0
-3.0
7.0
3.67
9.67
6.67
0.0
2.67
5.33
0.0
2.67
4.0
5.0
8.33
12.33
7.67
8.33
-3.67
6.67
4.67
-1.0
0.33
9.0
1.33
2.0
3.33
0.0
-0.33
7.0
-3.33
2.0
1.67
3.0
8.33
1.67
3.0
-1.33
-6.67
1.33
3.0
4.0
-1.67
0.33
0.67
13.0
0.33
5.0
-0.33
-5.0
8.0
12.33
2.0
0.0
-1.0
5.67
-1.0
0.67
-1.0
3.67
4.0
-0.33
6.33
3.33
-1.33
2.0
2.0
5.33
-0.33
-2.0
-2.33
10.33
0.67
-3.67
4.67
-1.33
-1.33
-1.67
3.0
3.0
2.0
0.67
2.0
3.67
-4.0
6.0
1.33
-1.0
1.67
4.0
1.33
-0.33
-2.0
7.0
-5.67
-0.67
-5.0
2.67
-0.67
-1.0
4.0
4.0
3.0
2.67
0.33
3.33
6.67
3.33
-1.33
-1.67
1.0
3.0
0.0
7.67
3.67
-1.0
-3.33
2.0