File: EDX Back Ups and Old Files/Spectra copy 3.3.23/Samples/Low pH SF 25C 2d/10.75.txt
0.0
-47.67
-131.33
-45.33
-33.33
-14.67
46.33
41.33
-85.0
3.67
-67.67
-34.67
-15.33
7.0
-1.67
-9.0
-3.33
4.33
-0.67
-1.67
-1.0
0.33
-0.33
1.0
0.0
1.0
0.0
1.0
0.0
-0.33
-0.33
0.67
-0.33
-0.33
0.0
0.0
-0.67
-0.67
-1.0
-0.67
3.0
0.0
-1.0
-0.67
1.0
-0.67
0.33
1.0
1.67
0.33
-0.33
-0.67
0.0
0.0
2.0
-1.33
2.67
2.0
2.67
0.0
1.0
-0.67
0.67
-0.67
-0.33
0.0
1.33
4.0
1.0
0.0
-1.67
-3.0
-3.67
7.33
-7.33
4.0
-2.67
6.67
0.67
3.67
-1.67
-1.0
1.67
1.0
7.33
2.33
3.0
2.0
0.0
-3.33
-4.0
-8.33
2.0
2.33
2.0
1.67
-1.33
12.0
3.0
1.67
7.33
0.33
2.33
-1.0
0.33
4.0
-2.33
1.33
5.67
0.67
3.67
4.33
7.33
4.67
5.0
6.67
-2.0
-0.67
-3.33
5.67
-3.67
6.67
2.67
4.67
-3.67
5.33
5.67
0.67
0.67
7.67
-0.33
6.67
1.0
0.0
2.67
0.33
2.33
2.33
2.67
6.0
3.0
14.0
4.33
7.33
0.33
0.33
5.67
-2.33
-1.67
1.67
4.0
4.67
-6.33
-3.0
5.0
2.33
2.33
-3.0
2.33
2.67
-0.67
3.67
1.33
1.0
0.0
1.0
-1.0
-2.0
-3.67
4.0
3.67
2.0
-1.33
1.67
5.67
1.33
4.0
1.33
-0.33
0.33
-1.67
-1.0
0.67
-2.0
0.33
-0.67
6.0
-1.33
-3.0
-6.67
2.67
-6.0
0.33
6.67
7.0
-0.67
-2.33
1.67
8.33
0.33
4.33
1.33
-1.0
1.0
2.0
2.67
-2.0
-1.0
2.67
-2.33
3.0
-1.33
4.33
-3.0
0.67
2.0
0.0
-1.67
-1.0
1.33
2.33
0.67
-1.0
2.33
2.0
1.33
-3.0
4.0
-1.67
2.33
3.0
5.0
-4.67
-1.33
2.67
2.0
5.33
-0.67
-1.33
8.67
-2.33
2.33
2.33
1.67
-2.33
-1.67
6.67
2.67
-1.0
1.0
2.33
4.67
-1.67
1.67
3.33
3.67
-6.0
1.67
-0.33
2.33
-0.67
-1.33
-1.67
7.0
-0.67
-1.67
1.67
0.33
4.67
-3.0
-0.67
2.67
-1.67
1.33
-1.67
-2.67
-5.33
-0.33
-2.33
5.67
-2.0
-5.0
-1.0
-4.67
0.67
1.0
3.33
-3.0
0.0
2.33
-3.67
3.33
1.33
1.67
4.33
-1.33
4.33
1.67
-0.67
-0.67
0.0
-6.0
-3.0
-1.0
-2.0
-1.33
7.0
-2.67
-2.67
-2.0
2.0
1.0
1.67
3.33
6.33
-1.33
0.33
1.33
-1.67
-4.67
4.0
-6.33
-1.0
-2.67
0.67
3.67
-0.33
-2.33
1.33
-2.0
2.0
1.0
-2.67
3.0
-1.33
0.67
-2.67
-1.33
3.33
4.67
-2.67
3.0
2.67
3.33
0.67
-0.33
3.0
-6.0
2.67
5.0
0.0
4.33
2.0
2.0
-0.67
-0.33
2.67
1.67
6.33
7.0
-0.67
2.33
-2.33
1.33
-3.33
8.0
6.33
0.33
4.33
-4.33
-2.67
-1.0
-1.33
-1.33
-6.33
0.67
4.0
-2.67
2.0
0.67
-0.33
-8.0
9.67
7.0
7.33
-1.33
5.33
0.0
7.0
-4.33
0.0
1.33
4.67
9.0
2.67
1.0
-5.0
-3.0
3.33
1.67
3.33
7.33
9.0
-2.67
6.67
6.33
7.0
7.33
2.0
7.33
-0.67
5.0
1.33
2.67
0.33
8.67
10.33
10.0
3.33
8.67
3.67
-0.33
14.0
-0.67
3.0
2.67
1.33
6.0
6.0
-6.0
6.67
4.0
4.67
2.0
4.33
10.0
5.33
15.0
8.33
2.0
3.0
6.67
5.33
7.0
8.33
2.0
6.33
8.33
6.67
7.0
7.33
5.67
2.33
7.67
1.33
7.0
15.67
7.67
16.33
16.33
13.0
18.0
33.0
38.0
42.67
46.33
24.33
43.33
29.67
41.67
38.0
20.67
29.0
29.67
20.0
17.0
7.33
19.33
12.0
13.67
12.67
16.33
12.33
8.67
15.0
8.67
23.0
22.0
31.0
21.33
37.0
31.33
27.0
40.0
65.33
79.0
93.0
83.0
62.33
75.67
85.67
71.0
42.67
32.33
30.33
21.33
19.67
19.0
2.33
21.33
9.0
10.33
22.0
8.0
9.33
19.67
14.0
21.33
34.0
35.33
28.67
32.67
31.67
32.67
45.33
29.33
41.33
48.0
45.33
60.33
65.33
41.67
54.67
60.67
67.0
35.33
41.67
35.33
26.33
22.0
23.67
14.33
21.33
25.0
43.33
50.0
33.33
40.33
46.0
43.33
35.0
25.67
25.0
17.0
26.33
22.67
28.0
26.0
13.0
16.67
15.0
14.67
6.67
0.33
8.0
7.0
5.33
16.0
9.33
16.0
11.33
22.67
20.33
20.33
22.33
25.0
28.67
26.67
18.0
19.67
21.0
10.0
9.33
14.33
9.67
21.0
28.67
28.33
29.0
42.0
62.0
68.67
102.67
120.67
125.33
152.33
141.33
166.67
139.33
127.33
109.33
104.33
85.33
90.33
77.67
51.67
55.0
39.67
49.0
27.0
32.67
14.33
31.33
34.67
47.67
25.0
59.0
50.0
53.33
46.67
39.33
48.33
50.0
53.0
38.0
45.33
29.33
34.67
38.67
23.0
31.0
32.33
22.67
19.0
31.67
13.67
20.67
17.67
16.0
10.0
12.67
17.0
25.33
6.67
7.67
8.67
-3.33
13.33
11.67
14.0
13.0
12.67
26.0
16.0
8.0
22.0
10.67
28.0
16.67
8.67
15.0
18.33
28.67
12.67
26.0
25.33
6.67
14.0
23.67
23.33
19.67
6.33
24.33
10.0
6.67
13.0
24.33
22.0
28.33
23.0
16.33
32.0
29.33
25.67
34.67
41.33
30.67
35.0
35.0
19.0
22.0
15.33
10.0
10.67
23.0
20.0
8.67
7.0
21.67
11.0
8.33
3.33
16.33
5.33
17.0
10.33
21.33
13.0
10.33
13.67
13.33
11.0
7.0
0.33
13.33
16.33
18.0
18.0
15.67
13.0
5.33
13.67
19.33
21.67
22.67
12.0
17.67
7.33
19.0
10.0
14.33
-1.33
5.67
-4.0
5.67
24.67
26.67
-4.33
10.0
29.0
-1.33
5.0
1.67
6.0
2.67
-0.33
24.0
11.33
23.33
-2.67
18.0
20.33
11.67
9.33
2.0
-0.33
12.67
18.0
3.33
6.33
12.67
3.33
9.67
15.67
4.0
1.0
9.33
9.67
18.0
13.33
8.67
10.67
19.33
13.0
3.0
14.33
-0.67
14.67
12.67
-2.0
17.67
7.0
17.67
1.33
26.0
-2.0
-1.33
17.0
8.67
18.67
16.67
9.33
-2.67
9.67
3.67
17.67
16.33
14.67
-2.67
17.33
-5.0
9.33
8.0
10.67
14.67
2.0
0.0
7.0
21.0
6.33
-1.0
13.33
11.33
13.0
23.67
-3.67
11.33
16.67
6.67
2.0
7.33
13.0
0.67
1.0
0.0
8.33
8.0
1.67
1.0
3.67
11.0
-1.0
0.33
9.33
-4.0
-3.67
-4.67
6.0
-5.0
-4.0
1.33
1.0
0.67
-3.0
6.67
2.33
5.0
-15.67
-3.67
5.0
5.33
4.67
6.33
2.0
-2.0
-1.67
-3.33
-2.67
7.67
16.33
4.67
2.0
-1.0
9.0
2.33
0.67
2.33
3.67
11.67
-3.33
12.33
9.0
-0.67
2.67
9.0
0.0
2.67
9.33
1.33
6.33
-1.33
-4.33
-0.67
-4.33
5.33
8.0
7.0
10.0
0.67
0.33
7.0
-3.33
3.67
1.33
2.33
12.67
8.33
-3.67
-1.33
2.0
1.0
-0.67
1.33
1.67
-2.0
7.67
9.67
-4.67
10.0
6.0
-4.0
6.67
1.67
-8.33
-5.0
0.67
6.33
-5.0
1.67
3.0
6.0
-1.67
2.33
2.67
8.33
10.33
6.67
-6.33
2.0
1.33
7.0
3.33
4.0
6.33
-5.0
2.67
6.0
2.67
5.0
-0.33
7.0
-2.67
5.67
1.0
0.67
1.33
4.33
3.0
8.0
2.33
-0.67
-0.33
7.0
13.33
0.0
5.67
-2.0
7.0
3.33
4.0
0.0
1.0
13.67
-1.0
4.67
-8.0
0.67
-1.0
-2.33
1.33
-1.67
-2.33
2.0
5.0
0.33
-2.33
-2.0
5.67
1.33
-0.33
-0.67
7.67
6.67
0.67
3.33
1.0
-2.0
11.0
5.67
7.0
3.67
-2.0
5.0
1.33
0.0
4.67
-1.0
3.33
2.67
2.0
2.0
2.33
-2.67
4.0
-5.33
-3.67
-4.0
3.0
0.0
3.0
-0.33
-0.67
-0.67
1.67
2.33
-4.33
-3.67
-1.0
-3.0
2.0
-2.33
3.67
1.0
-2.33
0.0