File: EDX Back Ups and Old Files/Spectra copy 3.3.23/Samples/Low pH SF 25C 2d/12.0.txt
0.0
-7.67
-61.33
-29.33
59.67
-33.67
60.33
39.33
7.0
71.67
-64.67
-19.67
4.67
-15.0
9.33
-7.0
-1.33
0.33
3.33
0.33
0.0
0.33
-1.33
1.0
0.0
0.0
0.0
0.0
0.0
-0.33
-0.33
0.67
-0.33
0.67
0.0
2.0
-0.67
-0.67
-1.0
-0.67
0.0
1.0
-1.0
0.33
0.0
0.33
-0.67
0.0
0.67
0.33
-0.33
-0.67
-1.0
-1.0
-1.0
0.67
0.67
-2.0
1.67
1.0
1.0
0.33
-1.33
-0.67
3.67
-1.0
0.33
-1.0
1.0
-1.0
-1.67
-2.0
-0.67
3.33
-10.33
2.0
0.33
2.67
3.67
4.67
-2.67
4.0
3.67
-2.0
1.33
8.33
-1.0
-2.0
2.0
3.67
0.0
-5.33
6.0
7.33
2.0
3.67
-0.33
4.0
-1.0
2.67
4.33
-2.67
-1.67
-5.0
1.33
5.0
-2.33
-0.67
3.67
5.67
1.67
2.33
5.33
0.67
8.0
6.67
2.0
-0.67
1.67
2.67
-1.67
-4.33
3.67
5.67
-4.67
4.33
2.67
3.67
0.67
0.67
4.67
-3.33
2.0
3.0
1.67
6.33
0.33
0.33
-3.33
0.0
-1.0
-1.0
3.33
9.33
-0.67
3.33
0.67
-2.33
-3.67
-3.33
4.0
-3.33
-5.33
4.0
6.0
3.33
7.33
-3.0
-1.67
-3.33
0.33
5.67
-3.67
3.0
1.0
-3.0
1.0
5.0
-2.67
2.0
3.67
-4.0
-6.33
-4.33
-2.33
-3.67
-2.0
6.33
0.67
-4.67
3.33
6.0
-0.33
-3.0
1.33
0.33
2.0
1.67
-3.0
1.33
0.67
1.0
1.33
5.67
0.0
-3.67
0.67
-1.33
2.33
-1.67
-0.67
2.33
-2.0
1.0
-4.0
-0.33
4.0
6.0
7.67
-2.33
0.0
3.67
1.33
6.0
0.67
1.0
0.0
-1.67
2.0
-0.67
4.33
-3.33
-4.0
-1.67
6.0
1.33
-1.0
-5.0
2.33
1.33
0.0
0.0
-5.67
-1.33
2.67
1.0
0.33
0.33
-2.33
1.67
-3.33
-3.67
-0.67
0.67
-3.33
2.33
-2.33
0.67
4.0
3.0
-0.67
4.67
0.33
-2.33
1.33
4.67
2.0
-2.33
-0.33
-1.67
-4.67
-4.33
-4.67
4.0
0.33
-1.67
-4.33
2.33
-2.33
-2.0
-1.67
1.67
2.33
3.33
-0.67
2.33
-2.33
1.67
1.67
-0.33
-4.0
-1.0
0.0
-2.67
-0.33
-1.0
-0.67
2.0
4.0
1.33
2.33
-0.67
3.33
-1.33
1.33
-2.33
1.33
3.67
-0.67
2.33
3.0
-1.0
-2.0
-1.0
-2.0
-0.33
2.0
-2.67
-1.67
5.0
-1.0
-3.0
-0.33
1.33
1.33
1.67
0.33
2.33
-2.67
1.33
4.0
-8.33
1.0
-1.67
-1.33
4.67
-1.33
-1.33
2.33
0.0
-1.0
1.0
-1.67
1.0
-2.33
0.67
-3.67
8.67
1.33
0.67
-3.67
3.0
-1.33
-1.67
2.67
-5.33
7.0
-5.0
-1.33
2.0
-1.0
-2.67
1.0
0.0
-3.67
0.67
0.67
0.67
2.33
-1.0
6.33
2.33
-2.33
3.33
3.67
3.0
-0.67
-2.67
-2.67
-2.33
-2.67
6.0
3.67
-4.33
-3.33
-3.33
1.0
-0.67
2.0
-4.33
-1.33
-4.0
1.67
-1.0
6.33
-0.33
2.33
-2.0
-3.0
-1.33
-5.0
-0.67
9.67
8.0
1.67
0.0
0.0
0.0
-2.67
5.67
4.33
-0.67
4.0
-1.67
4.67
5.33
2.0
4.33
3.0
5.33
-1.67
1.0
1.33
2.67
1.33
9.67
5.33
6.0
5.33
0.67
4.67
7.67
6.0
2.33
8.0
2.67
-4.67
-5.0
4.0
-10.0
1.67
-6.0
5.67
1.0
2.33
0.0
-1.67
2.0
-4.67
3.0
7.0
7.67
5.33
1.0
-3.67
3.0
4.33
-3.67
4.67
-1.0
3.33
-0.33
3.33
2.67
7.33
3.0
14.67
11.67
1.33
5.33
-2.0
14.0
7.0
11.0
18.67
15.33
15.33
33.33
27.67
43.67
44.0
52.67
57.0
41.67
46.0
16.0
16.33
11.33
7.0
4.67
13.67
2.33
0.33
4.67
7.0
4.67
15.0
11.0
11.0
5.33
12.0
14.33
11.0
19.0
9.33
19.0
11.0
14.0
8.33
7.67
1.67
5.0
-7.33
3.33
5.33
7.33
-3.33
3.0
0.33
6.33
6.0
9.33
9.0
2.0
3.33
8.67
-3.0
7.33
6.0
11.33
20.67
5.67
12.67
9.67
11.33
10.33
4.33
13.0
9.33
22.33
22.33
12.67
12.67
16.67
14.0
24.33
28.67
26.33
31.33
38.0
39.67
37.33
25.33
44.0
32.33
40.0
34.33
30.33
25.0
18.33
22.0
15.67
15.0
10.0
11.33
11.67
9.0
8.0
21.0
8.67
8.0
9.67
10.67
10.33
7.0
12.0
13.33
18.0
16.33
20.0
15.33
10.67
17.33
19.33
16.33
14.0
8.67
18.67
6.0
-3.33
8.0
0.0
4.33
5.33
0.67
-2.0
11.67
9.33
11.0
5.0
19.0
29.67
35.67
56.67
86.33
104.33
105.33
115.67
102.33
94.33
96.33
76.33
49.33
35.33
28.67
35.67
34.0
32.67
45.0
61.0
65.67
67.33
57.33
47.67
36.67
36.0
23.0
23.0
20.33
22.67
7.33
23.33
19.0
24.0
28.0
27.33
28.33
30.67
29.67
23.0
14.0
10.33
13.67
14.0
18.67
8.67
11.67
15.67
9.0
0.0
4.67
-10.0
3.33
5.67
-3.33
14.67
1.67
-0.67
10.67
3.0
1.0
11.67
10.0
5.0
6.0
19.0
10.67
12.0
23.67
20.67
17.0
13.33
18.67
0.67
9.0
13.33
8.67
7.0
6.67
18.33
3.67
-4.67
-6.67
-4.0
0.67
9.0
8.33
8.0
7.33
12.0
-4.67
7.0
3.33
-8.33
13.67
5.33
-0.33
-1.0
11.0
-6.0
1.0
3.33
2.0
-0.33
4.0
-2.0
-0.33
-1.0
-3.33
-3.0
4.33
3.33
-0.67
4.33
3.0
-0.67
-3.67
7.0
2.33
10.67
15.33
-4.0
-2.0
9.33
9.33
6.33
9.0
6.0
5.67
6.0
-0.67
0.67
6.33
8.67
4.67
0.0
-1.33
2.33
-2.0
-3.0
6.33
2.67
9.67
3.0
-2.33
4.67
10.67
3.67
-3.0
-1.0
-2.33
10.0
-2.33
-1.0
-0.33
-0.33
1.0
11.33
3.33
-10.67
8.0
5.33
11.67
27.33
4.0
6.67
-4.33
9.0
18.33
13.33
10.67
3.33
0.67
-1.33
10.0
-5.0
4.33
4.67
3.0
9.33
8.67
0.67
-4.67
7.0
6.0
2.33
-0.67
18.67
5.67
3.0
26.67
10.0
15.67
16.33
28.0
14.0
11.67
14.0
6.67
12.67
-0.33
10.33
-9.67
6.67
1.67
-2.33
15.33
-1.33
3.33
2.33
-3.0
8.33
9.0
-0.33
-1.33
5.0
15.0
18.0
8.0
0.33
9.0
9.33
-1.67
8.0
-5.33
-10.67
5.33
1.67
3.67
-1.0
7.33
9.0
-8.33
8.0
5.0
6.33
0.0
0.67
7.0
3.67
-3.0
12.0
7.33
-2.67
3.0
6.33
0.33
0.0
-8.0
5.0
-2.67
3.0
3.67
4.0
2.67
11.33
-9.0
-6.67
-2.67
3.0
-2.67
2.67
2.33
-1.0
6.0
5.33
-0.33
4.33
-6.33
-3.67
5.67
-1.0
1.0
20.0
7.33
-1.33
-3.67
6.67
5.67
-4.33
4.33
5.0
-6.67
-8.33
3.0
-10.0
4.67
-0.67
4.33
11.33
6.67
-1.33
1.33
-7.33
-0.67
1.0
0.0
4.0
-2.33
7.33
-6.0
-2.33
3.67
-0.67
-3.67
3.67
2.33
1.33
6.67
-2.0
8.0
7.33
10.33
-4.33
-2.0
2.67
4.67
-4.67
1.0
2.0
-4.0
-8.33
5.67
3.67
-1.0
4.67
4.33
-6.0
4.67
0.0
-1.0
-6.67
5.33
0.67
5.33
-0.67
-1.33
-6.33
-6.0
-1.67
5.0
-0.67
4.0
-3.67
-1.0
6.67
4.0
0.67
-2.0
7.67
2.0
1.33
-0.33
4.0
-2.33
-2.67
5.33
2.0
2.0
7.33
-0.67
-0.33
13.0
5.33
1.0
0.67
1.0
8.0
6.33
-1.0
-2.0
2.0
1.67
-2.0
-1.33
-1.0
-1.33
-1.0
-3.33
-1.67
-2.67
6.67
8.0
4.0
4.33
1.67
-3.0
4.67
-1.67
-2.33
0.33
-1.33
3.67
-0.33
1.33
2.0
0.0
4.0
4.67
-2.0
6.67
-6.0
-2.0
-1.67
5.0
6.67
-2.0
10.33
-4.33
0.0
1.0
3.33
-6.67
-3.0
2.67
-2.67
-2.0
-1.0
7.0
3.0
-1.33
2.33
0.33
-1.33
4.33
-2.33
0.33
1.0
0.0
2.0
-3.33
-1.33
-4.0
-1.33
1.0