File: EDX Back Ups and Old Files/Spectra copy 3.3.23/Samples/Low pH SF 25C 2d/7.25.txt
0.0
-23.67
-132.33
-50.33
-65.33
-4.67
41.33
46.33
-13.0
4.67
-13.67
-5.67
-1.33
-11.0
-0.67
-4.0
2.67
4.33
4.33
2.33
0.0
-0.67
-1.33
1.0
0.0
1.0
0.0
1.0
1.0
-0.33
-0.33
-0.33
-0.33
-0.33
0.0
1.0
-0.67
1.33
-1.0
-0.67
0.0
0.0
-1.0
0.33
1.0
1.33
0.33
0.0
-0.33
2.33
2.67
0.33
0.0
2.0
0.0
-0.33
2.67
3.0
0.67
-1.0
1.0
-2.67
7.67
4.33
2.67
0.0
5.33
0.0
6.0
3.0
2.33
2.0
1.33
11.33
-10.33
1.0
3.33
7.67
-2.33
-0.33
-0.67
9.0
0.67
3.0
6.33
5.33
-1.0
-1.0
-4.0
2.67
6.0
1.67
3.0
1.33
-1.0
8.67
5.67
0.0
8.0
7.67
3.33
2.33
5.33
-1.0
11.33
9.0
7.67
2.33
5.67
-3.33
4.67
8.33
0.33
3.67
0.0
3.67
-3.0
2.33
-2.33
1.67
3.33
-1.33
2.67
9.67
3.33
8.33
5.67
-1.33
1.67
5.67
1.67
7.67
9.0
7.0
5.67
2.33
2.33
7.33
1.67
2.0
-1.0
1.0
4.33
8.33
-4.67
12.33
0.67
-3.33
1.33
6.67
1.0
-0.33
6.67
4.0
-1.0
4.33
4.33
-3.0
7.33
-2.33
1.33
11.67
-1.67
8.0
-1.0
4.0
5.0
11.0
0.33
-2.0
9.67
2.0
-0.33
7.67
1.67
-3.67
-1.0
4.33
0.67
-1.67
6.33
5.0
3.67
1.0
9.33
2.33
-2.0
-0.33
0.0
1.33
2.67
-5.0
5.33
8.67
2.0
-1.67
-0.33
-2.33
4.33
2.33
4.33
3.33
-4.0
1.0
1.0
-0.33
1.0
4.0
8.67
3.67
-4.0
-1.33
2.33
4.0
1.67
6.0
0.0
-1.67
-3.0
-1.67
8.33
-0.33
1.0
-3.67
2.0
-0.67
-5.0
0.0
6.33
1.33
3.0
5.0
-0.67
0.67
-1.33
1.0
8.33
1.33
1.67
2.67
0.67
-0.67
-1.67
1.67
6.67
4.33
3.67
3.67
2.0
6.0
2.33
4.67
-2.67
-2.33
4.33
1.67
4.0
-0.33
-3.33
-0.67
-0.67
-3.33
-1.67
5.0
0.33
2.33
0.67
2.33
-1.33
-1.0
-1.67
-0.33
2.33
7.33
2.33
-1.67
-5.33
0.67
2.67
2.67
9.0
-1.0
6.0
-0.67
-0.33
-3.0
3.33
2.0
7.0
3.33
-1.67
4.33
2.33
-0.33
4.33
0.67
-4.67
1.67
2.33
0.33
-1.0
-7.0
-3.0
1.0
0.0
2.67
3.0
1.33
0.33
2.0
3.0
-1.0
3.67
-0.67
0.33
-1.33
6.33
-1.67
-0.67
-0.67
1.0
-5.33
-2.0
0.33
5.67
2.67
2.67
-0.33
2.33
2.0
1.0
-1.0
-3.67
2.0
0.67
2.67
0.33
-4.33
3.33
6.67
3.33
2.0
-3.33
2.33
3.67
0.67
3.0
-2.0
1.67
-2.0
-2.0
-2.67
2.0
-5.0
-0.67
-3.33
3.67
0.67
1.33
4.0
-0.67
6.33
4.67
4.33
0.67
-3.0
-4.67
-2.67
1.33
1.67
2.33
-6.0
-2.33
4.67
-2.33
-1.33
-4.0
0.33
4.0
0.67
1.67
-3.0
2.67
-5.0
1.33
-0.33
3.33
2.0
-4.0
-4.33
3.0
-2.67
2.67
4.0
1.67
-3.0
2.0
1.0
-0.67
2.67
2.33
0.33
0.0
-0.67
8.67
-1.67
-2.0
8.33
4.0
4.33
1.33
1.0
7.33
0.67
-4.67
3.67
-1.67
1.0
3.33
-1.33
1.67
-0.33
14.0
2.33
8.0
1.67
3.33
12.0
3.0
-2.0
1.67
-1.0
1.67
1.0
3.33
4.0
3.33
19.0
-0.67
4.0
3.0
9.67
7.33
8.0
11.33
14.0
-0.67
-0.67
14.67
15.0
0.33
0.67
1.33
2.67
5.33
6.0
14.67
14.67
12.33
18.33
3.0
2.0
9.0
8.0
4.67
13.33
12.33
10.33
8.67
20.67
14.0
9.67
19.0
24.67
31.0
29.0
20.33
26.33
35.0
17.67
16.67
10.33
4.33
3.67
8.0
5.67
21.0
11.0
6.0
14.33
12.0
16.33
12.0
9.0
18.33
26.0
25.0
13.0
19.33
9.67
4.67
17.0
4.67
3.33
1.33
13.33
10.67
14.0
12.33
20.33
11.0
10.33
23.0
11.0
2.33
21.67
26.0
25.33
13.0
29.33
31.67
45.67
40.67
38.67
39.33
38.33
37.33
37.0
38.33
46.33
44.33
43.67
45.67
74.67
64.0
60.33
50.67
45.33
34.33
27.0
31.67
19.33
17.33
17.0
18.33
16.0
21.33
23.33
21.0
22.33
23.0
14.67
28.0
19.0
15.33
8.67
23.0
8.0
12.0
3.67
12.0
10.67
9.67
3.33
15.0
3.0
-1.67
11.0
10.33
12.0
18.33
13.67
15.33
21.33
19.33
11.0
16.67
13.67
23.0
7.67
13.0
11.0
17.33
8.33
10.67
6.0
24.67
15.33
36.0
50.0
62.0
84.67
84.67
102.67
115.33
100.33
126.33
90.67
96.33
100.33
94.33
60.33
46.33
55.33
40.67
34.67
27.0
22.67
16.0
27.0
14.67
18.33
24.33
24.67
31.67
28.0
39.0
54.0
43.33
74.67
60.33
61.33
88.0
69.0
75.0
69.33
76.33
74.67
80.67
88.0
70.0
52.33
49.67
46.0
33.67
11.67
28.67
28.67
16.0
19.0
19.67
9.0
19.33
22.67
4.67
18.67
16.67
10.33
1.67
20.0
9.0
13.67
9.0
6.0
20.0
18.0
6.67
16.0
11.67
16.67
16.0
34.33
25.67
4.67
29.0
18.33
23.67
19.0
17.67
11.33
7.67
18.33
17.33
13.0
21.67
14.0
12.33
18.0
20.33
15.0
12.33
16.0
22.33
20.67
24.67
20.33
18.67
15.0
10.0
14.0
24.0
21.33
5.0
13.67
9.0
16.0
3.67
13.0
5.67
-1.0
4.33
21.33
18.33
7.33
13.0
10.33
2.33
8.0
9.33
5.67
7.33
2.0
-5.0
-0.67
7.33
14.33
16.0
1.0
4.67
16.0
-1.67
12.67
7.33
6.67
3.67
13.0
15.67
21.33
11.0
5.0
-0.67
19.67
22.67
10.0
21.67
4.67
15.67
-2.33
1.0
15.0
-0.33
4.0
3.67
-4.0
0.67
3.67
9.0
-2.67
12.33
4.33
8.0
5.33
1.67
7.33
9.0
8.67
8.67
24.0
10.33
9.33
7.67
0.33
9.67
-6.33
9.0
8.0
7.33
15.67
0.0
6.33
8.67
-0.33
11.33
13.0
1.0
15.33
-1.67
6.67
13.67
6.0
9.67
25.0
19.67
10.33
20.0
0.0
11.67
17.0
3.67
19.67
23.67
0.33
12.33
10.67
11.67
7.67
26.33
9.67
12.33
14.33
-2.0
11.33
22.0
7.67
5.67
5.0
10.0
8.0
6.0
-1.67
16.0
2.33
-4.67
10.0
12.67
3.33
2.33
7.67
2.67
11.0
-0.67
2.0
2.67
6.0
2.0
6.33
20.0
3.67
-4.0
10.67
13.0
7.0
6.33
9.33
-1.0
9.33
8.33
7.0
8.0
4.0
3.33
4.0
10.67
12.0
7.67
5.33
1.0
5.33
9.33
5.0
6.33
10.67
-1.67
3.0
10.0
0.33
-6.33
-1.67
1.67
10.33
9.67
14.0
-3.0
11.0
3.33
13.67
-3.67
2.67
-8.33
5.67
4.33
11.0
6.33
0.67
-3.0
-5.0
2.67
-1.67
0.33
14.33
5.67
1.67
0.33
-0.33
-0.67
0.0
13.0
13.0
3.67
5.33
0.0
5.67
1.67
3.33
5.33
9.67
8.33
1.33
9.67
5.0
6.0
-3.67
4.33
2.67
4.0
10.67
3.67
-3.67
-1.0
3.0
0.0
10.67
-1.33
-1.33
0.0
9.67
0.33
3.0
4.67
-1.0
10.0
-3.67
8.33
9.67
2.33
5.33
7.67
-1.33
10.0
-1.67
4.0
-1.67
6.0
3.33
2.0
8.67
5.0
4.67
-3.0
-0.33
9.0
3.33
-0.33
8.0
-1.33
-2.67
0.33
0.0
5.0
5.33
5.33
10.67
9.0
1.33
9.0
1.67
-3.0
4.0
4.33
3.0
2.0
3.0
-0.33
6.0
5.67
1.0
-4.33
-1.0
0.67
1.33
8.33
2.67
0.0
2.0
2.33
3.67
-2.0
3.67
-0.67
-3.33
0.33
0.67
2.67
4.67
0.33
7.0
3.0
3.0
-0.33
0.0
2.67
1.0
0.0
0.33
4.0
1.67
0.0
4.33
-2.33
0.0
-1.0
-1.67
-1.67
-1.0
-3.33
1.33
4.0
3.0
3.0
1.0
-0.33
-4.67
3.33
5.67
-4.67
-0.33
-1.67
6.0
-2.0
4.0
-2.33
5.67
2.0
-0.33
2.0