File: EDX Back Ups and Old Files/Spectra copy 3.3.23/Samples/Low pH SF 25C 2d/7.75.txt
0.0
-31.67
-88.33
-148.33
-102.33
22.33
45.33
17.33
-10.0
5.67
-53.67
3.33
-11.33
-16.0
3.33
-11.0
-0.33
0.33
0.33
5.33
0.0
1.33
-0.33
1.0
1.0
1.0
0.0
1.0
0.0
-0.33
0.67
-0.33
0.67
-0.33
2.0
0.0
0.33
-0.67
-1.0
0.33
0.0
1.0
-1.0
-0.67
1.0
-0.67
-0.67
1.0
-0.33
0.33
3.67
-0.67
0.0
0.0
1.0
0.67
1.67
-2.0
5.67
-2.0
2.0
2.33
2.67
1.33
-0.33
-2.0
5.33
6.0
1.0
-3.0
2.33
4.0
-4.67
6.33
-6.33
2.0
2.33
4.67
4.67
-2.33
3.33
0.0
2.67
2.0
3.33
7.33
0.0
-3.0
5.0
8.67
3.0
3.67
1.0
1.33
-2.0
3.67
1.67
5.0
0.0
1.67
3.33
-5.67
1.33
6.0
8.33
1.0
8.67
9.33
10.67
1.67
5.67
5.33
4.33
-1.33
3.0
0.67
1.0
5.33
1.67
-3.33
-1.67
5.67
3.67
6.67
1.33
-0.67
7.67
2.67
-0.33
4.67
-3.33
-0.33
4.0
5.0
1.67
4.33
1.33
5.33
2.67
5.0
4.0
5.0
3.33
7.33
2.33
12.33
0.67
-1.33
0.33
4.67
-3.0
2.67
-6.33
0.0
4.0
2.33
5.33
-3.0
2.33
3.67
-1.67
5.67
-0.67
5.0
4.0
5.0
1.0
1.0
9.33
1.0
6.67
1.0
5.67
9.67
-0.33
5.33
2.0
5.33
2.67
-4.67
0.33
5.0
5.67
-1.0
-4.67
3.33
5.0
7.67
0.0
3.33
1.67
2.0
0.33
4.67
6.0
-2.67
-0.33
3.67
3.33
1.33
-0.67
-2.67
-1.0
0.0
-1.0
-0.33
3.0
-1.0
6.67
2.67
-1.0
-2.33
-3.67
3.0
1.67
5.0
2.0
3.33
-2.0
1.33
6.33
-0.33
-7.0
7.33
3.0
3.33
-4.0
1.0
2.33
0.33
1.0
2.0
-4.67
2.67
4.67
4.0
4.33
2.33
3.67
1.67
-2.33
6.33
1.33
4.67
-1.33
4.33
4.67
2.67
2.0
5.0
-1.67
-0.33
2.33
-0.33
2.33
3.67
-2.0
1.67
-0.33
1.33
-5.67
-1.33
1.33
0.0
-2.67
0.33
1.67
1.33
-2.33
0.0
-0.67
1.67
2.33
5.33
2.33
2.33
-1.33
5.67
0.67
2.67
0.0
-1.0
2.0
3.33
1.67
9.0
3.33
0.0
5.0
6.33
3.33
-1.67
3.33
-2.33
1.33
-1.33
-1.67
4.67
1.33
-2.67
-3.0
0.0
-1.0
1.0
1.0
-4.33
2.0
1.33
-2.67
-1.0
1.0
0.0
1.67
1.33
0.33
0.67
-1.67
-0.67
0.33
-0.67
2.0
-0.33
1.0
-0.67
4.67
2.67
1.67
0.67
-1.67
2.0
-5.0
0.0
1.33
5.0
5.67
2.67
4.33
0.67
3.33
-1.33
1.33
2.0
-2.33
5.33
1.67
-4.33
6.0
-1.0
-0.33
2.0
0.0
-1.67
2.0
1.0
-2.67
-2.33
-1.33
1.67
4.33
0.0
0.33
6.33
-1.33
1.33
0.67
4.0
0.33
-1.67
1.33
0.67
5.33
1.0
-4.33
1.67
-3.33
-3.33
-3.0
-0.67
0.0
0.67
6.67
-5.0
6.67
0.0
7.33
-7.33
1.33
-2.0
-2.0
-3.33
2.0
-3.67
6.67
5.0
4.67
0.0
2.0
-1.0
7.33
5.67
1.33
8.33
1.0
1.33
-2.33
8.33
-1.0
7.33
11.0
3.33
-0.67
4.0
3.33
2.67
1.33
1.67
-1.67
6.0
3.33
4.67
1.67
0.67
2.0
-0.67
13.0
2.67
0.33
-3.0
-1.0
0.0
4.67
-4.0
6.67
6.0
4.33
7.0
0.33
6.0
-0.67
0.0
5.0
6.67
7.33
4.0
6.33
7.0
0.33
1.33
12.67
4.0
4.33
4.67
11.33
3.67
5.33
0.0
12.67
5.67
8.33
13.33
4.0
6.0
9.0
7.0
5.67
20.33
13.33
21.33
35.67
17.67
21.0
11.67
13.0
6.67
14.0
2.0
4.33
3.33
3.0
4.67
8.67
4.33
15.33
6.67
8.0
12.67
6.0
17.0
8.0
15.33
8.0
25.33
26.0
19.0
22.33
21.0
16.0
9.0
9.33
5.67
10.67
12.0
6.67
0.33
12.33
6.33
11.67
2.0
3.33
21.33
4.0
12.33
15.0
1.0
11.33
8.67
10.0
9.33
17.0
9.33
8.67
11.67
7.67
29.67
20.33
29.33
24.33
24.0
24.33
37.33
32.33
18.67
40.67
37.67
31.0
31.33
34.67
49.33
22.33
27.0
34.67
24.33
36.33
25.0
33.33
18.0
20.33
22.33
11.0
21.33
19.0
17.67
23.0
29.0
20.33
22.67
14.0
21.0
10.0
5.67
7.0
9.67
13.67
2.33
0.0
3.0
8.33
14.0
9.33
19.0
18.33
31.67
37.33
25.33
29.33
36.0
26.67
18.67
17.0
20.67
15.0
12.0
8.33
4.33
19.67
10.0
12.67
7.33
20.0
19.0
13.0
39.67
41.67
33.67
51.33
44.33
56.33
40.67
52.33
51.33
51.33
43.33
35.33
36.33
50.67
35.67
31.0
18.67
20.0
31.0
11.67
14.33
19.33
35.67
38.67
24.0
31.0
38.0
60.33
59.67
70.33
64.33
71.0
67.0
91.0
78.33
81.33
45.67
52.67
36.0
51.0
26.33
25.67
39.0
33.67
24.67
11.67
23.67
9.0
15.0
4.67
21.0
11.33
10.67
1.67
12.67
4.67
9.33
0.67
9.0
6.0
11.67
22.0
18.0
17.0
17.0
22.67
16.0
17.67
16.67
21.0
11.33
15.67
27.67
23.0
22.33
9.67
28.0
18.67
30.33
16.67
18.33
28.33
17.0
14.67
15.0
19.33
14.0
19.33
19.0
9.33
11.0
26.33
15.67
20.67
24.33
15.67
23.0
19.0
19.0
10.0
8.33
8.0
-1.33
4.0
12.0
5.67
7.0
13.67
-6.0
-3.67
10.33
19.33
8.33
2.0
4.33
9.33
4.0
17.33
19.67
18.33
2.0
11.0
19.33
16.33
8.33
20.0
12.0
10.67
-1.0
5.33
11.67
13.33
7.67
20.67
12.0
6.67
12.33
-1.0
22.0
21.33
11.67
13.67
13.0
0.67
16.67
13.67
8.67
17.0
12.0
-1.33
9.0
12.67
-10.0
0.67
-1.33
5.0
19.33
18.33
7.33
15.0
6.33
-1.33
21.33
5.0
-1.33
0.67
15.0
5.33
8.33
14.67
5.33
10.67
13.67
-1.0
2.0
9.33
10.67
13.0
-0.67
10.67
8.67
1.33
6.0
12.0
12.33
3.33
3.67
15.67
24.0
19.67
2.0
32.67
9.33
15.0
-2.0
14.67
10.0
0.67
16.67
23.67
11.33
18.33
13.67
12.67
14.67
19.33
16.67
13.33
23.33
17.0
9.33
9.0
25.67
5.67
4.0
18.0
11.0
7.0
13.33
17.0
10.33
4.33
15.0
10.67
6.33
6.33
-1.33
8.67
3.0
3.33
2.0
-14.33
-2.0
4.0
14.33
6.0
-3.33
15.0
11.67
5.0
-4.0
10.33
3.33
11.0
6.33
9.33
-2.0
-4.0
-1.0
9.33
2.0
2.67
2.0
5.67
6.33
1.0
-0.67
12.33
3.0
6.33
6.67
3.33
8.0
1.0
-3.67
8.67
-1.67
1.67
3.33
3.67
4.0
1.0
16.0
8.33
0.67
0.33
11.67
-1.33
-2.33
5.33
-1.0
3.33
-7.33
1.0
2.0
5.67
-3.67
10.33
4.33
-0.33
1.67
4.33
-5.33
2.33
9.0
-6.0
4.0
4.67
-2.67
3.0
3.67
-3.33
0.33
1.33
-2.33
3.33
4.33
6.67
-4.0
1.0
-4.67
6.33
-3.33
-2.0
1.67
0.67
-1.67
2.0
2.0
1.0
-0.33
1.67
3.67
-2.0
-2.33
6.33
7.0
9.67
3.0
4.0
-0.67
3.33
16.67
13.33
9.33
-2.33
3.67
2.0
-3.67
3.0
3.33
7.0
3.33
3.0
1.67
8.0
-2.33
-1.0
-1.33
2.0
0.33
-0.33
6.0
7.67
-4.67
4.33
-4.0
6.0
3.33
-0.67
2.67
8.0
5.33
7.0
2.67
-4.0
8.0
3.33
0.0
4.0
3.0
6.67
7.0
1.67
4.0
-2.33
-2.0
-1.33
3.33
0.33
-6.33
0.0
7.0
12.33
-1.33
-2.0
7.67
-3.67
1.67
4.33
-1.33
0.67
0.67
-1.67
0.0
6.0
9.0
11.67
6.0
5.67
-4.0
3.0
-0.67
6.0
4.67
-3.0
6.33
0.67
0.0
4.0
0.33
6.33
2.0
3.67
0.33
-4.0
2.0
2.0
2.0
0.67
1.33
5.33
2.67
-0.67
-0.33
2.33
8.0
0.0
9.0
2.67
-1.33
-5.0
-0.33
8.0