File: EDX Back Ups and Old Files/Spectra copy 3.3.23/Samples/Low pH SF 25C 2d/8.25.txt
0.0
-38.67
-143.33
-120.33
-116.33
-51.67
-58.67
37.33
-10.0
-18.33
-26.67
-24.67
30.67
-24.0
5.33
-3.0
0.67
1.33
-0.67
0.33
0.0
1.33
-1.33
1.0
0.0
3.0
0.0
0.0
1.0
-0.33
0.67
-0.33
-0.33
-0.33
0.0
0.0
-0.67
-0.67
0.0
0.33
1.0
1.0
0.0
-0.67
0.0
-0.67
0.33
0.0
2.67
0.33
0.67
-0.67
-2.0
2.0
-1.0
-0.33
4.67
-1.0
4.67
0.0
-2.0
-0.67
1.67
3.33
4.67
-2.0
-0.67
1.0
2.0
3.0
8.33
5.0
-4.67
7.33
-2.33
2.0
-0.67
0.67
2.67
-1.33
-0.67
3.0
5.67
4.0
3.33
-4.67
12.0
4.0
3.0
1.67
3.0
5.67
3.0
1.33
-1.0
4.67
6.67
3.0
11.0
1.67
1.33
-1.67
1.33
4.0
3.33
5.0
4.67
1.33
-0.33
-1.33
4.67
3.33
2.33
2.67
4.0
1.67
2.0
4.33
-0.33
2.67
4.33
-3.33
0.67
5.67
5.33
0.33
-2.33
-1.33
3.67
-3.33
-5.33
6.67
5.0
1.0
0.67
1.33
0.33
2.33
3.67
1.0
5.0
3.0
3.33
6.33
1.33
7.33
2.67
6.67
1.33
10.67
11.0
3.67
-3.33
4.0
4.0
-3.67
9.33
0.0
8.33
-1.33
-0.67
7.67
-1.67
0.0
-4.0
2.0
6.0
3.0
-3.67
-1.0
6.67
2.0
2.67
2.67
-3.33
-2.67
1.0
1.33
-2.33
6.33
4.33
0.0
6.67
0.0
4.33
-5.67
6.0
3.67
0.0
4.33
1.67
10.0
0.33
0.67
2.0
-0.67
2.67
4.67
2.33
0.33
3.33
1.33
-7.0
1.0
1.0
0.67
1.0
3.0
3.67
-3.33
-4.0
2.67
5.33
3.0
1.67
6.0
1.0
-4.67
3.0
-1.67
6.33
-2.33
1.0
2.33
6.0
1.33
-5.0
-6.0
4.33
1.33
1.0
3.0
1.33
2.67
1.67
1.0
8.33
3.33
-1.33
1.67
-1.33
-0.67
2.33
4.67
3.67
0.33
1.67
5.67
4.0
-1.0
2.33
4.67
1.33
4.67
1.33
2.67
0.0
-1.33
0.67
4.33
0.33
-2.33
1.33
-1.0
2.33
4.33
1.67
0.33
-5.33
-2.0
-0.67
0.67
-0.67
1.33
-2.67
4.33
0.67
1.67
3.67
2.67
-5.0
-5.0
2.0
-0.67
4.67
1.0
-0.67
-1.0
6.0
0.33
-0.67
1.33
0.33
1.67
0.33
-0.33
-1.67
0.67
0.33
1.33
-3.0
-2.0
0.0
1.0
4.0
0.67
2.0
-4.67
0.33
3.0
6.0
0.0
5.67
1.33
6.33
-2.33
-1.67
-1.67
-1.67
-1.67
2.0
-0.33
-1.0
4.33
4.67
1.67
3.67
-2.33
2.33
2.0
3.0
-1.0
2.33
-1.0
2.67
1.67
0.33
-2.33
5.33
1.67
-0.67
-1.0
-1.33
0.33
-0.33
0.67
7.0
-1.0
0.67
4.0
1.0
2.33
2.0
2.0
-2.67
3.67
0.67
1.67
2.33
4.0
0.33
-4.67
-1.33
-2.67
-0.33
1.0
-4.67
4.33
2.33
-5.33
1.33
2.0
-1.33
-3.33
-1.33
-3.33
0.0
0.33
1.0
1.67
1.67
-5.0
1.67
0.0
7.33
-0.33
1.33
4.0
-2.0
-11.33
-6.0
-1.67
2.67
9.0
-0.33
-1.0
-2.0
2.0
4.33
0.67
2.33
-0.67
-2.0
-0.67
3.67
4.33
3.0
5.33
2.0
-1.67
1.33
-1.0
0.33
1.67
1.33
1.67
-1.67
9.0
4.33
-3.33
-1.33
2.67
6.0
0.33
9.0
-1.33
2.33
3.0
4.0
-1.0
6.67
0.0
3.67
1.0
3.33
1.0
-3.67
5.0
8.33
3.0
-2.0
0.67
6.33
7.0
11.33
3.0
8.33
4.33
6.67
5.0
0.33
8.67
-0.67
9.67
1.33
1.0
13.67
13.67
7.33
14.33
5.0
13.0
3.0
15.0
6.67
6.33
9.33
10.33
16.67
15.67
14.0
26.67
16.0
18.67
24.0
9.0
16.33
16.33
20.0
5.67
5.67
3.33
8.33
15.67
-1.0
12.67
11.0
16.0
11.0
13.33
14.0
24.33
14.0
20.0
17.33
16.0
17.0
19.0
20.33
14.67
10.67
13.0
0.67
6.33
11.33
7.33
6.67
10.0
4.33
9.33
2.0
22.33
11.0
12.0
5.33
13.67
12.0
15.33
11.0
15.33
11.67
19.67
11.67
12.67
18.33
16.33
17.33
25.0
20.33
16.33
27.33
15.67
15.67
18.67
21.0
24.33
18.67
13.33
18.33
14.0
14.67
11.33
7.33
13.0
15.33
14.0
15.33
24.33
19.0
27.33
29.0
17.67
28.0
18.0
22.33
19.67
18.0
16.0
9.0
14.67
5.0
9.67
0.67
0.33
14.0
6.0
9.33
10.0
18.33
27.0
24.33
40.67
40.33
55.33
41.33
51.0
26.67
15.67
24.0
22.67
4.0
3.0
17.33
14.33
0.67
-1.0
10.67
8.33
10.0
28.0
8.0
18.67
16.67
13.67
12.33
22.33
31.33
39.67
36.33
48.33
44.33
48.33
48.33
38.33
34.67
32.67
34.0
15.67
14.0
14.0
14.67
15.33
14.33
14.67
27.67
28.0
39.0
34.0
43.33
40.67
49.33
47.33
52.0
73.0
75.0
80.33
69.33
96.67
49.67
63.0
61.0
26.33
29.67
30.0
21.67
9.67
20.67
11.67
18.0
15.0
16.67
8.0
13.33
12.67
2.67
10.67
5.67
6.33
2.67
9.0
0.0
10.67
8.0
6.0
11.0
11.0
5.67
6.0
20.67
15.67
6.0
11.33
25.67
6.67
29.0
12.33
19.67
6.0
3.67
25.33
16.67
6.33
10.33
11.0
26.67
11.0
12.33
20.0
18.33
27.0
32.33
22.0
37.33
28.67
29.67
23.33
28.67
10.0
9.0
0.0
2.0
4.33
10.0
9.67
15.0
-4.0
6.67
14.0
-7.33
6.0
7.33
11.33
6.33
13.33
8.0
5.33
5.33
22.0
11.33
15.67
6.33
9.0
5.0
-7.67
6.33
6.33
12.0
3.0
13.67
12.0
-1.67
9.67
8.33
17.67
5.67
7.0
16.67
5.33
7.0
0.0
5.33
8.67
9.67
17.0
9.67
9.67
12.67
-5.33
-1.0
5.0
-5.33
7.0
1.67
4.0
2.67
10.67
10.0
8.33
15.33
-1.67
5.0
13.33
1.67
11.33
15.0
2.67
3.67
6.0
5.33
10.33
11.67
2.33
0.67
17.67
-4.0
-6.0
0.33
20.67
6.0
4.33
19.67
10.67
8.33
19.0
8.0
-4.67
4.33
6.67
7.67
5.0
16.67
19.0
16.67
11.33
10.0
9.0
13.67
5.0
19.67
14.67
18.67
11.33
3.33
4.67
4.67
1.67
20.33
14.67
13.33
-0.67
9.0
8.33
11.0
12.67
2.67
1.0
15.0
11.0
13.0
4.33
13.0
3.33
-3.67
26.0
19.67
3.33
14.33
-0.33
5.67
15.0
-1.67
-4.0
2.67
4.0
0.0
9.33
1.0
-0.33
2.0
3.67
-5.0
1.0
1.33
3.33
2.0
10.33
6.33
3.0
-2.0
7.0
6.33
5.0
11.67
-2.0
4.67
13.33
5.0
7.33
5.33
9.0
4.33
7.67
-3.67
3.0
5.0
4.33
3.67
3.33
-4.33
2.33
-3.33
1.0
-5.0
16.0
16.33
0.67
7.33
6.67
7.67
-1.33
0.33
14.0
2.33
1.67
15.0
3.0
7.67
-0.67
6.33
8.33
0.67
3.67
10.33
-1.33
2.33
9.0
0.0
4.0
1.67
2.33
10.0
-3.33
0.67
-3.67
-3.67
6.67
-0.67
8.33
12.67
2.0
10.0
5.33
0.33
5.67
-2.0
-0.33
2.67
-2.67
5.0
7.0
-4.0
10.67
4.67
-1.33
6.0
8.67
6.33
4.0
5.67
9.0
12.0
4.33
1.33
-1.33
5.33
8.33
3.67
4.67
-5.0
5.33
3.0
0.33
2.0
9.33
-5.0
8.67
0.0
-2.33
-2.0
3.67
4.0
-0.67
0.67
0.0
1.67
-2.67
9.33
2.0
-1.0
5.33
4.33
-1.33
9.0
8.33
6.0
-2.33
-6.0
9.0
12.33
4.0
-2.0
5.0
4.67
4.0
1.67
3.0
-1.33
5.0
2.67
1.33
2.33
-3.33
0.0
5.0
5.33
-4.33
6.0
-1.33
-2.67
3.67
2.33
3.67
5.67
7.67
1.33
4.0
5.0
6.0
2.67
-1.0
1.67
2.0
5.0
-4.67
4.0
0.67
1.0
2.33
1.67
0.0
9.0
-3.67
3.33
3.0
-0.33
5.33
2.0
7.0
4.0
10.0
-2.33
-1.67
3.33
4.67
4.33
1.67
-1.67
3.0
4.0
4.0
-2.33
5.67
-4.0
-4.33
-2.0