File: EDX Back Ups and Old Files/Spectra copy 3.3.23/Samples/Low pH SF 25C 2d/8.5.txt
0.0
17.33
25.67
-98.33
-44.33
-1.67
-4.67
-7.67
-57.0
-9.33
-42.67
-23.67
9.67
-17.0
9.33
-6.0
8.67
6.33
-0.67
-1.67
-1.0
-0.67
-0.33
0.0
1.0
0.0
0.0
0.0
1.0
-0.33
-0.33
-0.33
0.67
0.67
0.0
1.0
0.33
-0.67
-1.0
-0.67
0.0
0.0
-1.0
-0.67
1.0
0.33
-0.67
0.0
0.67
-0.67
0.67
0.33
0.0
-1.0
1.0
-0.33
1.67
-1.0
2.67
-3.0
2.0
-1.67
1.67
1.33
0.67
4.0
7.33
0.0
-2.0
5.0
4.33
1.0
-4.67
1.33
-6.33
6.0
-4.67
3.67
-1.33
-5.33
5.33
-3.0
1.67
-3.0
6.33
2.33
5.0
-1.0
2.0
3.67
-2.0
-5.33
6.0
2.33
5.0
8.67
8.67
8.0
8.0
1.67
3.33
-1.67
-0.67
-2.0
1.33
5.0
-2.33
10.33
3.67
5.67
4.67
7.33
8.33
5.67
2.0
2.67
7.0
6.33
-2.33
-2.33
2.33
4.67
5.67
4.67
3.33
0.33
2.67
5.67
1.67
4.67
-5.33
10.67
-1.0
2.0
2.67
-1.67
2.33
1.33
0.67
8.0
0.0
4.0
3.33
3.33
-3.67
7.33
2.67
1.67
-2.67
5.67
-5.0
8.67
-1.33
3.0
1.0
5.33
0.33
0.0
2.33
-2.33
5.33
3.67
1.33
1.0
4.0
8.0
7.0
1.0
4.33
5.0
2.67
2.0
4.67
1.67
2.67
-2.67
1.0
5.33
8.67
-2.67
2.33
6.0
2.67
8.0
2.33
0.33
0.0
1.67
-5.0
-2.67
4.67
1.0
8.33
4.67
11.0
-0.67
-0.33
-3.33
0.33
-0.67
-0.67
0.33
-1.0
-1.0
2.0
-3.33
2.0
4.0
5.67
1.67
-2.0
6.67
2.33
2.0
-0.33
1.0
1.0
-0.67
0.0
-1.67
4.33
-1.33
-1.0
4.33
5.0
3.33
2.0
-1.0
-0.67
6.33
2.0
0.0
-1.67
-0.33
-0.33
1.0
1.33
6.33
-1.33
3.67
-4.33
1.33
2.33
-2.33
4.67
2.33
3.67
3.67
3.0
1.0
0.33
-3.33
-0.67
0.67
2.33
0.67
-1.0
-0.33
0.67
0.33
-5.67
0.67
2.33
4.0
-1.67
-2.67
-3.33
0.33
-1.33
6.0
0.33
1.67
0.33
3.33
0.33
3.33
-1.33
1.67
-0.33
0.67
-2.0
0.0
-2.0
4.33
-1.33
0.0
4.33
0.0
4.0
0.33
2.33
1.33
-0.67
-3.33
-0.67
-1.33
2.33
-0.33
2.33
4.33
-1.0
-2.0
-2.0
-1.0
-1.0
-0.33
1.0
-1.67
0.33
0.0
0.0
-5.0
-2.33
-1.67
2.33
2.67
0.33
-3.67
-4.67
-2.67
4.0
-0.33
-1.0
0.33
0.67
5.67
-0.33
-3.33
-0.67
1.0
-3.0
5.0
-0.67
1.0
-3.33
3.67
-0.67
-1.33
5.33
0.67
0.33
0.0
-0.33
2.33
0.67
0.67
3.0
-2.0
3.67
2.0
2.0
1.33
3.0
0.0
2.33
0.67
0.67
2.67
4.33
-3.0
-3.67
4.33
1.67
-4.67
1.67
-1.0
1.33
5.33
0.33
-0.33
-0.67
1.0
0.67
-0.33
-2.33
-3.33
-2.0
1.33
-1.0
8.67
1.67
-5.0
10.67
5.0
2.33
0.67
2.33
-2.0
-6.0
-6.33
-3.0
2.33
4.67
4.0
2.67
1.0
-1.0
-2.0
1.33
7.67
-2.67
6.33
5.0
4.33
1.67
5.33
6.0
2.33
7.0
-2.67
-0.67
4.0
3.33
5.67
1.33
2.67
0.33
4.0
-3.67
5.67
4.67
-1.33
6.0
-0.67
8.0
9.67
2.33
-1.0
2.0
-3.0
8.67
4.0
7.67
2.0
1.33
3.0
3.33
5.0
0.33
10.0
5.0
11.67
7.33
8.0
7.33
7.0
7.33
3.33
4.67
3.0
2.33
12.67
7.33
4.67
7.33
4.0
13.67
2.67
2.33
3.33
8.0
-2.0
11.0
5.0
4.67
13.33
3.33
20.33
19.67
21.67
20.0
16.67
24.0
20.67
20.0
21.0
6.33
10.33
14.0
8.67
5.67
12.33
9.33
6.67
1.0
2.67
12.0
6.0
8.0
14.33
12.0
14.33
17.0
16.0
22.33
21.0
16.0
9.0
15.33
14.67
12.67
6.0
14.67
9.33
2.33
7.33
6.67
5.0
9.33
15.33
10.0
8.33
6.0
6.0
10.33
14.67
12.0
23.33
17.0
23.33
19.67
17.67
7.67
7.67
11.33
12.33
14.33
12.0
11.33
22.33
28.33
16.67
24.67
33.67
21.0
17.33
18.67
25.33
11.33
5.0
12.67
14.33
16.33
21.0
10.33
11.0
15.33
17.33
17.0
24.33
20.0
17.67
12.0
20.0
9.33
5.67
3.0
11.0
14.0
4.67
11.0
5.67
9.67
13.33
7.0
7.0
8.33
8.0
21.33
19.0
16.33
35.67
35.33
51.33
56.33
44.0
26.67
21.67
19.0
16.67
13.0
4.0
14.33
13.33
5.67
4.0
9.67
23.33
22.0
17.0
26.0
23.67
43.67
45.67
55.33
55.33
64.33
39.67
61.33
49.33
52.33
49.33
38.33
40.33
36.67
26.67
30.0
20.67
25.0
28.0
16.67
28.33
38.33
30.67
42.67
38.0
45.0
39.0
42.33
46.67
40.33
35.33
48.0
53.0
76.0
63.33
57.33
63.67
55.67
44.0
44.0
44.33
25.67
21.0
11.67
16.67
16.67
21.67
25.0
15.0
15.67
7.0
10.33
15.67
-4.33
7.67
6.67
-1.67
10.67
8.0
14.0
7.67
6.0
7.0
6.0
12.0
16.67
23.0
23.67
1.67
18.0
16.33
16.67
-4.33
14.0
8.33
29.67
12.0
15.67
16.33
19.67
19.33
5.33
19.0
22.67
22.0
22.33
22.0
34.33
44.0
30.33
32.0
27.33
23.67
31.67
12.33
3.67
14.0
22.0
2.0
1.0
10.33
5.0
-1.33
15.0
0.0
13.67
4.0
8.67
8.0
1.33
-3.67
11.33
21.33
4.0
9.33
0.33
14.0
16.33
9.67
21.33
5.0
9.0
2.33
10.33
5.33
20.0
7.0
6.67
10.0
4.33
14.67
13.33
-0.33
7.67
6.0
13.67
21.33
11.0
19.0
26.33
14.67
10.67
6.0
8.67
13.67
3.67
3.67
20.0
4.0
2.67
6.0
-9.33
3.0
-3.33
-3.33
2.0
13.33
16.33
-1.67
20.0
4.33
-5.33
14.33
2.0
9.67
15.67
15.0
13.33
17.33
0.67
13.33
-3.33
8.67
17.0
2.0
6.33
8.67
-4.0
19.33
17.67
7.67
7.33
10.0
14.0
21.33
15.33
24.67
14.67
5.0
22.67
10.0
30.67
9.33
8.0
4.0
11.67
17.0
23.67
17.67
6.67
10.33
5.33
21.67
9.67
21.67
7.33
17.67
12.33
16.33
2.0
18.33
10.0
11.67
6.67
20.0
13.0
25.0
1.0
-1.67
11.0
11.33
3.33
15.0
4.67
1.33
0.33
7.67
8.67
9.0
4.33
-3.0
2.67
1.0
-3.0
0.33
8.0
-0.33
15.0
-0.33
11.0
6.0
3.33
12.33
-1.0
9.33
3.33
14.0
-2.0
-7.0
-6.67
11.0
-1.33
12.0
9.67
1.33
5.0
2.33
0.33
8.0
11.33
2.67
1.33
9.0
3.0
1.33
2.67
-1.67
1.67
2.33
4.67
12.0
0.0
10.0
4.33
-0.33
7.33
6.67
-1.33
0.67
11.33
3.0
-0.67
0.67
4.0
1.0
8.67
-8.67
8.33
12.33
-0.33
-1.33
-6.67
-8.33
9.33
-2.0
12.0
12.0
-4.33
11.33
9.0
5.67
-5.33
-2.67
8.33
6.67
14.33
-0.67
-4.33
-5.0
2.0
9.33
2.33
2.67
-1.0
6.67
3.67
-0.67
6.0
7.0
0.0
-1.33
4.67
3.67
4.0
10.67
7.33
4.0
14.67
2.0
4.0
2.33
6.33
-1.33
4.33
6.33
2.67
2.67
2.0
2.33
6.0
2.33
2.0
-0.67
0.0
9.67
2.0
0.67
-3.0
3.67
2.0
-0.67
5.67
0.0
2.67
-0.67
-1.67
3.0
1.0
6.33
1.33
-0.33
4.0
8.33
4.0
-0.33
-6.0
10.0
2.33
-1.0
0.0
7.0
0.67
8.0
5.67
2.0
7.67
1.0
0.67
-0.67
3.33
0.67
2.0
2.0
7.33
-2.33
0.0
3.67
5.33
2.67
0.33
1.67
-1.33
-1.33
2.33
4.0
-1.0
2.0
1.67
3.0
3.67
-6.0
10.0
-1.67
1.0
-1.33
3.0
-1.67
2.67
6.0
0.0
7.33
2.33
-8.0
-5.33
1.33
4.0
5.0
2.0
6.0
-1.33
-1.67
-0.67
-2.33
1.33
-2.33
-5.67
2.0
-2.0
1.0
2.67
5.67
-6.0
7.67
-3.0