File: EDX Back Ups and Old Files/Spectra copy 3.3.23/Samples/Low pH SF 25C 2d/9.0.txt
0.0
37.33
-70.33
-80.33
2.67
45.33
7.33
-35.67
-54.0
22.67
-38.67
-26.67
-5.33
-16.0
8.33
-13.0
2.67
1.33
-0.67
-0.67
1.0
1.33
0.67
1.0
2.0
1.0
1.0
2.0
0.0
-0.33
0.67
-0.33
-0.33
-0.33
0.0
3.0
-0.67
-0.67
-1.0
0.33
0.0
0.0
-1.0
0.33
1.0
-0.67
-0.67
3.0
2.67
0.33
1.67
-0.67
0.0
0.0
-2.0
-2.33
2.67
2.0
-0.33
2.0
1.0
0.33
3.67
1.33
4.67
0.0
0.33
3.0
6.0
6.0
2.33
2.0
4.33
2.33
-8.33
1.0
0.33
6.67
2.67
-0.33
-0.67
7.0
6.67
0.0
2.33
-0.67
5.0
2.0
4.0
8.67
-1.0
-0.33
0.0
-6.67
2.0
-2.33
4.67
1.0
2.0
3.67
7.33
1.33
-0.67
4.0
2.33
4.0
-0.33
5.33
5.67
1.67
2.67
7.33
2.33
1.67
1.0
10.67
3.0
3.33
3.67
1.67
2.33
4.67
-1.33
9.67
-6.67
5.33
1.67
6.67
5.67
-6.33
-0.33
1.67
-5.0
6.0
2.67
1.33
0.33
-5.67
4.67
7.0
1.0
4.0
3.33
0.33
-1.67
2.33
4.67
-2.33
2.33
3.67
0.0
-0.33
0.67
3.0
4.0
3.33
4.33
-2.0
5.33
-1.33
0.33
7.67
4.33
4.0
0.0
7.0
0.0
7.0
3.33
1.0
1.67
-2.0
-0.33
0.67
-3.33
1.33
8.0
3.33
1.67
2.33
0.33
-2.0
1.67
3.0
-1.67
3.33
0.0
4.67
1.0
1.33
3.67
5.0
4.33
7.67
6.0
-1.67
3.67
2.67
1.33
1.33
2.33
8.33
-2.0
-1.0
-3.0
3.67
2.0
1.0
3.67
-2.33
-4.0
0.67
0.33
3.0
4.67
3.0
-4.0
0.33
-1.0
0.33
5.33
1.67
-2.0
2.33
3.0
4.33
0.0
1.0
2.33
-1.67
-3.0
4.0
-2.67
4.67
2.67
-5.0
3.33
-0.67
-0.33
0.67
-0.33
1.33
2.33
-2.33
5.67
-0.67
3.67
3.67
3.0
8.0
2.33
-2.33
0.33
1.67
3.33
4.67
-3.0
2.67
-1.33
3.33
-2.67
-5.33
-0.67
4.0
1.33
3.33
-0.33
0.33
-2.33
-1.0
0.33
0.67
-0.67
4.33
-0.67
-1.67
-2.33
2.67
1.67
-2.33
4.0
-2.0
-2.0
0.33
0.67
-1.0
4.33
1.0
3.0
5.33
-2.67
-0.67
-2.67
0.67
-2.67
-0.33
-3.67
-2.33
2.33
-1.67
3.0
-1.0
3.0
-1.0
-1.0
-0.33
2.0
-1.67
-1.67
1.0
0.0
0.0
1.67
-0.67
3.33
1.67
1.33
-1.67
1.33
-0.67
3.0
-1.33
5.0
-0.67
2.67
-3.33
-0.33
0.67
-0.67
-2.0
-7.0
5.0
-2.67
-2.0
5.67
-2.33
6.33
0.67
0.33
1.67
1.33
2.0
1.67
2.33
9.67
-6.33
-4.0
-1.0
2.67
0.0
0.0
4.33
5.0
-1.0
-0.67
1.67
2.67
7.67
2.33
-3.0
3.33
5.33
-2.33
-3.67
2.67
0.0
0.33
-2.67
-1.67
-0.33
1.33
0.0
1.67
3.67
-3.33
-4.33
-2.0
-0.67
5.0
1.67
5.67
-4.0
3.67
-3.0
4.33
4.67
1.33
6.0
0.0
-5.33
-6.0
0.33
2.67
1.0
2.67
1.0
-6.0
2.0
7.33
-0.33
-4.67
6.33
3.0
-1.67
9.67
7.33
2.0
7.33
5.0
6.33
-1.67
0.0
1.33
3.67
-3.67
5.67
-0.67
4.0
4.33
5.67
2.67
2.67
17.0
-5.67
11.0
2.67
7.33
6.0
7.0
-2.0
-0.33
4.0
5.67
7.0
11.33
1.0
6.33
7.0
5.33
1.0
3.0
3.67
8.33
17.0
8.33
6.0
2.33
3.33
13.67
7.0
4.33
-0.33
9.33
3.67
2.33
3.0
10.67
8.67
8.33
3.33
4.0
3.0
10.0
15.0
26.67
38.33
15.33
36.33
51.67
67.67
76.0
61.67
63.0
46.67
48.0
16.0
17.33
17.33
14.0
1.67
13.67
0.33
11.33
5.67
9.0
3.67
18.0
10.0
12.0
3.33
14.0
19.33
17.0
20.0
29.33
17.0
21.0
14.0
22.33
5.67
8.67
8.0
13.67
6.33
7.33
9.33
3.67
1.0
9.33
8.33
7.0
8.33
17.0
3.0
19.33
18.67
9.0
14.33
14.0
18.33
16.67
14.67
7.67
20.67
23.33
27.33
34.33
25.0
37.33
42.33
49.33
45.67
48.67
39.67
42.0
35.33
30.67
37.33
13.33
27.0
36.67
19.33
19.33
28.0
13.33
15.0
18.33
19.33
6.0
11.33
18.0
9.67
16.0
15.0
2.33
6.67
13.0
8.0
9.0
3.67
5.0
10.67
13.67
6.33
2.0
5.0
10.33
11.0
15.33
33.0
25.33
37.67
33.33
43.33
52.33
36.0
39.67
28.67
28.0
20.67
6.0
6.0
16.33
16.33
8.67
9.0
23.67
25.33
35.0
27.0
34.0
61.67
50.67
68.67
51.33
56.33
52.33
67.67
59.33
37.33
48.33
50.33
30.33
21.33
34.67
21.67
14.0
17.67
9.0
23.0
8.67
11.33
19.33
13.67
19.67
26.0
29.0
33.0
37.33
48.67
44.33
41.33
45.0
33.0
58.0
45.33
69.33
62.67
51.67
44.0
22.0
37.33
43.67
23.0
18.67
19.67
23.67
16.67
24.0
5.0
13.67
12.0
19.33
-0.33
-3.33
14.67
8.67
9.33
2.67
14.0
7.0
14.67
18.0
11.0
12.0
19.0
15.67
20.0
8.67
5.67
8.0
18.33
15.67
6.67
14.0
36.33
0.67
27.0
30.67
17.33
14.67
20.33
19.33
4.0
28.67
22.0
35.33
32.0
42.33
31.0
24.33
42.0
51.33
36.67
38.67
23.33
26.67
27.0
20.0
22.0
11.0
15.33
-1.0
12.67
18.0
20.0
9.67
20.0
5.67
-1.0
11.33
3.33
5.33
9.33
12.0
3.33
0.33
8.0
12.33
13.67
10.33
9.0
-1.0
9.33
11.33
12.33
22.0
8.0
13.67
9.0
4.33
7.67
15.33
-0.33
16.67
-1.0
11.67
4.33
6.0
1.0
19.33
3.67
10.67
4.0
13.67
9.67
17.67
-7.33
6.0
6.0
6.67
4.0
-1.33
5.0
3.67
0.67
14.0
3.33
25.33
4.33
9.0
16.33
-3.33
7.33
6.0
2.67
-3.33
21.0
7.33
-3.67
20.67
10.33
14.67
-1.33
12.0
11.0
1.33
8.67
22.0
3.33
12.67
4.67
6.33
9.0
9.0
3.33
0.33
10.67
10.67
-4.0
15.67
15.0
16.67
34.33
30.0
11.0
15.67
14.0
17.67
11.67
7.67
8.33
11.33
13.67
13.67
7.67
11.33
2.67
8.33
15.33
13.0
10.33
3.0
8.67
8.67
15.0
10.0
23.0
7.0
9.33
14.0
0.33
7.33
12.0
-1.33
10.33
3.33
2.67
-5.33
1.0
-2.67
10.0
1.67
10.0
-6.0
6.33
17.0
-2.33
4.0
6.67
9.0
-3.0
0.33
6.33
5.0
3.33
2.33
6.0
0.0
-2.0
-5.67
10.0
-0.33
3.0
1.67
6.33
-5.0
3.33
1.33
-7.0
5.33
12.67
4.33
12.0
-1.0
-1.67
7.67
6.33
2.67
3.33
-5.33
-5.0
-2.0
12.0
2.33
2.67
6.33
-3.33
2.67
5.67
2.33
2.0
5.33
-5.33
2.0
6.0
5.67
8.33
7.33
13.33
0.67
5.67
0.33
-2.33
3.33
10.0
4.0
7.0
0.67
6.33
-3.0
7.67
-0.33
9.33
5.33
6.67
4.33
-1.67
3.67
1.0
6.0
4.33
-0.67
2.67
-4.0
9.67
7.67
1.33
3.0
6.0
4.0
0.67
6.67
-3.33
3.0
7.67
3.33
4.0
1.67
5.0
-2.0
-4.67
5.33
6.67
5.33
2.33
4.67
-3.33
6.0
-2.67
5.0
1.33
-3.0
5.33
-7.0
3.67
10.0
-4.33
1.0
1.67
3.0
-1.67
1.67
4.0
4.67
-4.67
6.33
3.0
8.0
8.33
-3.67
5.67
6.0
6.33
-2.0
0.67
-1.0
5.0
15.33
-5.0
2.0
11.0
1.67
-5.0
1.67
-2.0
2.67
1.0
-2.33
2.33
3.33
-3.33
0.0
11.0
1.33
-2.33
2.0
2.67
3.33
-2.33
2.33
0.67
2.67
1.67
6.33
-3.0
-3.0
6.0
0.67
-2.0
3.67
-7.0
9.0
9.33
3.0
10.67
0.0
-2.67
1.67
-1.0
8.0
-3.67
-5.67
3.0
-0.33
1.33
0.0
8.0
0.0
0.0
-0.33
-3.67
6.33
6.67
-0.67
0.67
-1.67
1.0
0.0
-3.0
-0.33
0.67
3.0
-2.33
1.0