File: EDX Back Ups and Old Files/Spectra copy 3.3.23/Samples/Low pH SF 25C 2d/9.25.txt
0.0
36.33
-28.33
-102.33
-124.33
-9.67
-60.67
-19.67
-48.0
10.67
-23.67
-30.67
-1.33
-9.0
1.33
-8.0
0.67
-1.67
-0.67
0.33
1.0
-0.67
-1.33
0.0
0.0
0.0
1.0
0.0
0.0
-0.33
0.67
-0.33
-0.33
-0.33
0.0
0.0
-0.67
0.33
-1.0
0.33
1.0
0.0
-1.0
0.33
0.0
-0.67
-0.67
0.0
-0.33
0.33
-0.33
-1.67
-2.0
0.0
2.0
-0.33
2.67
-1.0
3.67
-1.0
2.0
2.33
1.67
3.33
6.67
0.0
1.33
-4.0
-1.0
3.0
2.33
3.0
-2.67
2.33
-3.33
4.0
-5.67
4.67
0.67
0.67
-3.67
5.0
11.67
6.0
1.33
-0.67
1.0
-3.0
4.0
3.67
4.0
1.67
0.0
7.33
1.0
1.67
5.67
1.0
4.0
3.67
1.33
3.33
0.33
4.0
4.33
7.0
3.67
1.33
9.67
4.67
3.67
7.33
7.33
6.67
3.0
-0.33
-1.0
14.33
0.67
2.67
9.33
0.67
10.67
4.67
1.33
7.33
7.67
1.67
6.67
3.67
2.67
-3.33
2.0
-4.0
-1.33
1.33
4.33
-3.67
3.67
11.0
0.0
3.0
1.33
4.33
-4.67
4.33
3.67
3.67
-1.67
-0.33
5.0
-1.33
-1.33
7.0
-2.0
-1.67
-0.67
4.0
6.33
1.67
-0.67
4.67
7.33
-3.0
8.0
8.0
2.0
0.0
1.33
4.0
0.67
0.0
-2.33
8.67
-0.33
2.33
2.0
0.33
1.67
0.33
4.33
-4.0
0.67
-3.0
-1.67
0.33
2.0
0.67
-1.0
-1.67
8.67
2.0
4.33
4.67
2.0
4.33
2.67
1.67
0.33
-1.67
-2.67
5.33
-1.0
-2.0
-1.0
3.67
9.0
8.0
4.67
5.67
-2.0
7.67
1.33
1.0
0.67
1.0
-4.0
0.33
-4.0
2.33
4.33
-0.33
0.0
3.33
1.0
-1.67
-2.0
5.0
-4.67
1.33
-5.0
1.0
0.33
-3.33
-1.33
-2.0
-1.67
-1.67
-3.33
0.67
-1.33
-0.67
1.33
3.67
6.67
0.33
-0.33
1.67
5.0
4.0
-1.67
-0.33
-1.67
2.67
6.33
-3.33
3.0
1.67
-3.33
2.33
-6.67
-1.33
3.33
3.0
2.33
6.33
-0.33
-1.67
-0.33
2.0
1.33
-0.33
-1.67
5.33
1.33
3.33
-2.33
1.67
-2.33
5.67
-4.0
-3.0
1.0
-1.67
2.67
1.0
-2.67
0.0
-1.0
2.33
-5.67
2.33
-1.67
1.67
1.33
-0.33
-1.67
-0.33
0.33
-1.67
-1.0
0.0
-3.0
-1.0
0.0
1.67
3.0
-0.67
-1.67
2.0
3.0
-4.0
2.67
2.33
3.33
0.67
5.33
0.33
-6.67
-0.67
3.0
-0.33
2.0
0.33
1.67
-3.33
1.67
-1.33
0.33
-2.0
-3.0
3.0
-1.67
4.0
1.67
-2.33
2.33
-2.33
-0.67
-2.33
0.33
3.0
2.67
-1.67
3.67
1.67
3.0
-3.0
1.67
0.0
5.0
-2.67
-1.0
1.0
-2.67
2.67
0.67
5.67
3.33
-4.0
7.33
2.33
4.67
0.33
-0.33
-3.0
-4.67
-2.67
-0.67
-5.33
-2.67
0.0
1.67
-2.33
5.67
-0.33
-7.0
1.33
3.0
1.67
1.67
-2.0
2.67
-2.0
2.33
4.67
0.33
-2.0
-2.0
0.67
-5.0
-1.67
-2.33
8.0
0.67
2.0
2.0
2.0
0.33
0.67
9.33
1.33
9.0
-2.67
5.67
7.33
2.0
10.33
8.0
4.33
0.33
-1.0
5.33
8.67
5.33
2.67
5.33
4.0
4.33
3.67
0.67
7.67
1.0
3.33
0.0
2.67
5.33
-1.0
6.0
-6.0
8.67
-4.0
5.67
5.0
-1.67
1.0
6.33
5.0
6.33
6.0
15.0
5.67
0.33
0.0
11.33
19.0
15.33
8.33
11.67
12.0
9.33
4.67
1.33
4.67
8.33
9.0
4.67
5.67
11.33
15.33
2.0
10.0
13.0
16.0
15.67
32.33
42.33
53.33
75.67
69.67
90.0
77.67
67.0
46.67
47.0
49.0
21.33
16.33
19.0
10.67
7.67
11.33
12.33
-2.33
9.0
15.67
18.0
17.0
14.0
13.33
18.0
24.33
25.0
37.0
32.33
14.0
18.0
15.0
9.33
19.67
25.67
11.0
11.67
6.33
11.33
9.33
7.67
1.0
12.33
14.33
12.0
-0.67
24.0
16.0
0.33
19.67
11.0
23.33
15.0
14.33
15.67
15.67
14.67
19.67
36.33
33.33
27.33
45.0
40.33
40.33
59.33
55.67
53.67
54.67
49.0
41.33
25.67
45.33
25.33
16.0
28.67
29.33
34.33
43.0
36.33
49.0
36.33
63.33
27.0
12.33
32.0
5.67
16.0
7.0
8.33
12.67
15.0
9.0
18.0
4.67
3.0
19.67
2.67
3.33
9.0
1.0
7.33
18.0
14.33
12.0
29.33
31.67
43.33
32.33
26.33
45.0
28.67
26.67
27.0
23.67
18.0
8.0
10.33
14.33
16.67
7.0
18.67
29.33
24.0
43.0
47.0
60.67
54.67
69.67
71.33
89.33
96.33
116.67
112.33
77.33
79.33
58.33
48.33
41.33
39.67
29.67
17.0
22.67
12.0
16.0
12.67
23.33
17.33
23.67
17.67
27.0
34.0
32.0
27.33
32.67
45.33
50.33
43.0
49.0
57.0
58.33
50.33
42.67
62.67
52.0
45.0
40.33
41.67
45.0
31.67
23.67
15.67
19.67
24.0
13.0
7.67
16.0
12.33
9.67
0.67
9.67
7.67
2.33
13.67
18.0
7.0
7.67
20.0
7.0
4.0
23.0
15.67
23.0
23.67
19.67
21.0
11.33
20.67
12.67
18.0
21.33
18.67
30.0
8.67
18.33
12.67
13.33
24.33
9.0
27.67
21.0
29.33
12.0
18.33
25.0
31.33
22.0
27.33
29.67
30.67
21.33
33.67
18.0
19.0
14.0
6.0
14.33
9.0
8.67
1.0
13.0
15.67
9.0
4.67
5.0
2.33
12.33
23.33
23.33
13.0
5.33
6.33
16.0
6.33
15.67
11.33
-1.0
5.0
2.33
8.33
14.33
5.0
14.0
8.67
5.0
1.33
2.67
14.33
12.67
14.67
10.0
12.67
7.33
4.0
12.0
12.33
3.67
20.67
-2.0
2.67
1.67
9.67
-5.33
9.0
10.0
9.67
10.0
3.67
16.0
-0.33
0.67
8.0
-3.67
4.33
5.33
1.0
13.33
3.67
11.33
21.0
0.67
15.67
16.0
9.33
14.33
5.67
3.33
16.67
4.67
8.0
10.0
9.33
12.67
18.0
1.33
4.67
-1.33
5.33
6.0
11.0
6.33
0.33
5.67
0.67
9.0
16.67
17.0
14.67
11.33
24.0
4.0
0.67
15.0
11.67
6.67
9.67
14.33
11.33
4.67
8.67
10.67
22.33
16.67
11.33
15.33
-1.0
13.33
6.0
16.67
1.67
5.0
20.0
2.0
10.0
14.33
4.0
2.33
11.33
16.0
5.67
7.33
8.33
4.67
8.67
8.0
13.33
1.0
-13.33
-6.0
14.0
18.33
4.0
18.67
-5.0
-0.33
11.0
0.0
-5.67
3.33
15.0
9.33
6.33
2.0
-5.0
2.0
-4.67
-1.0
-1.33
-8.0
6.67
6.33
-3.0
6.33
6.33
-1.0
5.33
1.67
4.33
8.0
-4.0
4.33
9.67
12.33
3.67
5.33
0.67
3.0
-3.0
9.0
9.33
-2.33
7.33
-2.33
5.67
6.67
4.33
16.0
9.33
-2.33
3.0
-5.0
12.67
3.33
9.33
8.33
-1.33
-4.33
8.33
0.67
1.33
7.0
4.0
9.0
12.67
12.33
-5.0
-3.33
-1.33
-4.67
-0.67
7.67
3.33
2.33
4.67
5.0
14.0
6.33
-1.67
-1.33
1.0
-0.33
5.67
1.33
5.0
3.0
6.0
-5.33
8.67
-3.33
-2.0
9.67
11.33
-2.0
2.67
8.0
13.0
4.33
2.33
8.67
2.33
2.33
-0.33
4.67
0.0
4.33
8.0
4.33
9.0
2.33
-4.0
8.67
-2.0
3.67
6.0
4.67
3.0
1.33
0.67
2.0
0.67
-2.67
4.33
4.0
6.0
9.33
2.33
5.67
5.0
1.33
8.0
3.67
-2.0
7.0
2.33
9.0
14.0
5.0
3.67
0.0
-4.33
-4.0
2.67
3.0
5.67
0.33
1.33
3.67
-3.0
-4.0
4.33
-4.33
5.0
0.67
2.33
0.67
1.33
-6.33
4.67
0.67
7.33
-2.0
0.0
2.0
3.67
2.0
1.67
-3.0
2.0
2.33
4.0
3.67
2.0
-1.67
2.67
2.0
4.0
-1.67
-2.67
-8.0
1.67
3.33
4.0
4.0
-2.0
0.0
-1.33
5.33
1.33
0.67
2.33
-0.33
-6.67
-5.0
-3.0
5.0
1.67
-2.33
-1.0
3.67
3.0