File: EDX Back Ups and Old Files/Spectra copy 3.3.23/Samples/Low pH SF 25C 2d/9.5.txt
0.0
28.33
-94.33
10.67
-26.33
-51.67
-27.67
73.33
-56.0
-12.33
-42.67
-20.67
-12.33
-7.0
-1.67
-4.0
4.67
-1.67
2.33
0.33
0.0
-0.67
-0.33
0.0
0.0
0.0
1.0
0.0
0.0
0.67
0.67
0.67
0.67
-0.33
1.0
0.0
0.33
-0.67
-1.0
-0.67
0.0
0.0
-1.0
-0.67
2.0
-0.67
0.33
1.0
1.67
0.33
0.67
1.33
-1.0
-1.0
1.0
-1.33
2.67
-1.0
1.67
-1.0
-1.0
0.33
2.67
2.33
0.67
-2.0
-1.67
-1.0
-3.0
2.0
3.33
3.0
-2.67
3.33
-3.33
6.0
-4.67
2.67
-1.33
3.67
-3.67
4.0
0.67
0.0
9.33
2.33
-5.0
-1.0
-2.0
-4.33
8.0
-4.33
-1.0
5.33
-4.0
3.67
9.67
3.0
6.0
4.67
4.33
3.33
4.33
2.0
3.33
7.0
6.67
5.33
7.67
3.67
2.67
3.33
6.33
0.67
5.0
6.67
3.0
-0.67
7.67
-2.33
-2.67
-0.33
11.67
2.67
-3.67
13.33
3.67
2.67
9.67
-0.33
2.67
-2.33
1.0
1.0
1.67
3.33
-2.67
1.33
-1.33
-1.0
6.0
4.0
11.33
-1.67
-3.67
7.33
-2.33
2.67
-3.67
10.67
10.0
3.67
-3.33
0.0
1.0
0.33
13.33
5.0
1.33
-3.33
4.33
2.67
0.33
1.0
-1.0
3.0
1.0
3.0
-2.67
1.0
-0.33
4.0
1.67
0.67
4.67
7.33
-4.0
6.33
-3.33
-0.67
-0.67
4.0
-2.33
1.0
6.33
1.33
3.0
-1.33
-7.0
5.33
2.67
-1.0
0.33
9.67
7.0
0.33
-2.33
2.67
2.33
-5.67
4.33
2.33
-1.0
-1.0
0.0
-0.33
1.0
5.0
-2.33
-0.33
-4.0
1.67
-3.67
1.0
4.67
5.0
0.0
0.33
-8.0
5.33
8.33
-3.33
2.0
5.33
3.0
-4.67
2.0
1.0
3.33
-4.67
2.0
0.0
-1.67
4.67
2.67
-2.0
0.33
2.33
-6.33
-0.33
-0.33
0.33
7.33
-1.33
2.67
-1.67
2.67
0.67
2.0
7.0
0.33
-1.33
-1.67
0.67
-2.67
2.67
-3.0
-0.33
-3.33
1.33
-5.67
-1.33
-1.67
1.0
-0.67
0.33
-2.33
0.33
-3.33
2.0
-0.67
-5.33
-0.67
4.33
0.33
0.33
-4.33
1.67
1.67
-2.33
-1.0
-2.0
0.0
-2.67
1.67
7.0
-0.67
0.0
-2.0
1.33
-3.67
1.33
0.33
0.67
4.33
5.67
0.33
0.67
2.33
-1.67
-2.0
-4.0
-1.0
-2.0
2.0
2.67
-2.0
-4.67
2.33
4.0
2.0
2.0
2.67
4.33
3.33
-0.33
1.33
-2.67
-5.67
4.33
4.0
-1.33
2.0
-1.67
2.67
-0.33
0.67
0.67
1.33
1.0
-4.0
0.0
-4.67
3.0
2.67
5.67
6.33
-2.33
4.33
-2.33
4.33
4.0
-1.33
4.33
6.67
-1.33
3.0
-5.0
1.67
3.0
3.0
5.33
7.0
2.0
-2.67
-1.33
0.67
6.67
-0.67
-5.0
2.33
3.33
-0.33
-1.67
-1.33
0.0
-1.67
-0.67
-3.67
-0.33
1.33
-2.0
-4.33
-2.33
-7.33
-1.33
-1.0
0.33
-2.0
4.67
2.67
-3.0
6.67
-3.0
9.33
-4.33
8.33
3.0
-4.0
-2.33
-1.0
-5.67
-1.33
2.0
6.67
6.0
-4.0
1.0
4.33
-0.33
0.33
7.33
10.0
-2.67
1.67
9.33
4.0
11.33
8.0
2.33
8.33
5.0
1.33
1.67
7.33
4.67
-0.67
4.0
4.33
0.67
-3.33
4.67
6.0
1.33
3.0
7.67
4.33
-5.0
5.0
-3.0
6.67
2.0
10.67
4.0
8.33
-1.0
4.33
5.0
4.33
6.0
7.0
8.67
3.33
6.0
8.33
12.0
11.33
12.33
8.67
17.0
3.33
2.67
8.33
13.67
6.33
10.0
8.67
0.67
9.33
9.33
2.0
5.0
14.0
10.0
11.67
10.33
18.33
13.33
10.67
29.67
22.0
30.67
17.0
25.67
18.0
28.0
5.33
13.33
6.0
4.67
2.67
3.33
0.33
7.67
5.0
3.67
14.0
16.0
28.0
26.33
23.0
40.33
50.0
46.0
37.33
29.0
18.0
19.0
28.33
27.67
13.67
11.0
6.67
5.33
12.33
8.33
11.67
17.0
5.33
15.33
12.0
13.33
11.0
8.0
7.33
5.67
5.0
30.33
24.0
17.33
20.67
24.67
23.67
14.67
30.33
25.33
31.33
28.0
32.33
53.33
47.33
52.67
40.67
44.67
26.0
33.33
28.67
37.33
23.33
47.0
43.67
46.33
64.33
47.0
58.33
47.0
37.33
42.33
29.0
39.33
23.0
15.67
13.0
14.0
15.33
4.67
9.0
13.0
20.0
8.67
6.0
24.67
6.67
4.33
9.0
20.0
13.33
17.0
7.33
13.0
15.33
14.67
7.33
26.33
21.33
24.0
23.67
16.67
16.0
13.67
11.0
11.0
19.33
18.33
10.67
7.0
26.67
31.33
37.0
26.0
24.0
48.67
39.67
45.67
36.33
71.33
67.33
62.67
52.33
65.33
73.33
47.33
34.33
29.33
28.67
24.67
8.0
8.67
20.0
10.0
16.67
22.33
20.33
24.67
15.67
37.0
38.0
33.0
25.33
35.67
44.33
45.33
53.0
51.0
46.0
44.33
45.33
39.67
34.67
29.0
41.0
31.33
36.67
23.0
29.67
27.67
23.67
17.67
19.0
13.0
12.67
5.0
10.33
9.67
5.67
26.67
11.67
7.33
0.67
17.0
11.0
7.67
26.0
10.0
18.0
23.0
13.67
16.0
24.67
21.67
16.0
22.33
15.67
3.67
27.0
31.33
17.67
33.0
11.67
18.33
24.67
5.33
9.33
14.0
14.67
15.0
19.33
15.0
24.33
21.0
13.33
24.0
28.33
15.67
29.67
17.33
28.67
17.0
23.0
19.0
13.0
14.33
4.0
12.67
7.0
14.0
10.67
4.0
6.67
-1.0
12.33
18.33
16.33
12.33
12.0
4.33
-2.67
11.0
13.33
13.67
7.33
10.0
24.0
1.33
7.33
0.33
22.0
4.0
7.67
11.0
5.33
20.67
15.33
4.67
11.67
-1.0
1.67
13.33
18.0
-2.0
4.33
4.67
4.67
6.0
3.67
28.67
8.67
8.67
11.0
14.0
-4.33
7.0
6.67
4.0
3.67
12.67
8.0
10.33
4.33
1.33
2.0
5.33
8.67
15.33
6.0
10.67
10.67
10.0
8.33
17.33
12.67
4.33
13.67
15.67
4.0
3.0
-1.67
4.67
0.0
14.33
24.67
10.67
4.33
24.0
10.0
8.33
19.33
23.67
9.67
11.0
34.67
15.0
11.67
13.33
17.0
8.0
-4.33
1.0
12.67
8.67
18.67
1.33
9.33
5.67
17.67
8.67
30.33
12.67
-2.67
15.33
3.0
15.33
6.0
6.67
22.67
10.0
-7.0
14.0
12.0
1.33
4.0
3.33
1.33
9.0
13.67
10.33
10.33
11.67
14.67
12.0
-2.67
-1.0
-4.33
8.0
1.0
8.33
7.0
12.67
9.0
4.67
-1.0
1.0
8.33
2.33
4.0
-1.67
2.33
1.0
-6.0
-6.0
4.33
9.0
6.67
-2.0
4.67
14.33
4.0
-3.67
8.33
-6.0
7.33
1.67
6.33
-2.0
5.0
-1.67
0.67
8.33
6.67
7.33
-1.33
4.0
-3.0
10.0
7.33
-3.33
4.33
1.67
3.67
10.67
10.33
2.0
2.33
-6.33
8.0
1.0
0.67
0.33
10.33
16.33
-1.33
-0.33
12.33
-6.33
6.33
15.0
5.0
12.0
1.67
8.33
-4.0
0.67
-0.33
1.33
-0.67
9.67
5.33
3.33
1.67
3.0
7.0
9.33
-1.67
1.67
-3.0
3.67
3.67
4.33
3.0
-1.0
2.0
7.67
-0.33
9.67
-1.0
6.67
10.33
0.0
2.67
1.0
3.0
-0.67
3.33
4.67
0.33
-1.67
-1.33
0.67
0.0
8.33
9.0
13.33
7.0
2.33
8.0
3.67
7.0
-0.33
2.0
4.67
1.0
5.33
3.67
3.0
7.67
4.33
-4.67
1.0
9.0
8.33
-1.67
-0.33
7.0
6.33
10.0
11.67
-3.0
11.0
0.33
-1.0
1.0
2.0
1.67
-2.0
4.67
-2.0
6.67
1.0
-4.33
0.33
3.33
-6.33
5.0
3.0
1.33
-4.33
2.0
2.67
2.33
-2.33
2.33
-4.33
-1.33
3.67
2.33
-3.0
-2.0
0.0
2.67
0.0
7.67
-6.0
5.0
2.33
1.0
-3.33
8.0
-2.67
8.67
-4.0
5.0
-1.67
-3.67
-1.0
0.67
-1.67
8.0
6.0
0.0
8.0
10.67
-0.67
2.33
-0.33
0.33
0.67
-0.67
4.0
0.0
4.0
-2.33
6.67
-3.0
0.67
4.0