File: EDX Back Ups and Old Files/Spectra copy 3.3.23/Samples/High pH BL 60C 2d/10.0.txt
0.0
17.67
-21.67
-65.67
-29.0
7.67
-68.33
41.0
15.67
-22.0
17.0
11.0
34.0
4.33
13.67
5.0
-3.0
2.0
-1.33
2.0
-0.33
0.67
0.0
0.0
-1.33
0.33
-0.33
-0.33
1.67
0.0
1.67
-0.67
-0.33
0.0
0.33
-0.33
0.67
0.33
0.33
-0.33
-0.67
-0.33
1.67
0.0
0.33
0.67
0.0
0.67
-0.67
-1.0
1.0
0.0
-0.33
2.0
1.0
0.0
2.33
2.0
-0.33
-3.67
-0.67
-1.67
5.33
5.67
4.0
3.0
-1.67
2.33
-1.67
0.67
3.0
-0.67
3.0
1.33
-1.67
2.33
-1.0
7.67
4.0
3.0
-3.0
-4.0
-4.0
1.33
-3.33
-0.67
4.67
0.67
5.67
8.0
1.33
-1.67
4.33
6.33
9.33
8.33
-6.67
-0.67
4.33
-2.67
1.0
1.33
2.0
2.33
5.67
-2.0
1.33
-2.0
1.67
0.67
3.33
11.33
5.0
-2.0
0.0
2.33
6.33
5.0
-6.33
5.0
0.67
-0.33
-3.0
1.0
1.0
2.0
6.33
4.0
9.0
-1.33
-3.33
0.0
1.67
0.67
4.0
1.67
-0.67
1.33
1.67
0.67
5.67
-4.67
8.33
6.33
4.33
5.67
-0.33
2.33
2.0
-4.33
0.33
-0.67
0.0
8.0
10.0
5.0
2.33
0.33
0.0
8.67
-3.0
6.33
3.33
-2.67
1.33
2.67
4.67
-0.67
2.67
3.0
3.33
0.67
0.67
-0.33
2.0
0.0
-1.33
7.67
1.0
2.0
2.33
0.67
4.67
-2.33
2.67
0.33
-2.33
-1.67
10.0
8.33
7.33
-0.33
0.0
1.33
0.33
0.0
-2.0
2.0
-5.33
0.33
3.67
-0.33
4.0
5.33
3.67
-5.0
7.33
1.33
2.33
-1.33
6.33
4.67
1.0
2.33
2.33
-3.33
2.33
1.67
-3.0
3.0
-0.67
4.67
1.33
0.33
-1.0
-1.0
3.0
3.67
1.67
4.33
-2.67
2.67
-2.0
1.0
-4.0
3.33
-3.67
-2.0
3.33
0.33
1.0
-2.33
-1.67
9.0
3.0
-1.67
-2.67
6.0
3.67
-1.0
-4.33
2.67
1.0
2.67
0.33
2.67
3.33
-0.33
4.33
3.0
-2.0
-2.67
4.33
3.33
-0.33
5.0
-1.33
1.0
4.33
4.0
3.0
1.33
-1.33
0.0
3.67
1.33
-6.0
-1.0
-1.33
1.33
3.33
-1.33
0.0
-1.67
-4.33
0.67
4.33
1.67
-0.67
-3.33
0.0
3.67
6.0
-1.33
1.67
-1.0
-3.67
-0.67
1.67
-1.0
2.33
1.33
5.67
-1.67
0.67
-2.33
-1.0
0.0
0.67
-1.67
2.67
1.67
3.33
1.67
-0.67
0.67
0.0
-0.33
-2.0
0.33
2.33
0.0
5.67
-1.0
-2.33
0.33
2.67
-0.67
1.0
0.33
1.0
1.33
-3.33
-0.67
1.67
0.67
2.0
1.67
2.67
0.33
-2.0
-1.67
-0.33
0.33
-3.67
-2.33
2.67
1.0
-1.33
-2.67
0.67
-0.67
4.0
-4.67
-2.0
0.67
0.67
-1.33
-0.67
0.67
-3.0
-3.67
0.33
-1.67
5.67
-3.0
1.67
-3.33
-0.67
-5.33
-1.33
2.67
2.0
2.0
3.33
2.0
-1.0
10.33
4.67
0.33
-3.33
4.33
2.0
-2.33
3.33
0.0
4.67
0.67
5.33
1.67
0.33
0.67
2.33
5.0
5.0
10.67
3.67
1.0
2.67
0.0
4.67
6.67
1.0
15.67
6.0
10.33
4.67
11.33
5.33
11.67
6.67
1.0
4.33
-1.0
4.67
-2.0
8.33
6.0
5.0
2.0
13.67
3.0
7.33
0.0
4.67
3.67
4.67
1.33
5.33
3.67
7.0
7.33
2.0
2.0
7.67
-0.33
4.67
5.33
3.33
6.33
5.67
1.0
4.67
7.67
2.33
9.0
-6.0
8.67
1.67
1.67
5.67
-0.67
7.67
11.67
1.67
4.0
8.67
8.67
4.67
7.67
4.0
2.67
8.0
12.67
6.0
15.0
10.33
1.0
3.33
5.67
11.33
0.33
-2.0
7.0
0.0
2.0
5.0
7.33
2.67
3.0
3.33
-4.0
9.67
8.0
-3.33
7.0
7.33
-4.33
5.0
3.67
9.67
10.33
11.33
2.33
14.67
1.67
3.33
13.67
4.33
6.33
7.67
4.67
5.67
5.0
8.67
9.67
14.0
7.0
9.0
5.0
14.67
12.67
25.67
29.33
24.33
30.33
27.0
30.67
34.33
35.0
26.67
10.67
26.0
21.33
17.67
9.0
14.33
9.33
4.67
6.0
12.0
8.67
7.33
15.33
6.33
2.67
7.0
17.67
6.67
5.67
14.33
8.33
6.0
1.67
11.67
9.67
6.0
12.0
10.67
10.33
0.67
15.0
6.0
12.33
6.33
15.33
8.67
14.33
6.0
10.33
10.0
4.0
16.67
10.67
6.0
15.67
11.33
-2.0
4.0
5.33
4.33
4.67
1.33
10.0
8.67
14.67
11.67
2.0
22.0
9.33
4.67
6.67
2.0
5.33
6.0
8.0
2.67
3.67
11.0
17.33
4.67
17.0
4.67
13.33
4.67
14.33
2.0
9.67
20.33
12.0
1.33
14.33
8.67
7.0
6.67
6.67
1.0
13.67
4.0
2.0
13.0
11.67
14.0
11.0
7.67
10.33
20.67
5.33
12.67
11.33
10.0
2.33
10.67
12.0
17.67
4.33
13.33
15.67
5.67
23.33
18.67
11.33
1.67
8.0
7.33
19.67
12.67
4.33
17.67
12.0
12.33
22.0
20.67
10.0
17.67
27.33
33.67
45.67
49.67
34.67
62.0
77.0
101.33
118.33
132.33
167.0
184.0
166.33
173.33
182.0
140.33
143.67
159.67
103.67
81.33
65.33
39.67
38.33
32.67
26.0
28.33
20.0
17.67
11.33
9.67
8.33
20.67
12.0
19.67
6.33
7.33
16.33
15.33
15.67
2.0
11.67
4.33
14.0
5.0
29.0
5.0
7.67
7.67
10.0
2.0
3.67
15.0
8.67
11.33
23.67
8.33
5.0
14.33
-2.33
17.0
10.33
6.0
12.0
21.0
5.0
0.0
5.67
1.67
6.33
8.0
2.67
22.0
6.33
-2.67
21.0
-2.33
14.0
20.67
16.67
4.67
3.33
18.0
6.0
18.33
9.33
5.0
6.67
5.33
3.0
0.67
14.0
8.67
14.33
15.33
4.0
-6.67
1.33
9.67
-8.33
6.67
6.0
6.0
6.0
-1.67
10.0
16.67
7.0
9.67
4.0
2.0
10.33
1.67
10.67
13.33
7.0
38.0
2.33
20.33
4.67
6.0
22.0
26.33
1.0
8.0
3.33
5.33
-8.0
6.33
17.33
15.0
4.0
8.33
0.67
8.33
9.33
3.33
10.67
9.33
9.0
2.33
23.33
9.67
8.33
-4.0
10.0
10.33
2.0
4.67
5.33
-9.33
8.33
4.33
-2.67
15.67
7.67
-2.33
7.67
11.0
18.33
19.33
0.67
-2.0
-2.33
10.0
13.67
12.0
7.33
4.67
16.33
10.0
8.33
21.0
12.67
7.0
-6.67
7.0
5.67
4.0
-0.67
5.33
-0.33
0.0
13.67
1.33
1.33
-3.0
3.67
5.67
8.67
-1.0
5.67
8.0
13.33
14.0
-5.67
9.33
8.67
0.33
5.0
3.33
-4.0
2.0
7.67
-5.33
0.67
2.33
7.0
6.0
-2.67
10.67
6.33
1.0
-1.67
8.67
2.0
11.67
7.0
1.33
7.33
9.33
1.33
-4.33
10.33
15.67
11.67
7.33
6.67
11.67
10.0
6.0
4.0
2.67
13.0
9.0
7.67
-8.0
2.33
9.33
2.67
3.67
4.0
9.67
-5.0
-6.33
3.0
10.67
4.33
-4.67
3.33
-1.67
-0.33
0.67
7.0
4.0
-2.33
-2.67
10.33
5.67
5.67
0.67
-2.0
0.67
6.33
7.0
-6.33
3.67
-2.33
-2.0
6.0
5.67
1.67
4.67
5.33
-2.33
5.33
8.0
3.0
0.67
-2.0
3.33
-3.33
9.67
7.67
5.67
-4.0
6.67
0.0
-6.33
5.33
-0.67
-2.67
1.33
6.33
-0.33
-1.67
6.33
2.33
13.33
-1.0
9.33
4.67
6.67
8.67
-1.33
-4.33
1.0
-3.0
6.33
5.33
-0.33
6.33
6.67
3.67
-2.67
1.33
1.33
10.0
1.67
-2.33
3.33
2.67
-5.33
-5.33
-1.67
-0.33
7.0
4.67
6.33
-1.33
10.0
-0.33
5.67
-1.67
-1.0
2.67
2.67
0.67
3.0
-6.0
-3.33
3.33
5.67
-2.33
1.0
3.67
-2.67
9.0
1.33
8.67
1.67
0.33
1.33
-0.67
1.33
-5.0
5.67
-1.0
0.0
-0.67
-0.67
6.67
-0.67
-3.33
-4.33
-1.67
2.33
-4.33
0.0
-3.33
0.33
-6.67
0.33
-1.67
1.67
1.0
-6.33
3.67
4.33
1.33
4.33