File: EDX Back Ups and Old Files/Spectra copy 3.3.23/Samples/High pH BL 60C 2d/10.25.txt
0.0
-1.33
12.33
17.33
76.0
-10.33
-67.33
-8.0
-16.33
-4.0
11.0
23.0
-10.0
-7.67
1.67
-3.0
3.0
-1.0
0.67
0.0
-0.33
0.67
0.0
0.0
-1.33
-0.67
0.67
-0.33
-0.33
1.0
-0.33
-0.67
-0.33
0.0
-0.67
-0.33
-0.33
0.33
-0.67
0.67
-0.67
-0.33
-0.33
0.0
-0.67
-0.33
1.0
-0.33
1.33
0.0
0.0
-1.0
0.67
1.0
-1.0
0.0
0.33
0.0
-0.33
-2.67
1.33
3.33
0.33
0.67
2.0
0.0
1.33
6.33
3.33
-3.33
-1.0
2.33
1.0
1.33
4.33
7.33
0.0
6.67
-2.0
-1.0
3.0
11.0
-3.0
-0.67
-5.33
7.33
-3.33
6.67
2.67
6.0
2.33
-5.67
2.33
-2.67
1.33
1.33
5.33
1.33
1.33
-1.67
-3.0
4.33
-3.0
1.33
2.67
1.0
4.33
1.0
-1.33
3.67
2.33
3.33
0.0
0.0
-4.0
-1.67
0.33
6.0
-1.33
4.0
10.67
3.67
5.0
8.0
1.0
4.0
8.33
-1.0
-5.0
6.67
3.67
7.0
2.67
9.67
5.0
3.67
-3.67
3.33
9.67
6.67
3.67
0.33
3.33
0.33
5.33
-5.33
-1.33
6.33
-7.0
-1.33
-0.67
1.33
-1.0
-3.0
5.0
1.0
-0.67
1.33
-3.0
-1.33
2.0
-3.67
-1.67
-0.67
6.33
2.67
1.67
9.33
7.67
3.0
0.33
2.67
0.67
7.67
-1.0
6.0
-4.33
2.67
-2.0
-1.0
7.33
-1.33
-0.33
3.67
0.67
0.33
4.67
0.33
2.0
-1.67
2.33
6.67
-2.0
0.33
2.33
2.0
10.0
6.0
-7.33
-0.67
-1.33
-2.33
-5.0
0.33
-1.33
1.0
2.33
1.33
9.33
0.67
-1.67
-1.33
-6.0
8.33
0.33
-3.33
3.33
-1.33
-3.0
1.0
-1.67
2.67
-0.67
-4.67
2.0
1.0
2.0
-1.33
-3.33
2.33
-0.67
4.67
2.0
5.0
3.0
-2.67
3.33
-2.0
2.33
-3.67
1.0
2.67
5.33
1.0
4.0
-0.67
1.33
2.0
9.67
3.0
0.67
-4.33
-5.0
2.67
-1.67
2.67
0.33
-4.33
0.33
1.0
0.0
-0.67
5.33
3.33
0.67
1.0
-3.33
0.0
-2.67
0.0
4.0
-1.67
-2.33
-2.0
-2.33
-2.67
-3.0
-1.0
-1.33
2.33
2.33
2.67
0.0
-2.67
-1.33
4.67
-0.67
0.67
4.33
3.67
1.0
5.67
3.0
-1.33
2.67
6.0
-0.67
0.33
1.67
2.0
1.33
-1.67
5.67
3.33
-3.33
-0.33
3.0
0.0
2.67
-0.67
-0.33
0.67
-0.67
-1.33
0.33
2.67
3.0
1.67
-1.0
2.33
-1.67
6.0
-0.33
-3.0
-2.33
1.33
-0.33
-0.67
-1.0
-4.67
1.0
0.33
-0.33
0.33
1.67
-0.33
1.0
1.67
-2.33
-0.67
1.0
-1.67
-2.33
0.33
-4.67
-1.33
4.67
-1.0
-2.33
4.33
5.67
0.33
5.0
-2.67
4.0
-0.33
6.67
-2.33
-1.67
-0.33
2.0
-3.67
0.33
2.33
4.67
-1.0
3.67
1.67
2.33
-6.33
-2.33
-0.33
-5.0
4.0
4.33
0.0
5.0
5.33
5.67
4.33
-1.33
-2.67
1.0
2.67
2.33
-3.0
0.67
1.67
2.33
5.67
4.33
2.67
4.33
3.0
4.0
4.67
5.67
3.0
3.67
8.0
4.67
-2.33
-1.0
7.67
4.0
6.33
3.67
0.33
3.33
8.67
8.67
12.0
0.33
6.0
3.67
3.0
9.33
1.0
6.0
7.0
8.67
8.0
7.33
0.0
0.67
9.67
1.67
-2.67
-0.67
1.67
8.0
4.33
2.0
4.0
4.67
2.67
2.67
-1.67
2.33
4.33
2.67
-2.0
0.67
1.67
3.33
4.0
-2.0
6.67
7.67
12.67
8.67
7.33
4.67
14.67
10.67
3.0
16.67
-1.33
7.67
16.67
4.0
5.67
1.0
9.67
9.0
4.0
11.33
-2.0
4.33
7.67
0.33
9.33
12.0
2.0
0.0
0.0
4.0
7.33
-1.33
3.0
0.33
7.0
0.67
20.0
8.67
2.0
15.33
3.67
10.0
1.67
17.67
6.33
5.33
0.33
8.67
2.67
-9.67
2.67
2.33
7.33
3.67
-0.33
14.67
6.0
8.67
1.67
5.0
8.0
0.0
14.0
15.67
12.67
25.67
30.33
24.33
21.33
35.0
26.67
30.33
43.0
30.67
23.67
16.0
25.33
18.67
16.0
9.33
8.33
17.67
13.0
14.0
9.67
14.33
16.33
13.33
8.67
9.0
16.67
11.67
4.67
10.33
11.33
6.0
12.67
15.67
3.67
12.0
7.0
6.67
6.33
8.67
9.0
6.0
17.33
9.33
8.33
9.67
12.33
-5.0
2.33
10.0
2.0
10.67
15.67
9.0
8.67
1.33
-2.0
10.0
10.33
2.33
5.67
10.33
9.0
14.67
4.67
3.67
7.0
7.0
15.33
3.67
9.67
6.0
5.33
10.0
7.0
-0.33
4.67
8.0
27.33
2.67
17.0
3.67
10.33
2.67
6.33
-5.0
10.67
16.33
11.0
18.33
-4.67
-1.33
8.0
8.67
17.67
6.0
6.67
10.0
6.0
14.0
13.67
4.0
5.0
17.67
16.33
-0.33
5.33
9.67
21.33
17.0
6.33
10.67
21.0
7.67
-4.67
12.33
12.67
12.67
11.33
13.67
7.33
18.67
26.0
8.33
12.67
5.67
10.33
14.67
10.0
18.33
11.0
21.67
8.0
22.67
30.33
30.67
24.67
39.67
57.67
82.0
85.0
87.33
125.33
149.33
152.0
189.0
196.33
190.33
194.0
215.33
159.67
137.67
123.67
91.33
76.33
68.67
34.33
39.67
30.0
21.33
24.0
16.67
27.33
25.67
13.33
10.67
8.0
15.67
16.33
6.33
20.33
16.33
4.67
9.0
11.67
10.33
14.0
12.0
9.0
16.0
9.67
16.67
14.0
21.0
4.67
17.0
7.67
7.33
16.67
0.33
5.0
9.33
5.67
11.0
6.33
9.0
12.0
11.0
14.0
15.0
15.67
3.67
3.33
3.0
4.67
21.0
-3.67
-5.67
21.0
11.67
7.0
14.67
13.67
0.67
8.33
13.0
20.0
7.33
6.33
2.0
-6.33
14.33
7.0
1.67
12.0
-0.33
9.33
2.33
10.0
-1.67
-3.67
-2.33
-2.33
-2.33
3.0
-1.0
16.0
12.33
6.0
-0.33
5.0
5.67
20.0
18.0
0.33
4.67
12.67
5.33
22.0
14.0
12.33
9.33
15.67
11.0
12.0
12.33
10.0
8.0
5.33
1.33
4.0
3.33
11.33
1.0
-5.0
0.33
-7.33
15.33
11.33
16.33
18.67
6.33
-9.0
9.33
-3.67
11.67
12.33
12.0
7.0
8.33
8.0
8.67
17.33
2.67
3.33
13.33
0.33
10.67
17.67
12.67
7.67
6.0
25.33
24.33
15.67
11.0
3.67
1.0
11.67
13.0
-5.67
1.67
10.33
6.0
21.33
5.0
3.67
3.0
-9.67
10.0
-2.33
3.0
12.33
4.33
7.67
8.0
9.67
11.33
13.33
7.0
-5.33
5.67
11.67
5.0
4.67
0.0
13.33
5.0
1.33
7.33
6.67
11.33
3.0
5.33
1.0
-1.0
9.67
-5.33
16.67
13.33
9.0
2.0
8.33
14.67
-2.67
-3.0
2.33
3.67
7.0
5.67
2.0
4.33
1.33
-2.67
6.33
7.67
3.33
3.67
4.67
3.33
9.67
6.67
10.0
6.0
13.0
10.67
0.0
11.0
7.67
8.0
4.33
9.33
5.67
2.67
-6.0
-5.33
3.0
1.67
1.0
1.67
-2.67
2.33
1.33
3.33
-7.33
-4.33
3.0
0.0
-3.33
0.33
5.33
-9.33
7.67
5.67
0.0
2.67
15.33
7.0
0.67
-1.33
9.67
-7.0
0.0
0.67
2.67
8.67
1.33
-4.33
-0.67
-1.0
0.0
-2.33
-1.0
-5.67
-4.33
5.67
4.67
-3.33
-3.0
-6.33
-1.0
-2.33
1.33
-0.67
-5.67
4.33
5.33
1.67
10.33
5.33
5.33
6.33
2.0
4.33
-4.33
1.67
2.67
-0.33
4.67
-2.0
2.0
7.33
3.33
13.67
6.33
0.67
12.67
6.33
1.33
3.33
7.0
-0.33
5.67
-1.67
2.67
-0.33
2.67
-2.67
2.67
2.0
4.67
1.33
-1.33
4.0
2.67
2.67
1.33
-5.0
-2.33
3.67
0.67
-1.0
1.0
-10.33
-0.67
5.67
2.67
-1.0
4.67
7.33
0.0
-3.67
1.67
4.67
-0.67
3.33
-6.67
4.33
-9.0
5.67
-1.0
3.0
-1.67
1.33
-5.33
1.33
-4.33
0.67
4.33
0.33
-1.33
5.0
2.67
3.33
0.33
0.33
-1.67
-2.33
-1.0
-1.33
2.67
-0.67
-0.67
-3.67