File: EDX Back Ups and Old Files/Spectra copy 3.3.23/Samples/High pH BL 60C 2d/11.75.txt
0.0
-38.33
-80.67
-74.67
-20.0
-44.33
-64.33
-58.0
37.67
1.0
14.0
-8.0
-7.0
-5.67
-3.33
0.0
-2.0
-2.0
0.67
3.0
0.67
-0.33
0.0
0.0
-1.33
-0.67
-0.33
-0.33
-0.33
0.0
0.67
0.33
-0.33
0.0
0.33
-0.33
0.67
-0.67
-0.67
0.67
-0.67
-0.33
-0.33
0.0
-0.67
-0.33
2.0
-0.33
-0.67
1.0
0.0
1.0
0.67
2.0
0.0
2.0
1.33
1.0
-2.33
-0.67
0.33
-0.67
5.33
1.67
2.0
7.0
-2.67
1.33
-0.67
-3.33
-2.0
-0.67
-4.0
5.33
0.33
1.33
-4.0
-1.33
-2.0
-1.0
0.0
4.0
1.0
2.33
-2.33
8.33
7.67
1.67
1.67
3.0
7.33
2.33
3.33
-4.67
3.33
7.33
-4.67
-0.67
6.33
-4.67
-2.0
-4.67
-4.0
1.33
1.67
-1.0
-0.67
-2.0
1.67
6.67
-0.67
3.33
-1.0
1.0
4.0
0.33
-3.67
1.0
-4.33
0.0
-0.33
3.67
9.0
0.0
9.0
4.0
3.33
-7.0
-1.0
3.67
2.67
0.0
0.67
2.67
9.0
4.67
-3.67
0.33
-1.33
-0.33
4.67
-1.67
1.33
-0.67
5.33
3.67
-0.33
4.33
2.0
1.67
-3.67
4.33
0.0
5.0
3.0
4.0
-2.67
7.33
4.0
4.67
-1.0
4.33
-1.67
0.33
-2.67
2.67
0.67
4.33
2.67
4.0
1.33
1.67
-4.33
1.67
5.0
-1.0
-6.33
9.67
1.0
7.0
6.33
-2.33
3.67
-3.33
4.67
-3.67
0.67
-2.67
1.0
3.33
1.33
0.67
1.0
3.33
3.33
5.0
4.0
-1.0
4.67
0.33
3.67
-2.33
3.0
-1.67
3.67
3.0
1.33
8.33
-1.67
-1.33
5.33
-0.33
3.0
1.33
2.33
-0.33
3.33
-3.33
1.0
0.0
-1.67
1.67
-1.67
-4.67
0.0
-2.0
2.0
3.67
-0.33
3.33
-3.67
6.67
1.0
1.0
-1.0
-1.67
-3.67
0.0
3.33
3.33
0.0
1.67
2.33
3.0
-1.0
0.33
0.33
-2.0
-3.33
3.0
-3.33
1.67
-4.0
-0.33
-0.67
2.67
-3.67
0.67
-0.67
0.0
-2.0
1.33
-1.67
-0.67
6.67
5.0
1.67
0.0
0.33
-1.0
3.0
3.33
0.67
1.0
1.67
3.33
-5.0
1.0
-1.33
-1.67
0.33
0.67
4.0
-2.67
-4.33
-2.33
5.33
0.67
7.33
-2.33
-1.0
2.67
1.0
-1.33
-2.33
-1.0
-0.67
0.33
-0.33
-2.0
3.33
2.33
-1.33
-0.67
-3.33
-3.33
-5.0
-3.0
0.67
2.33
-1.33
2.67
-1.67
2.67
-1.67
-1.33
2.0
7.67
-1.0
2.33
2.33
0.0
-0.33
-5.0
1.67
2.33
0.67
-0.67
-2.0
-0.67
3.0
7.33
9.67
-0.67
-0.33
-1.33
1.0
3.67
-3.33
0.33
-4.0
0.33
2.67
-4.67
-3.67
-3.33
1.67
3.0
-2.33
0.33
7.67
0.33
4.0
2.33
1.0
-0.33
1.67
-1.33
1.33
1.67
-1.0
0.33
0.33
5.33
4.67
1.0
3.67
-2.33
3.33
-5.33
7.67
-0.33
1.0
-1.0
5.33
-2.0
-4.0
4.33
10.67
4.33
2.67
-0.67
0.0
-0.33
2.33
-5.0
2.67
6.67
5.33
-2.33
4.33
-2.33
12.33
0.0
4.0
6.67
8.67
5.0
0.67
-2.0
2.67
2.67
6.0
5.67
7.0
5.33
1.67
2.33
4.33
5.67
1.67
2.0
0.33
3.0
0.67
0.0
2.33
2.0
3.0
5.0
-3.33
2.0
12.33
-2.0
5.67
8.67
7.67
-2.67
3.33
-2.33
8.0
11.33
-1.0
3.0
8.67
-2.33
3.67
-1.67
4.33
-3.67
15.67
2.0
12.67
8.67
9.33
6.0
-7.0
5.67
3.67
5.67
6.67
0.33
9.67
2.67
1.67
3.0
6.67
-3.33
-0.33
6.67
7.0
6.67
7.0
0.67
5.0
6.0
-0.67
7.0
12.33
4.67
4.33
7.33
-5.0
1.0
6.0
5.0
11.0
5.33
10.67
-4.0
7.33
6.0
0.67
0.0
6.67
11.0
8.33
4.67
6.0
5.67
0.67
7.33
-0.67
2.33
5.67
0.67
8.33
9.67
7.33
14.33
8.67
2.67
8.67
15.0
6.67
12.67
11.0
17.0
11.0
13.0
10.67
26.67
21.67
27.33
30.33
32.33
32.0
26.67
47.33
43.0
38.67
39.67
35.0
35.33
12.67
18.0
20.33
22.33
16.67
7.0
8.0
7.67
6.33
14.33
9.33
7.67
22.0
16.67
12.67
4.67
7.33
4.33
5.0
12.67
8.67
13.67
-3.0
8.0
8.67
7.33
16.67
6.0
9.0
20.33
4.33
14.33
10.67
7.33
3.0
-1.67
3.0
8.0
8.67
7.67
5.0
9.67
13.33
3.0
1.0
10.33
3.33
12.67
-0.67
9.0
4.67
12.67
4.67
7.0
11.0
13.33
4.67
7.67
5.0
11.33
2.0
9.0
15.67
3.67
4.0
20.33
14.67
11.0
7.67
9.33
9.67
-0.67
5.0
10.67
7.33
14.0
6.33
11.33
12.67
9.0
5.67
7.67
14.0
8.67
11.0
8.0
16.0
1.67
11.0
12.0
8.67
16.33
6.67
10.33
11.67
17.33
20.0
9.33
3.67
14.0
7.67
10.33
14.33
9.67
7.67
16.33
19.67
7.33
4.67
24.0
16.33
19.67
10.67
7.33
17.67
3.0
18.33
6.0
14.67
28.0
30.67
17.33
40.67
44.67
64.67
55.67
90.0
119.0
156.33
156.33
201.33
238.0
257.0
243.33
273.33
252.0
232.33
216.67
201.67
169.67
140.33
94.33
71.67
47.33
53.67
28.0
30.33
15.0
22.67
11.33
7.67
15.33
11.67
7.0
20.67
24.33
13.33
24.33
16.33
17.67
23.0
7.67
4.33
12.0
0.0
19.0
7.0
4.67
0.67
10.0
18.0
1.67
8.0
-0.33
19.33
22.67
9.33
12.0
20.33
7.67
18.0
11.33
15.0
6.0
27.0
9.0
18.0
16.67
10.67
0.33
12.0
-5.33
3.0
10.33
-0.67
13.0
17.67
12.0
10.67
3.67
3.67
-3.67
6.0
17.0
4.33
14.33
1.0
3.67
12.33
3.0
-2.33
12.0
15.67
7.33
9.33
6.0
-8.67
13.33
4.67
7.67
-1.33
9.0
14.0
6.0
2.33
9.0
0.67
4.0
10.67
8.0
7.0
2.33
10.67
4.67
1.33
12.0
8.0
-7.67
8.33
12.67
2.0
3.0
23.33
2.0
7.0
2.33
-1.67
-5.0
1.33
5.33
2.0
4.0
6.33
-1.33
4.33
4.33
8.33
1.67
6.33
6.0
13.33
11.33
13.67
0.33
-7.0
27.0
6.33
0.0
-4.33
15.33
-4.33
9.33
11.33
1.33
4.67
9.67
14.67
10.67
11.0
22.33
27.33
16.67
2.0
8.67
19.0
7.67
19.0
7.33
-1.33
7.33
-3.0
10.33
-1.0
7.67
-6.0
8.33
7.0
14.67
3.0
7.33
-1.67
-0.33
3.0
13.67
1.33
4.33
15.0
-2.33
11.67
5.67
-11.0
-0.33
-4.0
-1.67
-2.0
-0.67
2.33
4.67
13.33
-6.0
7.33
-3.0
-5.0
13.67
-5.33
-1.33
4.33
4.0
9.0
-4.67
16.67
12.33
4.0
3.33
-2.33
2.0
2.67
1.0
8.33
5.33
3.33
5.33
-0.33
4.33
5.67
1.67
9.33
25.67
-2.33
7.0
6.0
7.0
3.67
9.0
3.0
2.67
10.0
17.33
2.33
17.67
0.67
0.0
-2.33
1.0
4.67
1.0
9.67
-1.67
0.33
9.33
2.33
-6.33
-3.33
8.0
-1.0
-6.33
0.33
9.33
4.67
-1.33
4.67
-3.0
-4.33
4.33
4.0
-6.33
-4.33
12.67
-2.0
0.0
-8.33
-0.33
5.67
7.33
4.67
1.33
11.0
3.0
-3.33
6.0
-4.67
1.67
2.67
-0.33
1.67
-1.0
3.67
3.0
1.67
-2.67
-1.67
4.33
0.33
-1.67
-3.33
-0.67
8.33
7.33
3.33
0.0
2.33
-3.33
2.67
6.67
-1.33
11.67
0.0
-1.0
10.33
0.33
12.67
0.33
4.67
9.67
4.33
1.33
0.33
6.0
-7.33
6.67
0.33
0.67
-3.33
7.67
-1.67
3.67
5.0
-0.33
7.33
0.67
8.0
1.67
-2.33
-4.67
0.0
-1.33
0.67
3.67
5.0
-1.0
3.67
-5.67
-1.33
2.67
-5.0
-1.33
3.33
4.0
-0.67
2.67
0.67
3.33
2.33
-2.67
5.33
-6.0
3.67
-3.0
4.0
5.33
3.33
3.67
2.33
-3.33
2.67
-0.67
1.33
3.67
-3.0
3.67
4.33
-1.67
1.33
3.33
1.67
-1.0
-4.33
-0.33
1.33
2.33
-1.67