File: EDX Back Ups and Old Files/Spectra copy 3.3.23/Samples/High pH BL 60C 2d/6.75.txt
0.0
-7.33
13.33
50.33
-12.0
-13.33
-42.33
12.0
48.67
24.0
8.0
10.0
19.0
-2.67
-6.33
3.0
3.0
-1.0
-1.33
0.0
0.67
1.67
1.0
1.0
0.67
-0.67
-0.33
-0.33
-0.33
1.0
-0.33
-0.67
-0.33
0.0
0.33
-0.33
-0.33
-0.67
-0.67
-0.33
-0.67
-0.33
-0.33
0.0
0.33
-1.33
0.0
-0.33
-0.67
1.0
-1.0
0.0
-1.33
2.0
2.0
1.0
0.33
1.0
-0.33
-2.67
-1.67
3.33
4.33
-0.33
1.0
5.0
1.33
9.33
3.33
2.67
3.0
-0.67
0.0
1.33
1.33
-1.67
0.0
-0.33
2.0
-2.0
0.0
-1.0
-3.0
4.33
0.67
-1.67
-0.33
1.67
6.67
4.0
5.33
1.33
6.33
-2.67
9.33
6.33
3.33
12.33
3.33
0.33
4.0
-6.67
3.0
4.33
11.67
4.0
-2.67
2.0
2.67
2.67
4.33
2.33
2.0
5.0
-6.0
-2.67
7.33
3.0
0.67
2.0
1.67
0.67
-1.0
7.0
1.0
3.0
6.33
-1.0
-2.0
-0.33
0.67
5.0
3.67
8.67
2.0
6.67
-3.67
3.33
2.67
9.67
3.67
3.33
2.33
5.33
2.33
-0.33
-0.33
3.33
1.0
-1.33
10.33
5.33
6.0
11.0
2.0
4.0
5.33
10.33
7.0
7.67
2.0
4.33
6.33
-1.67
0.33
4.67
3.67
4.33
-3.33
2.0
1.33
5.67
-2.33
2.67
5.0
4.0
-1.33
2.67
0.0
-4.0
6.33
-4.33
7.67
-0.33
-1.33
9.33
0.67
1.33
1.0
3.33
11.33
3.67
2.0
0.33
4.33
4.0
3.0
-2.0
-0.33
-1.67
3.67
4.67
3.0
-0.67
-2.33
-1.0
-0.67
-0.67
7.33
-3.33
2.33
7.67
-1.0
2.33
1.33
-2.33
2.33
4.67
4.0
6.0
1.33
3.67
3.33
3.33
-2.0
2.0
4.0
6.67
3.67
3.33
2.33
-0.33
11.0
0.0
-2.0
2.33
0.33
0.0
3.33
1.33
-4.0
1.67
0.33
3.0
0.0
4.33
-3.67
4.0
3.67
3.0
-1.33
0.67
2.0
2.67
-2.67
3.67
0.33
2.67
-0.67
6.0
1.0
0.33
-0.67
6.33
4.67
6.0
-0.33
7.0
0.33
1.0
-1.0
4.33
2.67
1.0
1.67
4.33
-1.0
-2.0
-3.33
-1.67
4.33
4.67
-3.0
-1.67
1.67
0.67
0.33
2.67
-3.67
-1.33
1.0
-0.33
-1.0
-2.33
0.67
4.0
-4.67
1.33
1.67
1.0
0.33
2.33
-0.33
7.33
-1.33
0.67
-2.0
1.0
3.67
-2.67
-0.33
7.67
1.33
5.67
-1.67
-0.33
4.0
3.67
4.0
-2.67
1.33
2.0
0.67
-2.0
-0.33
1.33
-0.33
-0.67
0.0
2.33
-1.0
5.33
3.67
-2.67
0.67
-1.33
-2.0
-2.33
-0.33
-0.67
-2.0
-1.67
4.67
3.33
-2.67
-0.33
0.67
2.0
-0.33
-1.67
9.67
3.33
-6.0
0.33
0.0
-1.33
6.67
0.67
2.33
1.67
3.0
3.33
0.33
6.33
4.67
7.0
3.67
5.67
0.33
-0.33
1.67
1.67
0.0
-3.0
0.33
-3.0
1.0
3.33
1.67
1.33
2.67
11.33
-2.0
-0.33
3.33
-2.0
0.67
-2.33
6.33
3.67
5.33
-2.33
5.33
1.0
4.0
7.67
3.67
1.0
10.67
6.0
7.67
6.67
15.0
20.67
20.0
19.33
19.67
31.33
27.33
26.67
13.67
22.0
3.33
11.0
15.67
10.0
3.33
9.0
10.0
5.0
7.67
5.0
7.33
5.0
4.67
1.67
4.67
-1.67
2.33
2.67
5.0
3.33
-4.0
1.0
4.67
-4.33
0.67
4.33
-4.67
5.33
7.67
-1.0
5.67
-5.33
4.33
4.0
-6.0
2.67
1.67
4.67
8.67
-0.67
-0.33
2.67
10.67
3.0
15.67
5.67
10.67
10.67
4.0
4.67
13.0
2.67
4.0
8.0
6.33
2.0
10.33
0.67
4.33
-2.67
-1.0
2.0
-4.0
-1.0
3.0
6.33
2.67
-1.0
7.33
4.0
0.67
2.0
2.67
4.0
2.33
6.67
9.0
5.67
6.67
1.33
8.33
1.33
6.67
4.67
-0.67
2.67
3.33
4.33
14.67
3.67
12.67
8.0
2.67
0.67
5.0
8.0
5.0
9.0
10.67
11.67
12.67
22.33
19.33
15.33
12.0
18.67
16.33
25.0
27.67
4.67
17.0
14.33
9.67
0.0
14.33
10.33
10.67
10.0
8.0
2.67
12.33
3.33
11.33
14.67
4.0
7.67
13.67
14.67
13.33
2.33
-1.0
5.67
12.67
17.67
9.0
8.0
13.67
-0.67
12.67
12.0
7.0
11.33
14.33
6.33
8.67
10.33
9.0
10.33
4.0
4.0
14.67
14.67
3.0
8.67
19.33
7.0
6.0
3.33
12.33
5.67
6.33
7.0
10.67
11.67
-2.33
4.0
3.0
11.33
5.67
4.67
10.0
4.33
10.0
4.0
11.67
12.67
13.0
7.33
26.67
35.0
18.67
-4.67
3.67
7.33
7.0
9.67
17.33
2.0
10.33
7.33
10.67
6.0
9.67
3.67
2.0
6.67
7.0
7.0
7.0
16.67
9.0
17.0
14.67
9.33
9.67
12.33
0.67
7.33
11.0
16.33
1.67
5.0
6.67
6.33
17.33
12.67
7.67
12.33
19.67
10.33
16.67
9.0
15.33
17.67
4.67
8.33
20.67
17.0
9.33
17.0
20.67
21.0
17.67
15.33
23.67
14.67
34.67
30.67
45.0
45.0
67.33
63.33
87.33
96.0
75.0
76.33
77.33
113.0
99.33
90.67
73.67
44.67
50.33
40.33
39.67
10.33
19.67
29.0
25.33
15.0
11.67
23.33
9.67
5.33
21.67
11.0
23.67
10.33
4.33
10.33
7.33
9.67
14.0
16.67
7.33
10.0
13.0
19.0
1.0
19.67
4.67
9.0
21.0
-2.33
16.0
5.67
2.33
9.67
16.33
20.0
8.33
-0.33
5.0
4.33
3.0
17.0
3.0
8.0
11.0
11.67
17.67
-1.67
17.0
12.67
6.0
11.33
-0.67
20.0
7.67
15.0
5.67
-0.33
10.67
-0.67
21.0
1.0
3.33
15.33
9.0
-4.33
1.33
-2.0
-6.33
18.0
-1.33
-0.67
19.33
22.0
0.33
20.33
15.67
6.67
3.67
3.0
9.0
19.0
11.33
15.0
17.67
21.0
26.67
16.0
13.0
14.33
9.67
12.67
22.33
25.0
29.0
15.33
21.33
23.67
26.0
30.0
12.33
7.0
12.0
7.33
-2.67
9.0
-4.67
14.33
10.0
4.0
10.33
6.67
11.33
12.33
12.33
13.67
11.33
0.0
6.33
7.33
14.67
4.33
6.0
11.0
12.33
7.0
10.67
21.33
-1.33
8.33
-1.67
-4.67
10.67
0.67
3.67
7.67
13.0
-0.67
31.33
6.67
19.0
-5.33
7.0
-1.33
8.0
10.33
4.67
8.33
0.0
1.33
-4.0
-4.33
5.0
10.33
2.0
2.67
-8.0
7.33
5.33
4.67
-4.0
10.67
0.33
10.33
-3.0
0.67
1.67
1.67
3.0
9.67
-2.0
5.33
21.0
-6.67
2.33
1.67
6.33
6.0
-7.67
-4.0
-11.0
6.67
5.67
5.67
5.33
2.0
6.0
-2.67
8.67
5.33
-2.0
5.33
-2.33
14.0
10.67
8.0
-0.67
0.33
6.33
0.33
6.67
11.33
-0.33
11.67
8.33
10.67
6.67
7.0
5.0
12.0
4.67
12.0
10.0
11.67
14.0
17.33
5.33
8.67
1.67
0.0
1.67
-1.0
0.67
-3.0
6.67
-3.67
-4.67
1.33
-0.67
-2.33
-2.33
-1.0
0.0
0.67
-2.67
11.33
-8.33
6.67
-0.33
-2.0
-6.33
9.33
14.0
2.67
-1.33
-1.33
4.0
8.0
3.67
3.67
0.67
8.33
0.67
-2.67
-2.0
-3.0
-9.33
8.0
-8.67
0.67
1.67
-3.33
-2.33
0.0
5.67
-3.0
-0.33
-0.67
0.33
-1.67
-1.67
2.33
0.67
3.33
1.33
4.33
-1.67
1.0
9.33
5.67
4.67
5.67
8.67
-1.33
5.0
8.0
1.33
-0.67
6.67
4.33
4.67
4.67
3.33
6.33
5.33
11.0
5.67
-0.33
-1.67
-0.33
2.67
-2.33
-2.67
5.67
1.0
4.67
7.33
1.67
4.0
-2.33
6.67
1.33
0.0
-0.33
8.67
4.67
0.0
-6.0
-3.33
1.33
-3.33
1.67
-2.0
2.67
2.33
4.0
0.33
5.67
4.67
-3.67
1.33
2.33
9.33
-2.0
2.67
4.0
10.0
6.33
-4.67
-0.33
1.33
-1.33
-0.33
-2.67
9.33
1.67
3.0
0.67
0.33
0.33
-0.67
-0.67
-3.33
6.0
3.67
7.67
1.33
9.33
7.33