File: EDX Back Ups and Old Files/Spectra copy 3.3.23/Samples/High pH BL 60C 2d/7.0.txt
0.0
-3.33
34.33
135.33
59.0
46.67
39.67
4.0
65.67
23.0
-10.0
-1.0
16.0
4.33
-1.33
9.0
3.0
0.0
2.67
1.0
-0.33
1.67
0.0
0.0
-0.33
-0.67
0.67
-0.33
-0.33
0.0
0.67
-0.67
-0.33
1.0
-0.67
-0.33
0.67
1.33
-0.67
-0.33
0.33
0.67
-0.33
-1.0
-0.67
-0.33
2.0
0.67
0.33
-1.0
0.0
0.0
-1.33
2.0
-2.0
2.0
-1.67
-1.0
0.67
-1.67
-2.67
-0.67
0.33
0.67
5.0
4.0
-0.67
4.33
1.33
2.67
7.0
0.33
2.0
0.33
-0.67
4.33
9.0
1.67
4.0
3.0
2.0
3.0
0.0
4.33
1.67
6.33
1.67
4.67
3.67
0.0
0.33
-1.67
-4.67
2.33
3.33
0.33
2.33
1.33
12.33
0.33
1.0
1.33
-9.0
6.33
0.67
-2.0
-7.67
-2.0
8.67
2.67
3.33
5.33
9.0
0.0
1.0
1.33
1.33
4.0
-5.33
0.0
2.67
-0.33
1.0
-3.0
3.0
9.0
1.33
-2.0
2.0
4.67
2.67
5.0
3.67
4.67
11.0
2.67
-3.67
6.33
-3.33
0.67
13.67
1.33
9.33
8.33
-0.67
2.67
3.67
11.33
1.0
4.67
-1.67
4.33
-1.0
8.0
2.0
2.0
1.33
0.33
6.0
3.67
-2.0
5.33
5.33
0.33
-0.67
6.67
6.67
0.33
10.67
-1.0
1.33
1.67
-8.33
3.67
3.0
1.0
4.67
0.67
4.0
1.0
0.33
-3.33
0.67
8.67
4.67
3.33
8.67
-2.67
13.0
1.33
-1.67
2.67
2.0
0.33
9.33
8.0
-4.0
0.0
2.67
-3.67
8.67
-3.33
-6.0
0.33
2.67
1.0
3.33
0.33
1.33
-1.33
-0.67
1.67
-1.0
4.33
-2.67
0.67
10.33
3.67
1.0
6.0
2.33
0.67
6.33
4.33
2.0
0.0
2.0
2.67
5.67
7.33
4.33
2.67
2.0
-2.0
-2.0
-1.67
4.33
-1.0
4.33
-0.67
-2.0
3.67
4.33
5.0
6.0
-0.67
-0.67
2.0
3.67
5.0
5.67
0.67
-5.0
3.67
-1.67
1.67
-3.67
0.67
4.33
-1.0
0.0
-0.67
3.33
1.33
4.67
3.0
-1.33
-2.0
5.33
-1.0
2.0
3.33
-2.33
4.0
-0.33
-0.67
-6.0
4.0
1.67
6.33
1.33
6.67
2.0
3.33
-2.33
5.67
3.33
-1.33
2.33
0.67
0.0
0.67
1.0
0.67
4.67
8.0
-0.67
-0.67
-2.33
3.0
5.33
5.33
1.67
-1.67
-1.33
-1.33
1.0
2.0
2.67
2.33
2.67
2.67
0.33
-3.33
3.33
1.67
3.0
6.67
0.0
0.33
-3.67
4.0
-4.33
-3.0
0.67
0.33
2.67
0.33
-2.0
2.33
2.0
6.33
-1.33
3.33
3.67
-0.33
-1.0
-0.33
4.67
-0.67
-2.0
5.33
-5.33
-1.67
1.33
-2.33
2.67
0.0
3.67
-0.67
2.67
4.33
0.0
-3.67
3.0
-0.33
11.67
0.67
0.33
-1.33
2.0
-3.67
5.33
-2.67
0.67
-3.0
4.67
3.67
-0.67
-2.33
-0.33
0.67
-1.0
0.0
4.33
3.0
1.0
0.33
-0.33
2.33
-2.33
-0.67
-1.0
1.67
2.33
0.0
2.67
6.67
0.33
0.67
3.33
1.67
-0.67
7.0
11.0
-0.33
6.67
6.0
5.67
15.0
19.67
11.67
17.0
14.67
23.0
22.33
15.67
23.33
20.33
11.67
22.67
7.0
20.33
16.0
7.67
2.0
3.33
2.0
8.0
6.0
4.67
-1.0
-0.67
8.0
0.67
-1.33
8.67
1.33
-2.67
4.67
9.0
10.33
-4.0
6.0
5.67
4.67
7.67
1.33
0.33
4.33
0.67
4.0
0.67
-4.33
1.33
9.0
5.0
2.67
0.67
-1.33
2.67
0.33
9.67
-0.33
2.67
15.0
2.67
4.67
5.67
11.67
-5.0
2.67
13.0
10.67
6.0
5.0
3.33
10.0
14.33
4.67
6.33
-1.67
-1.0
-1.0
3.0
6.0
12.0
10.33
6.67
1.0
-0.67
7.0
3.67
3.0
2.67
3.0
8.33
2.67
12.0
6.67
1.67
6.33
0.33
0.33
15.67
2.67
-0.67
6.67
14.33
10.33
2.67
4.67
6.67
6.0
2.67
11.67
4.0
8.0
7.0
14.0
6.67
9.67
1.67
12.33
22.33
18.33
19.0
11.67
11.33
23.0
16.67
15.67
20.0
15.33
9.67
8.0
5.33
11.33
4.67
5.0
4.0
2.67
7.33
15.33
6.33
8.67
12.0
13.67
10.67
10.67
5.33
4.33
2.0
5.67
13.67
7.67
5.0
7.0
4.67
11.33
5.67
11.0
9.0
11.33
22.33
8.33
6.67
19.33
0.0
4.33
9.0
7.0
18.67
3.67
4.0
8.67
9.33
8.0
8.0
-2.67
13.33
2.67
8.33
11.0
11.67
-0.33
11.67
6.0
16.0
18.33
7.67
0.67
9.0
18.33
12.0
9.0
6.67
20.67
8.0
10.33
13.67
27.0
-4.33
7.33
0.67
-3.67
0.0
11.67
13.33
6.0
-2.67
1.33
8.67
2.0
9.67
14.67
6.0
9.67
17.0
7.0
6.0
11.67
8.0
16.0
11.67
11.33
13.67
8.33
5.67
10.33
11.0
9.33
7.67
6.0
12.67
-1.67
13.33
9.67
16.67
10.33
17.67
17.33
7.67
16.0
13.33
13.67
16.67
17.33
13.67
20.0
16.33
27.0
20.67
30.0
20.67
28.33
26.67
28.67
40.67
14.67
36.0
45.0
52.33
88.33
74.33
101.0
83.0
108.33
90.33
99.0
89.33
80.67
41.67
62.67
52.33
42.33
28.67
24.33
32.67
21.0
14.33
6.0
7.67
21.33
14.67
13.33
7.67
8.0
17.67
12.33
3.33
11.33
3.33
2.67
11.0
3.67
12.33
20.0
7.0
17.0
21.0
17.67
18.67
-1.0
17.0
1.67
14.0
15.67
12.33
17.67
3.33
24.0
7.33
9.67
12.0
12.33
11.0
5.0
8.0
7.0
12.0
4.67
12.67
-0.67
14.0
3.67
22.0
1.33
1.33
9.0
3.67
22.0
3.67
0.67
2.67
9.33
15.0
23.0
10.33
8.33
5.0
-1.33
-0.67
-3.0
7.67
0.0
-2.33
2.33
10.33
1.0
0.33
1.33
6.67
16.67
3.67
7.0
22.0
9.0
24.33
19.0
15.67
12.0
15.67
13.0
27.0
33.33
29.67
23.67
25.33
29.0
21.0
26.33
25.33
28.67
29.0
34.0
10.33
15.0
23.0
10.33
0.33
3.0
20.33
8.33
8.0
4.0
8.33
2.67
7.33
14.33
7.33
6.67
9.33
11.0
14.33
4.33
9.67
11.33
7.0
10.0
-1.67
21.0
14.67
5.33
4.67
8.33
14.33
10.33
15.67
21.67
-0.33
-6.33
10.0
0.33
-1.67
17.67
6.0
8.67
6.0
12.67
14.0
-8.67
5.67
1.33
5.0
6.33
6.0
11.67
3.0
8.33
4.0
1.67
-1.0
11.33
-3.67
1.67
10.0
-4.33
14.33
9.33
0.0
-2.33
9.67
5.67
-2.0
7.67
16.0
-3.67
2.0
6.33
8.33
2.67
13.33
7.0
12.33
0.0
-4.0
5.67
0.67
2.67
12.33
-2.0
-1.0
0.33
-1.33
8.33
0.0
3.33
4.67
2.0
11.67
16.0
1.33
1.33
9.33
-6.67
9.67
13.33
-5.33
16.67
0.33
9.67
-10.33
6.0
0.0
10.0
0.67
2.0
15.0
8.67
2.0
5.33
4.33
8.67
2.67
-1.0
-3.33
1.0
1.67
5.0
9.67
-3.67
3.33
5.33
-6.67
5.67
-7.33
2.0
6.0
2.67
-0.67
-0.67
-0.33
3.67
-0.33
8.0
-0.33
10.33
2.0
2.67
4.67
2.67
7.0
7.0
-4.33
-0.33
2.67
9.33
2.67
1.33
15.0
3.0
-4.33
5.0
0.33
-2.33
4.67
3.67
1.67
-6.0
3.67
-2.0
4.67
6.33
6.33
11.33
7.33
2.33
3.67
5.33
5.33
5.33
1.33
3.0
0.33
5.67
9.67
1.67
8.67
4.67
2.0
-5.0
6.33
8.33
-2.33
8.33
4.67
9.67
-2.67
7.33
-2.67
4.0
-0.33
5.67
5.33
2.67
2.67
1.67
0.33
6.67
-2.0
2.67
8.33
4.67
4.0
0.67
-3.33
0.33
-3.0
4.67
-0.33
3.67
-2.0
0.0
-5.33
-2.67
4.67
-0.33
-2.0
0.67
6.33
3.0
1.33
3.67
4.67
-0.67
0.33
4.33
8.33
-6.0
-0.33
4.0
0.0
2.33
0.33
-4.33
0.33
-1.33
2.67
-3.67
2.33
-1.33
0.0
-3.33
0.33
3.33
-1.67
7.33
-1.33
2.0
-3.33
5.67
2.33
2.33
2.33