File: EDX Back Ups and Old Files/Spectra copy 3.3.23/Samples/High pH BL 60C 2d/8.5.txt
0.0
-15.33
86.33
104.33
8.0
36.67
47.67
-14.0
50.67
15.0
7.0
-10.0
15.0
3.33
4.67
-3.0
-2.0
-1.0
-1.33
1.0
1.67
-0.33
0.0
0.0
-1.33
1.33
-0.33
-0.33
-0.33
1.0
-0.33
-0.67
0.67
0.0
-0.67
-0.33
0.67
-0.67
-0.67
-0.33
0.33
-0.33
1.67
-1.0
0.33
-1.33
0.0
-0.33
-0.67
0.0
0.0
2.0
2.67
4.0
0.0
-2.0
2.33
2.0
-1.33
-1.67
-2.67
2.33
6.33
-2.33
2.0
5.0
3.33
5.33
0.33
-1.33
2.0
0.33
5.0
3.33
1.33
6.33
2.0
-2.33
5.0
-4.0
-2.0
0.0
1.0
2.33
1.67
6.33
-0.33
-2.33
2.67
5.0
4.33
-2.67
1.33
-4.67
5.33
-1.67
4.33
3.33
9.33
-4.67
1.0
2.33
-2.0
-0.67
4.67
2.0
-5.67
-6.0
5.67
5.67
7.33
7.33
-4.0
4.0
5.0
-3.67
2.33
4.0
-2.33
-2.0
-0.33
-0.33
-3.0
0.0
0.0
3.0
9.33
-2.0
-2.0
0.67
3.67
0.0
5.67
1.67
1.0
7.67
-5.67
-1.67
-1.33
-1.33
11.67
4.33
9.33
3.33
3.33
-0.33
-3.33
1.33
-1.0
-4.33
2.33
0.33
2.0
14.0
6.0
4.0
-0.67
7.33
4.0
5.67
-2.0
2.33
-5.67
-0.67
4.33
0.67
5.67
7.33
15.67
3.0
4.33
5.67
-1.33
2.67
4.0
3.0
4.67
3.67
0.0
-1.0
7.33
0.67
10.67
-2.33
3.67
0.33
-1.33
-2.67
5.0
-1.67
6.33
3.67
1.0
10.33
5.33
-1.0
0.0
-4.0
0.67
2.33
1.67
-2.33
0.0
0.33
2.67
1.0
3.33
3.33
2.33
-8.33
12.33
-1.33
-3.0
2.33
2.33
1.67
2.33
0.67
-1.0
6.0
0.33
2.67
5.33
4.33
-2.0
-2.0
2.0
6.67
-0.33
4.33
-2.67
1.67
3.0
1.0
0.0
-1.67
3.33
-3.0
-0.67
2.33
1.0
-0.33
0.33
2.0
1.0
-1.67
-5.67
5.0
0.67
2.0
-1.33
0.67
3.0
1.67
-1.67
4.67
1.33
5.67
2.33
2.0
-3.0
-3.67
-1.67
7.33
5.67
9.0
-1.33
2.0
3.33
-3.0
-2.0
7.33
-0.33
2.0
-1.33
0.33
-3.0
2.0
1.67
-0.67
-0.67
4.67
4.0
-3.67
-0.33
-1.33
1.33
3.67
4.33
0.67
1.0
-0.33
-2.0
-1.33
-1.33
4.0
-3.67
-1.67
5.67
4.0
3.33
6.33
0.67
3.33
1.67
-2.33
0.0
-1.0
-1.33
6.33
0.67
9.67
-0.67
-4.33
4.33
-0.33
6.0
-1.33
8.0
0.33
0.33
9.0
-3.33
-1.0
0.67
2.33
-1.33
-2.67
3.0
0.33
-1.0
0.33
1.67
-0.67
0.67
3.67
2.0
-0.33
1.67
1.33
-2.0
3.33
-1.33
-0.67
-0.67
-0.33
2.67
1.0
2.67
-0.67
6.67
0.33
4.0
0.33
1.0
-0.33
6.67
1.67
1.33
2.67
0.0
10.33
3.33
5.33
2.67
-2.0
2.67
3.67
0.33
-2.33
-0.33
-2.33
-1.0
3.0
-1.67
0.0
-1.0
-4.67
-0.33
-0.67
-0.33
3.33
-1.0
0.67
-0.67
0.0
2.67
-2.33
11.33
7.67
4.33
-1.33
0.33
4.0
6.0
7.67
12.67
7.0
8.67
8.0
6.67
2.67
24.0
26.67
26.0
27.33
34.67
20.33
29.33
19.67
17.67
27.0
6.33
11.0
6.67
-2.0
10.33
9.0
-2.0
6.0
4.67
9.0
4.33
4.0
4.67
0.67
4.67
1.33
9.33
11.67
2.0
3.33
2.0
0.0
3.67
-3.33
-0.33
-0.67
0.33
13.33
5.67
5.0
1.67
5.67
1.33
7.0
-2.0
2.67
4.67
2.67
3.67
3.33
1.67
3.67
3.67
4.0
16.67
5.67
6.67
3.67
3.0
5.67
15.0
-0.33
12.0
8.0
8.33
3.0
12.33
6.67
-0.67
3.33
-2.0
0.0
-1.0
8.0
6.0
4.33
-0.33
-1.0
7.33
5.0
-1.33
10.0
-1.33
5.0
13.33
8.67
9.0
12.67
6.67
-2.67
5.33
2.33
6.67
3.67
5.33
1.67
3.33
6.33
5.67
7.67
-0.33
9.0
1.67
10.67
4.0
10.0
8.0
13.0
11.67
14.67
12.67
15.33
25.33
24.33
24.0
6.67
13.33
23.0
14.67
13.67
23.0
14.33
21.67
7.0
10.33
8.33
12.67
13.0
6.0
10.67
19.33
7.33
13.33
8.67
9.0
5.67
17.67
12.67
8.33
10.33
-2.0
12.67
10.67
-1.33
5.0
3.0
3.67
9.33
8.67
4.0
7.0
16.33
14.33
17.33
17.67
5.33
5.0
7.33
10.0
6.0
14.67
9.67
0.0
8.67
7.33
11.0
6.0
8.33
9.33
9.67
-4.67
7.0
10.67
-4.33
2.67
16.0
36.0
16.33
12.67
0.67
9.0
10.33
8.0
9.0
11.67
9.67
13.0
10.33
20.67
13.0
19.67
0.33
-4.33
8.33
6.0
0.67
14.33
9.0
6.33
10.33
5.67
5.0
6.67
2.67
15.0
8.67
17.0
15.0
17.0
9.67
5.0
11.0
10.67
10.33
13.67
10.33
7.67
7.33
16.0
9.33
5.67
12.0
13.67
11.33
6.33
5.67
8.67
7.33
6.67
9.33
8.67
19.0
14.33
20.67
-1.33
14.33
20.67
22.0
21.33
12.0
24.67
18.0
35.67
11.33
29.67
27.67
38.67
29.67
34.0
51.0
63.33
78.33
92.33
72.0
82.0
110.33
91.33
115.0
73.33
81.67
92.67
71.67
51.33
51.33
29.67
22.33
23.67
31.0
20.33
16.0
9.67
13.33
8.67
6.33
18.67
8.0
11.67
18.33
12.33
13.33
16.33
7.67
3.0
9.67
13.33
3.0
0.0
7.0
2.0
14.67
7.67
7.0
20.0
-0.33
10.0
3.67
11.33
19.67
3.33
9.0
20.33
4.67
10.0
14.33
5.0
14.0
13.0
19.0
8.0
4.67
-2.33
2.33
2.0
3.67
2.0
4.33
5.33
5.0
9.67
8.0
14.67
7.67
4.67
5.33
19.0
7.0
8.33
10.33
4.0
-6.33
15.33
-2.0
11.67
8.0
-5.33
9.33
13.33
9.0
1.33
15.33
4.67
-2.33
-6.33
1.0
4.0
6.0
23.33
21.0
6.67
13.0
14.67
12.0
35.0
14.33
19.67
21.67
20.33
30.0
20.0
32.33
26.33
7.67
28.0
32.0
35.33
19.0
15.0
29.33
-0.67
1.0
7.33
11.33
22.0
8.0
2.33
5.67
5.33
17.33
14.33
6.67
12.33
10.0
3.33
3.33
7.67
10.33
6.0
4.0
4.33
-2.0
7.67
18.33
11.67
-0.67
1.33
0.33
15.67
11.67
27.67
13.67
5.0
12.33
6.33
21.67
6.0
2.67
8.0
4.67
13.0
-0.67
-2.33
5.33
6.0
8.33
1.0
11.67
-6.0
5.33
11.0
-3.33
9.0
14.33
2.33
-0.33
5.0
-4.33
1.33
15.33
5.0
-7.33
2.67
3.67
2.0
0.67
6.0
1.33
11.0
4.33
4.33
0.67
0.33
2.0
2.33
-11.0
9.0
12.67
0.67
11.67
5.33
9.0
5.0
8.33
2.67
3.33
-5.0
10.33
1.67
-3.0
2.67
2.0
-2.67
1.33
-5.67
-1.67
-0.33
9.33
6.67
3.67
11.33
14.67
4.67
17.0
3.0
-1.0
4.67
10.0
8.0
9.67
-4.0
-5.67
15.33
-0.33
2.67
-1.0
-2.33
2.0
-3.33
-1.0
-6.33
0.33
0.33
2.33
-3.67
3.67
1.67
3.0
9.0
0.67
8.33
1.33
-1.33
1.67
12.67
-3.0
-0.33
0.33
9.0
-4.33
0.67
-1.33
0.0
0.0
6.67
-1.33
5.67
2.33
8.67
6.33
11.0
11.0
-1.33
8.0
-1.67
-2.33
-4.33
4.67
0.67
-5.0
-6.33
-1.0
-0.33
4.33
1.33
5.33
3.33
3.33
-3.33
-2.67
1.33
3.33
7.33
4.0
4.33
0.67
3.67
5.67
-1.33
6.67
5.0
1.0
5.33
6.33
1.67
5.33
8.67
10.67
0.33
-5.67
-3.67
4.0
0.67
-3.33
1.33
4.67
1.67
-5.33
-2.67
1.67
5.0
3.67
5.33
-4.33
7.0
-1.33
9.67
2.33
1.0
0.67
3.67
-0.33
3.0
-1.0
-5.33
-1.67
5.67
4.67
-4.0
0.67
6.33
-1.0
4.33
7.67
3.67
2.33
0.33
3.33
-0.67
-1.0
3.67
3.0
0.0
1.33
-0.67
5.67
-1.67
-3.33
-0.33
0.33
-1.67
-5.33
-2.0
-5.33
0.33
-4.67
5.33
4.33
4.67
-2.0
3.67
1.67
5.33
-1.67
6.33