File: EDX Back Ups and Old Files/Spectra copy 3.3.23/Samples/High pH BL 60C 2d/9.5.txt
0.0
-54.33
-90.67
-115.67
-97.0
-104.33
-7.33
-44.0
-58.33
-24.0
-14.0
-36.0
-11.0
-11.67
-8.33
1.0
0.0
2.0
-0.33
-1.0
-0.33
0.67
0.0
1.0
-1.33
-0.67
-0.33
-0.33
-0.33
0.0
-0.33
0.33
0.67
0.0
-0.67
-0.33
1.67
-0.67
0.33
-0.33
-0.67
-0.33
0.67
-1.0
-0.67
-1.33
1.0
-0.33
-0.67
1.0
-1.0
-1.0
0.67
1.0
1.0
1.0
1.33
1.0
0.67
-0.67
2.33
-0.67
4.33
1.67
2.0
0.0
0.33
10.33
0.33
-0.33
-2.0
-1.67
-3.0
0.33
5.33
1.33
-3.0
3.67
-1.0
-3.0
1.0
-1.0
-2.0
-1.67
-5.33
6.33
1.67
8.67
4.67
-1.0
4.33
-1.67
-4.67
-1.67
4.33
6.33
5.33
4.33
1.33
-2.67
-2.0
-1.67
-3.0
0.33
5.67
6.0
1.33
3.0
-0.33
1.67
1.33
3.33
-1.0
-2.0
-1.0
-1.67
5.33
0.0
-1.33
-2.0
0.67
1.67
0.0
9.0
-4.0
2.0
0.33
2.0
1.0
3.67
2.67
6.0
5.67
1.67
6.0
5.67
3.33
2.33
4.67
2.67
6.67
5.33
3.33
7.33
3.33
-1.33
-5.33
2.33
5.0
-4.33
7.33
1.33
-1.0
10.0
9.0
0.0
2.33
2.33
1.0
3.67
2.0
1.33
1.33
0.33
2.33
-2.33
2.67
-0.67
-0.33
3.0
2.33
4.67
-4.33
4.67
5.0
0.0
-1.33
-1.33
-4.0
-3.0
6.33
-2.33
2.67
-0.33
-4.33
-0.67
-4.33
0.33
1.0
6.33
-0.67
1.67
-3.0
4.33
2.33
3.0
-1.0
6.0
0.67
-1.67
4.67
-3.33
-4.0
2.33
0.67
5.0
4.33
-0.67
0.33
-5.33
1.33
-4.33
-4.0
2.33
-2.67
-2.33
5.33
-2.33
-2.0
2.0
-1.67
0.67
-1.67
4.33
5.0
0.0
3.0
5.67
0.67
0.33
-4.67
8.67
2.0
-5.0
1.0
-2.67
1.33
4.0
-1.67
4.33
-1.0
-0.33
4.33
6.0
2.0
1.33
-2.67
7.0
-5.33
7.0
-2.33
-1.33
-5.0
0.67
1.33
4.67
-0.67
0.67
0.33
4.0
-4.0
-1.67
-1.67
2.33
1.67
2.0
-1.33
1.0
-0.67
0.0
-1.0
-2.67
-1.33
1.0
-2.33
0.33
-3.0
1.0
-4.33
0.33
0.33
-1.33
1.0
-2.67
-2.33
-2.33
1.33
3.67
-2.67
0.67
0.0
0.67
-1.0
-2.33
-1.33
5.0
-6.67
-2.67
-3.33
-1.0
1.33
-0.67
-1.33
2.33
-4.33
-1.33
-1.0
1.0
4.67
3.33
-2.33
2.67
-0.67
2.67
-3.67
-2.33
4.0
4.67
-2.0
5.33
-3.67
4.0
-0.33
-2.0
-0.33
-0.67
0.67
0.33
2.0
-1.67
3.0
-0.67
3.67
-2.67
-3.33
-1.33
0.0
0.67
-2.33
2.33
0.0
-1.67
7.67
0.33
-2.67
-0.33
-0.33
-2.0
-4.33
-3.67
7.67
5.33
6.0
-0.67
2.0
-0.33
5.67
2.67
1.33
4.67
4.0
-1.67
0.33
-1.67
6.67
1.0
5.67
4.67
3.33
-3.33
0.67
-2.33
3.0
4.0
8.33
1.0
2.0
-3.67
-3.33
-1.67
-0.33
4.33
2.0
4.67
0.33
-4.0
-2.33
0.67
-0.67
0.67
7.33
-3.33
6.33
6.0
7.0
7.67
3.67
10.0
4.67
6.0
16.67
14.67
17.0
15.67
28.0
24.33
26.67
10.33
17.33
33.67
21.67
22.0
19.33
12.0
14.67
7.0
5.33
12.0
5.0
-1.0
1.67
9.0
11.33
7.0
2.67
7.67
6.67
-1.67
5.33
10.67
4.0
14.33
-1.0
5.0
-0.33
0.67
10.67
1.33
-0.67
10.33
9.67
7.0
-0.33
1.67
4.33
2.0
2.0
1.67
2.67
2.67
5.67
10.33
6.67
8.67
4.67
8.0
8.67
0.67
7.67
6.67
2.0
-2.33
-1.0
6.67
10.0
4.0
5.33
3.0
13.33
-0.33
4.33
-3.67
1.0
4.0
1.0
4.0
10.0
5.33
6.67
0.0
2.33
6.0
-4.33
1.0
0.67
8.0
6.33
-0.33
5.0
7.67
1.67
7.33
5.33
8.33
12.67
-0.33
-1.67
6.67
-7.67
5.33
7.67
0.67
10.67
5.0
6.67
6.67
7.0
12.0
11.0
15.0
3.67
12.67
13.67
24.33
19.33
18.33
27.0
25.67
25.33
36.0
22.67
20.67
16.0
10.33
17.67
9.0
17.33
1.33
15.67
2.0
9.0
3.67
14.33
13.33
12.33
13.67
4.0
7.67
8.67
14.67
3.33
8.33
-3.0
10.67
7.67
5.67
-1.0
4.0
8.67
3.33
8.67
11.0
7.0
5.33
16.33
8.33
15.67
16.33
3.0
5.33
12.0
6.0
10.67
12.67
13.0
5.67
5.33
9.0
5.0
5.33
9.33
5.67
2.33
12.0
4.67
17.67
10.67
19.0
18.0
0.33
7.67
11.67
-2.0
1.33
12.0
7.0
22.67
10.67
12.0
16.33
2.67
25.0
10.67
2.33
1.67
13.33
10.0
7.67
6.33
11.0
14.33
17.33
7.67
11.0
9.67
5.67
9.0
5.67
10.0
6.0
20.0
9.67
8.0
24.0
11.67
11.33
5.67
8.33
11.67
7.33
6.0
12.33
4.67
11.0
9.67
-5.67
9.33
4.67
21.67
15.33
10.67
18.33
8.67
5.0
7.33
12.67
5.67
15.33
21.67
21.0
23.33
17.0
19.67
20.0
19.67
24.33
23.67
18.67
37.67
27.67
36.0
55.0
72.33
98.33
97.33
118.0
103.0
128.33
135.33
160.0
151.33
129.67
95.67
89.67
76.33
59.33
44.67
43.33
25.67
24.0
24.33
16.0
19.67
18.33
7.67
12.33
8.67
10.0
14.67
11.33
9.33
9.33
9.33
7.67
12.0
10.67
4.33
9.0
17.0
23.0
21.0
16.67
18.67
0.0
9.0
11.67
1.0
13.67
6.33
12.67
8.33
20.0
15.33
-1.33
15.0
23.33
5.0
13.0
6.0
10.0
2.0
11.67
9.67
-6.67
15.0
7.67
16.0
8.33
11.33
15.0
8.67
18.0
21.67
-3.33
6.67
19.33
7.0
3.0
10.33
16.33
20.0
0.67
-2.67
5.0
9.67
-7.0
3.67
15.33
15.33
6.0
-7.67
19.33
6.67
8.67
-1.33
7.0
12.0
11.0
16.33
29.0
19.67
11.0
24.67
18.0
19.0
18.33
27.67
37.67
26.33
30.0
29.0
22.33
10.33
18.67
13.0
17.0
20.33
20.0
27.0
-2.67
8.33
17.0
0.33
17.33
11.0
-6.0
11.33
8.67
-4.67
5.33
5.33
-2.33
8.33
2.0
9.33
9.33
8.67
2.33
-2.0
11.0
3.33
19.0
7.67
24.33
-2.33
2.33
7.33
-0.67
1.67
18.67
9.67
15.67
3.0
24.33
6.33
13.67
4.0
11.67
2.0
5.67
14.0
9.33
10.67
14.33
8.0
-1.67
6.0
8.67
-1.0
5.33
3.0
4.67
5.0
9.33
-2.67
9.67
-2.0
10.67
-1.67
6.33
0.0
0.67
3.67
6.67
7.0
-0.33
16.0
-4.67
4.0
2.33
11.33
1.67
1.33
2.0
6.33
-7.0
3.0
3.67
-13.33
-0.33
7.33
3.0
5.0
6.33
5.67
-6.67
-7.0
11.33
4.67
8.0
7.67
10.0
-4.67
12.33
-3.67
13.33
7.67
2.33
4.67
12.67
14.33
0.67
9.67
-1.0
5.0
7.0
2.67
-4.0
6.0
4.67
7.0
8.33
5.33
2.67
6.67
-6.0
-6.33
6.0
2.67
-2.0
6.67
5.33
4.33
-5.67
-4.67
7.67
-4.33
-5.0
-1.0
-2.33
3.33
9.33
-0.33
16.67
5.67
2.0
-7.33
10.33
14.0
3.67
-0.33
6.67
-2.0
1.0
4.67
-0.33
15.67
8.33
4.67
11.33
7.0
9.0
4.67
2.0
-0.67
0.67
-2.33
5.67
1.67
-1.0
-3.33
-1.0
1.67
0.33
-0.67
0.33
3.33
-0.67
1.67
-0.67
11.33
7.33
12.33
1.0
1.33
6.67
1.67
4.67
-4.33
0.67
6.0
1.0
3.33
4.33
4.67
11.33
8.67
7.67
4.33
4.33
-0.67
6.0
0.67
-1.33
5.33
-1.33
-2.33
-0.33
-2.67
1.67
0.0
-0.33
7.33
-3.33
2.0
2.67
-0.33
2.33
-3.0
-6.33
2.67
2.67
7.0
0.0
-7.33
-0.67
0.67
4.67
-2.0
-1.33
2.33
5.0
0.33
1.67
4.67
1.33
-0.67
7.33
7.33
-7.0
3.67
2.0
4.0
1.33
-2.67
8.67
7.33
-4.33
-0.33
5.33
2.33
-6.33
6.0
-5.33
4.33
3.33
-2.67
-2.67
3.67
0.0
1.67
2.67
-5.67
0.33
5.33