File: EDX Back Ups and Old Files/Spectra copy 3.3.23/Samples/High pH BL 60C 2d/9.75.txt
0.0
-40.33
11.33
-63.67
10.0
-1.33
-40.33
-42.0
-48.33
-20.0
12.0
-26.0
-15.0
1.33
7.67
-5.0
-4.0
-1.0
2.67
1.0
-0.33
0.67
0.0
0.0
-0.33
-0.67
-0.33
-0.33
0.67
0.0
-0.33
1.33
-0.33
1.0
-0.67
0.67
-0.33
-0.67
0.33
-0.33
-0.67
-0.33
0.67
0.0
0.33
-0.33
0.0
0.67
-0.67
0.0
1.0
-1.0
-0.33
-1.0
1.0
1.0
-0.67
1.0
2.67
-4.67
-1.67
-1.67
2.33
-1.33
4.0
7.0
0.33
3.33
3.33
-1.33
1.0
1.33
2.0
5.33
-0.67
2.33
0.0
-0.33
5.0
4.0
-1.0
1.0
-8.0
1.33
2.67
7.33
-2.33
-4.33
-2.33
2.0
5.33
1.33
0.33
5.33
7.33
3.33
-4.67
10.33
2.33
-4.67
3.0
5.33
0.0
-4.67
4.67
12.0
0.33
5.0
1.67
9.67
4.33
10.33
2.0
-4.0
-3.0
1.33
2.33
6.0
-8.33
7.0
2.67
-1.33
-1.0
7.0
0.0
5.0
6.33
6.0
5.0
3.67
4.67
5.0
-0.33
5.67
1.0
7.67
1.33
3.33
0.67
0.67
3.67
3.33
2.33
-0.67
3.33
0.67
-0.33
4.33
0.0
1.67
5.33
-0.67
-2.0
1.0
6.0
0.0
-1.67
5.33
6.0
6.67
-5.0
0.33
-4.67
-1.67
-0.67
5.67
2.67
7.33
2.67
9.0
-1.67
3.67
-6.33
0.67
0.0
-1.0
1.67
3.67
0.0
4.0
-0.67
-1.33
0.67
-5.33
-5.33
-3.67
-1.33
-4.67
1.0
1.33
-1.67
10.67
0.0
-2.67
4.33
-1.0
3.0
1.0
1.67
8.33
1.67
0.67
7.0
4.33
5.67
4.0
0.33
4.33
1.33
-0.33
4.33
0.67
-3.0
-3.67
0.33
-0.33
4.33
-1.33
0.0
7.0
-0.67
3.67
5.33
4.33
-4.0
8.0
1.0
-0.33
1.67
4.33
-3.67
3.67
1.0
-4.0
2.0
-3.67
4.33
-3.0
2.33
4.33
1.0
-0.33
1.33
1.0
3.0
1.33
3.33
10.0
0.67
2.0
0.67
-1.33
0.0
-2.33
4.33
-1.33
-1.67
0.67
0.33
-3.0
-1.0
3.33
-1.67
-0.67
8.67
1.0
-1.33
0.0
0.33
4.0
2.0
-0.67
4.67
1.0
-0.33
0.33
-2.0
2.0
-1.33
-5.67
1.33
0.67
1.0
-3.67
-0.33
4.67
3.33
-4.33
-0.67
5.67
1.0
1.67
2.0
1.67
6.67
0.0
4.33
-1.67
0.67
-2.0
2.33
0.33
-0.33
-0.67
-3.33
-0.33
1.0
-2.0
3.67
2.33
-2.33
-2.33
0.33
1.67
1.33
0.67
-1.0
2.67
-3.0
1.33
-4.67
1.0
-4.33
0.0
-2.33
2.33
4.67
-2.67
2.0
-1.67
-3.0
-3.67
-1.33
-2.67
-1.33
-2.33
0.0
-3.33
-1.33
0.33
0.0
0.33
-1.33
4.33
-4.67
-0.33
3.67
1.0
1.67
6.33
3.67
-1.67
0.0
2.33
0.0
1.67
0.67
2.67
3.33
2.67
-2.0
5.33
4.33
1.33
4.67
-1.0
4.67
2.67
-4.67
-3.33
-0.33
-1.33
0.0
0.0
4.33
-1.0
2.0
4.33
1.67
3.33
-2.33
3.33
-1.0
-1.33
-1.67
-2.0
5.67
0.67
3.33
3.67
3.33
-2.33
7.33
4.0
8.0
4.67
2.67
2.0
5.67
3.0
9.67
12.67
9.0
10.67
13.0
21.33
27.67
21.33
18.33
12.67
20.67
29.0
8.33
9.0
9.67
-1.0
4.33
-1.0
8.0
5.0
8.67
-3.0
9.33
2.0
-0.33
10.67
2.67
0.33
5.33
3.67
3.0
2.33
-1.0
-1.0
7.67
1.67
1.67
3.33
4.33
-1.67
3.67
8.0
2.67
-1.33
0.33
9.0
4.0
-6.33
6.67
6.67
6.67
6.33
6.67
2.67
8.67
4.0
10.67
5.67
1.67
9.67
3.0
2.67
14.0
8.67
7.0
18.0
6.33
4.0
14.33
5.67
3.33
-1.67
-1.0
4.0
2.0
5.0
6.0
9.33
6.67
5.0
8.33
7.0
4.67
8.0
-0.33
1.0
6.33
9.67
2.0
10.67
9.67
2.33
5.33
1.33
4.67
2.67
-2.67
9.67
0.33
9.33
10.67
7.67
10.67
9.0
8.67
6.67
13.0
19.0
11.0
20.0
19.67
18.67
16.67
23.33
17.33
35.33
26.0
22.67
23.33
34.0
22.67
28.67
18.0
18.33
11.67
19.0
21.33
12.33
11.67
13.0
6.0
5.67
10.33
11.33
14.33
13.67
7.0
3.67
14.67
11.67
0.33
13.33
12.0
3.67
13.67
10.67
2.0
4.0
10.67
9.33
8.67
11.0
9.0
12.33
2.33
17.33
16.67
11.33
1.0
13.33
10.0
6.0
17.67
8.67
4.0
8.67
11.33
1.0
4.0
3.33
15.33
9.67
5.33
6.0
7.67
13.67
-3.33
14.0
13.0
17.33
9.67
5.67
8.0
18.33
9.0
3.0
2.67
4.67
16.0
12.33
19.67
24.0
6.67
7.33
-3.33
2.33
0.0
-0.33
22.33
4.0
11.33
5.33
10.67
15.0
5.67
5.67
10.0
8.67
6.0
12.0
13.0
7.67
9.0
17.0
8.67
8.33
12.67
-1.67
10.67
10.33
22.0
12.33
4.67
6.0
5.67
-2.67
9.33
12.67
16.67
10.33
17.67
18.33
3.67
11.0
7.33
19.67
18.67
12.33
12.67
12.0
23.33
12.0
30.67
12.0
19.67
21.33
24.67
22.67
34.67
37.67
48.0
60.0
79.33
109.33
127.33
148.0
114.0
153.33
134.33
144.0
137.33
161.67
126.67
87.67
70.33
65.33
54.67
33.33
29.67
43.0
30.33
17.0
5.67
8.33
10.67
8.33
10.67
2.0
17.67
8.33
3.33
15.33
13.33
7.67
20.0
7.67
6.33
26.0
11.0
13.0
13.0
10.67
8.67
3.0
15.0
0.67
21.0
20.67
2.33
23.67
-3.67
11.0
14.33
5.67
11.0
15.33
10.0
12.0
12.0
15.0
10.0
14.67
13.67
-3.67
4.0
13.67
15.0
-6.67
11.33
-3.0
9.67
16.0
7.67
-8.33
8.67
8.33
6.0
19.0
19.33
2.33
0.0
-2.33
3.33
1.0
1.67
6.0
2.67
2.33
11.33
2.0
-7.67
0.33
3.67
8.67
4.67
8.0
4.0
3.0
12.33
18.0
2.67
4.0
18.67
9.0
19.0
22.33
11.67
-3.33
17.33
18.0
23.0
24.33
13.33
12.67
21.0
8.0
17.33
15.0
11.0
19.33
17.33
10.0
7.33
9.33
9.0
2.0
11.33
2.67
15.33
18.33
11.33
12.67
15.33
6.0
6.33
5.33
22.67
18.33
-8.0
10.0
7.33
4.0
4.67
17.33
0.67
10.33
5.33
6.33
5.67
7.67
9.67
15.67
9.0
14.33
14.33
2.67
-8.0
7.67
12.0
8.67
12.0
4.33
-0.33
14.33
2.0
9.33
11.0
7.67
5.0
2.33
14.0
5.67
5.0
7.33
6.33
-3.33
1.0
5.67
11.33
10.33
4.0
0.67
11.67
3.67
8.0
6.67
-1.0
3.33
9.0
-0.67
10.33
8.67
-0.67
0.0
13.33
1.0
-6.0
4.67
0.67
1.67
2.33
7.0
1.0
5.33
6.67
2.33
0.0
-3.67
19.67
0.0
1.67
7.0
-2.67
-0.67
-4.67
-5.67
11.67
12.33
-1.33
9.67
11.33
11.67
7.67
1.0
7.0
8.0
12.67
6.0
4.0
13.67
1.0
13.33
-5.67
3.67
0.67
4.0
8.67
12.0
-7.33
-5.0
1.67
2.33
-8.67
2.33
-2.67
5.67
-1.33
6.0
2.0
-0.33
-3.67
5.33
-3.33
4.67
1.67
-7.0
-0.33
0.33
-4.0
1.67
5.67
-2.33
2.0
3.0
5.67
5.67
6.67
1.33
5.67
4.33
8.0
-4.0
-0.33
2.0
4.33
3.67
-1.33
2.67
-2.33
-5.0
-2.33
3.0
4.67
-0.67
0.33
2.33
-0.67
-2.67
8.67
-1.67
6.33
7.33
5.33
0.0
11.33
9.67
1.67
-1.33
-0.33
2.67
6.0
8.0
7.33
9.33
10.67
8.33
0.67
6.67
4.33
3.33
-2.67
12.0
1.67
-4.33
3.33
6.67
0.67
-2.33
-4.67
5.67
5.0
5.67
3.33
1.67
7.0
5.67
2.67
-4.67
0.0
-0.33
2.67
3.67
4.0
0.0
-4.33
-4.67
-3.33
-2.33
-2.0
-3.33
7.33
3.0
-7.67
1.67
8.67
-0.67
3.33
1.33
8.33
-1.0
0.67
-2.0
-1.0
2.33
0.33
2.67
1.33
-2.33
6.67
-4.67
4.33
1.67
-5.0
0.67
-0.67
1.33
-1.67
3.33
-3.33
3.0
1.67
0.67
3.33
-1.67
1.33