File: EDX Back Ups and Old Files/Spectra copy 3.3.23/Samples/High pH SF 60C 14d/10.0.txt
0.0
63.33
-23.0
17.0
93.33
-7.67
-24.0
-38.0
-32.67
-20.67
19.67
-11.33
-15.67
3.0
5.67
0.67
-3.33
0.67
0.67
2.33
0.0
-0.67
-0.33
1.0
0.0
-0.33
-0.33
-0.33
-0.67
-0.33
0.33
-0.33
1.0
0.0
0.0
1.0
0.33
3.0
0.0
-0.67
0.33
0.0
-0.67
0.67
-1.33
-0.67
-0.33
-0.67
1.67
0.67
-1.33
1.33
1.67
-1.0
-0.33
0.0
-2.0
3.0
1.33
-1.0
1.67
-2.33
0.67
0.33
1.67
0.67
-1.0
4.33
-0.67
0.33
3.67
5.0
9.0
-1.0
4.0
3.33
3.0
4.0
0.67
-5.33
6.67
-1.67
1.67
-0.67
6.67
1.67
2.33
-5.33
-2.33
-2.33
-0.33
-3.33
4.0
2.0
-9.0
0.33
0.0
4.33
-3.33
2.67
-2.0
4.67
1.67
-4.0
-4.33
1.67
-0.33
2.0
-3.0
-2.67
4.0
6.67
0.0
2.0
-0.67
3.0
5.67
5.33
-3.67
8.33
-3.0
1.0
5.0
2.33
1.33
2.67
-0.67
-6.33
0.33
0.67
0.67
-1.67
0.0
5.67
5.67
5.67
7.67
2.33
-3.33
4.33
1.67
2.67
0.33
5.0
2.67
-6.33
-0.33
4.0
0.0
2.0
0.67
3.33
1.33
4.33
5.0
4.0
2.33
5.33
-3.67
-3.0
3.67
6.33
2.67
2.33
2.0
5.33
0.33
-5.33
1.0
2.67
-2.0
4.0
0.33
14.33
4.0
4.0
4.67
0.0
8.0
2.33
6.33
-0.67
1.33
-0.67
2.67
2.0
3.67
1.67
-8.0
-1.67
3.0
1.67
2.0
-1.67
9.67
-2.0
-4.0
3.33
-4.0
4.0
5.67
2.0
-3.67
-2.0
-1.67
2.0
-6.33
0.33
7.0
1.33
-5.33
-0.67
-4.33
-0.67
0.0
-1.33
2.67
2.67
0.33
1.33
-0.33
-0.67
0.0
5.0
1.0
-0.67
-1.0
-6.33
0.33
2.0
4.67
4.33
5.0
-0.33
-2.0
1.67
2.0
10.0
2.0
2.0
-0.67
2.0
3.33
-2.33
-0.67
-5.0
1.33
-0.67
-7.0
1.0
-3.0
2.0
-0.33
-3.33
-3.33
5.67
-2.67
3.67
2.33
-4.33
0.33
4.0
1.0
-2.0
-0.33
-2.33
0.67
0.67
3.33
1.67
3.33
-1.33
-4.67
-1.67
-2.67
0.33
-1.33
1.33
2.67
-1.33
2.33
-1.67
1.67
4.67
1.0
-0.67
1.0
-2.33
-2.0
0.67
-3.0
5.67
1.0
-2.0
1.67
0.0
-1.0
-3.67
-3.33
7.33
1.33
3.0
-1.0
0.33
1.0
-2.33
-5.0
-2.33
3.33
6.0
1.67
-1.67
6.0
-1.33
3.0
0.0
-0.67
-0.33
-2.33
-2.33
0.0
1.33
-4.33
-2.67
0.0
3.33
-4.33
1.67
-1.0
-1.33
2.67
-3.0
-1.33
-8.33
-1.67
0.67
-3.33
3.33
-3.67
-4.67
-7.33
-4.0
-0.33
-1.33
-2.0
-2.0
-3.67
1.67
3.33
1.67
-1.0
-6.33
7.33
-4.67
4.33
-4.67
-3.67
-4.33
-7.67
-2.33
-2.67
-1.33
-6.33
1.67
-4.0
-3.33
-2.67
-7.67
-8.0
-9.0
-10.0
-6.33
-1.67
-1.33
-2.0
0.33
-6.33
-6.33
-2.33
-3.33
-6.33
-9.0
-3.0
-6.33
-0.33
-9.33
-10.0
-4.67
1.0
-1.33
-11.33
-9.67
-11.33
0.67
-11.0
-4.33
6.33
2.0
-2.67
7.67
7.33
5.0
-5.33
13.0
-1.67
17.33
19.33
12.67
16.67
9.67
2.67
-2.33
10.0
-4.67
-1.0
6.33
-7.33
-4.67
-10.67
-3.67
-13.33
-6.67
-3.0
-4.33
0.67
-9.67
-6.0
-6.67
-4.67
3.33
-6.0
-10.33
-6.33
-8.0
3.67
-5.33
-7.33
-5.0
-8.67
2.0
-2.67
-4.0
-5.33
-1.67
0.0
-1.67
-10.33
-9.0
-4.0
-6.0
-9.0
-8.67
-4.33
-5.33
-7.67
-3.67
-8.0
1.33
-3.0
-3.0
-8.33
3.0
-9.33
-10.67
-10.67
-1.67
-4.67
1.33
-5.33
1.33
-5.33
-9.33
-8.33
-6.33
0.0
-1.67
-5.33
-6.67
4.0
-12.33
-1.67
-2.33
-12.33
-7.0
-7.67
-8.33
-15.33
5.0
-0.33
-5.33
-1.67
-7.0
-1.67
5.33
-5.0
0.0
-5.0
-8.0
-0.33
4.0
1.0
-8.67
-7.0
-0.33
-2.67
-11.0
2.0
-0.33
-1.0
-2.33
6.67
10.0
15.0
7.33
8.33
15.33
14.0
31.67
27.67
28.67
14.67
12.67
21.0
14.67
-0.67
4.33
2.0
0.0
4.33
1.0
-3.67
2.0
1.33
6.67
-4.67
-5.0
-5.0
-1.67
4.33
10.67
-4.67
7.33
-5.0
13.67
1.0
-6.67
-1.67
2.0
-4.67
2.33
-1.33
0.0
-4.33
3.0
-6.0
12.33
8.33
1.0
4.67
8.33
6.0
3.67
4.33
11.0
8.33
3.0
-1.33
2.67
1.33
1.33
11.0
8.0
-2.33
5.67
6.0
3.67
4.0
3.67
4.0
-1.33
8.67
-0.67
7.67
4.0
11.0
12.33
2.33
12.0
-0.67
12.67
11.0
1.67
-4.67
13.33
12.67
5.0
11.33
7.0
3.33
11.67
4.0
-2.67
5.67
6.67
-2.0
1.67
2.0
18.67
-2.33
6.67
11.67
11.67
9.67
10.33
3.0
6.0
6.33
11.67
3.67
4.67
2.0
14.67
8.33
13.33
6.0
5.33
2.0
11.0
11.67
-0.33
11.33
5.33
13.33
8.0
5.33
17.67
11.33
7.67
9.0
6.33
3.67
8.33
-3.0
24.0
13.67
24.67
15.0
14.67
21.33
40.0
51.33
76.67
63.33
83.0
125.33
113.0
127.0
155.67
129.0
144.67
139.33
134.0
124.67
122.33
113.0
53.67
62.67
23.67
18.33
11.0
18.0
-3.0
17.67
12.67
6.33
3.0
2.33
9.67
1.33
2.0
10.67
-0.33
2.0
-5.0
-5.0
10.0
4.33
-1.33
7.0
-10.0
10.67
0.33
4.33
7.33
7.33
4.67
-1.33
9.0
5.33
2.0
4.0
7.67
-3.33
-7.33
4.0
9.33
8.67
-4.67
12.0
9.0
10.0
11.33
-3.67
10.67
1.33
2.67
10.67
16.33
3.67
7.67
11.33
6.33
-1.33
1.67
7.33
4.67
3.67
12.0
6.0
-7.33
4.33
7.33
-2.67
8.67
5.0
7.0
6.67
12.0
4.0
10.0
9.67
13.67
1.67
9.67
3.33
2.67
-11.67
12.67
7.33
-5.33
0.67
7.67
4.67
16.67
4.0
24.0
21.33
30.33
13.0
9.67
11.67
16.33
6.67
13.0
12.67
15.0
17.67
-0.33
15.67
-5.0
-8.67
16.0
18.67
10.67
1.67
2.67
1.33
6.33
13.67
6.67
-1.0
-1.0
6.0
8.33
-9.67
25.33
1.0
4.33
-2.67
3.0
10.67
-3.33
3.0
15.0
1.0
7.67
16.67
13.0
-2.67
11.67
7.67
5.67
12.67
1.33
14.0
6.0
-2.0
25.67
16.0
4.67
1.67
-2.0
-1.67
-5.67
11.67
14.33
0.0
-6.0
0.0
3.0
0.0
1.33
6.0
-5.67
-6.67
7.0
-5.0
1.67
5.0
-1.0
8.33
-4.67
-3.33
9.0
-1.33
1.67
11.33
-1.33
0.33
-9.67
-5.67
2.33
1.67
3.67
1.0
0.33
9.67
6.0
5.67
0.67
4.0
-1.0
0.0
6.33
9.67
-2.67
2.33
4.33
3.67
-5.0
16.67
-7.0
-0.67
16.33
7.0
4.67
4.33
3.0
5.33
9.33
1.67
11.67
2.0
10.67
5.0
21.0
1.0
9.0
7.33
5.33
6.33
-2.0
3.0
8.33
1.0
-3.67
1.0
-4.33
9.33
-0.33
6.33
5.0
2.33
-4.0
2.67
0.67
-3.33
4.67
-0.67
1.67
-5.33
-4.0
6.0
1.0
1.33
-0.67
1.67
-10.33
0.67
-10.33
6.67
0.0
3.67
5.67
-0.33
5.33
3.33
1.0
1.33
-5.0
0.33
-9.0
3.67
5.0
4.0
-0.33
9.0
5.67
6.67
6.33
0.33
1.67
2.33
-3.33
-3.0
-2.67
3.0
5.33
2.33
1.0
1.67
4.67
-2.0
7.67
6.67
9.33
4.0
4.67
-2.33
-0.67
6.0
8.67
10.0
-2.67
-1.33
7.33
12.67
-6.0
-1.0
1.67
2.0
4.0
-2.0
1.0
-1.67
-1.33
4.33
-2.0
3.67
-0.33
4.33
-5.67
0.67
0.67
6.67
-4.33
0.0
-4.67
0.67
2.67
-3.33
3.0
0.33
-1.33
9.0
2.0
3.0
2.67
-0.67
5.67
0.67
4.33
-0.33
-2.33
-2.0
4.33
6.0
3.33
6.33
0.67
8.67
-5.67
3.0
3.33
-1.33
1.0
-0.33
-2.0
0.33
-6.0
-0.67
1.0
-1.67
0.67
2.33
-7.67
-2.67
0.0
5.67
-2.67
1.0
0.33
1.0
-2.0
-1.33