File: EDX Back Ups and Old Files/Spectra copy 3.3.23/Samples/High pH SF 60C 14d/10.5.txt
0.0
92.33
119.0
93.0
-6.67
-3.67
9.0
-100.0
10.33
-19.67
-17.33
-30.33
-19.67
24.0
6.67
-1.33
3.67
-6.33
0.67
0.33
0.0
-1.67
0.67
0.0
1.0
0.67
-0.33
-0.33
-0.67
-1.33
-0.67
-0.33
0.0
0.0
0.0
0.0
1.33
2.0
1.0
2.33
0.33
0.0
-0.67
0.67
-0.33
-0.67
0.67
0.33
-0.33
1.67
1.67
1.33
-0.33
-3.0
1.67
0.0
0.0
-1.0
-3.67
3.0
4.67
3.67
3.67
0.33
0.67
0.67
-4.0
-4.67
2.33
-2.67
8.67
-1.0
3.0
-5.0
1.0
5.33
-4.0
7.0
5.67
3.67
-3.33
5.33
-1.33
1.33
4.67
-0.33
3.33
0.67
8.67
2.67
3.67
7.67
0.0
3.0
2.0
-0.67
1.0
0.33
2.67
2.67
-3.0
6.67
8.67
0.0
3.67
-2.33
-1.33
-4.0
-7.0
3.33
0.0
3.67
-9.0
-2.0
-1.67
0.0
-0.33
3.33
-1.67
-1.67
-2.0
3.0
0.0
4.33
-3.67
2.67
-2.67
4.67
4.33
-1.33
8.67
0.33
-5.0
4.67
5.67
1.67
-1.33
3.33
1.67
0.33
1.67
-0.33
2.33
4.0
3.67
-0.33
-0.33
7.0
6.0
5.0
-4.33
0.33
2.33
0.33
0.0
3.0
2.33
7.33
-2.67
-2.0
1.67
11.33
6.67
3.33
2.0
1.33
-0.67
4.67
2.0
0.67
2.0
6.0
0.33
-1.67
1.0
4.0
0.67
4.0
9.0
3.33
4.33
-0.67
3.33
-5.67
-0.33
0.0
-4.33
1.67
1.0
1.33
8.0
2.67
-3.0
-0.67
10.67
2.0
3.0
10.33
-5.0
3.0
-2.33
-2.0
-0.67
4.0
8.33
3.0
-3.33
-1.67
-2.0
3.33
-0.33
1.33
5.67
2.33
-1.0
-6.33
1.67
0.67
-2.67
0.33
-1.33
-1.67
1.0
1.0
-2.0
2.33
-4.0
-1.33
1.33
0.0
-0.33
-0.67
2.0
-1.33
6.0
-3.33
1.0
0.0
-2.0
-2.0
2.33
0.0
2.33
-1.33
3.33
7.0
-0.67
1.33
-3.0
-3.0
1.0
1.0
2.67
-3.33
-2.33
-0.33
2.33
-1.33
5.33
-0.33
-4.67
3.0
0.0
4.0
-3.33
-3.33
-4.33
2.67
3.33
3.67
5.33
3.67
-1.67
2.33
1.33
1.33
0.67
1.33
1.67
-0.33
6.33
-0.67
3.67
-2.33
-3.0
1.33
1.0
-3.33
-5.0
-3.33
-4.0
-2.33
12.0
-1.0
-0.33
-1.0
-2.0
1.33
-1.33
-0.67
-4.67
-1.0
3.0
1.33
4.0
-7.33
0.0
-0.33
5.33
0.0
-2.33
-0.67
-1.0
-0.33
-1.0
-4.0
-3.67
-3.33
2.67
4.67
-1.0
-0.67
-2.33
-1.67
-1.0
3.33
-3.33
2.67
-4.0
-1.33
1.67
-3.0
-3.33
-3.33
1.33
-3.33
-5.33
3.33
-3.67
-0.67
-7.33
-7.0
-1.33
-0.33
-2.0
-2.0
-4.67
-2.33
2.33
-3.33
2.0
-4.33
0.33
-5.67
1.33
-3.67
-4.67
-2.33
-4.67
-7.33
-3.67
-9.33
-2.33
-3.33
-9.0
-1.33
0.33
-6.67
-5.0
-9.0
-7.0
-5.33
-0.67
-3.33
-4.0
1.33
-0.33
-8.33
-2.33
-10.33
-5.33
-12.0
-3.0
-8.33
-9.33
-6.33
-8.0
1.33
-5.0
1.67
-7.33
-4.67
-7.33
1.67
-6.0
3.67
-8.67
6.0
-4.67
-0.33
0.33
-1.0
1.67
6.0
9.33
17.33
9.33
20.67
12.67
8.67
11.67
2.67
-2.0
-5.67
2.0
0.33
-2.33
-5.67
-3.67
-5.67
-13.33
-6.67
-1.0
-7.33
-1.33
-6.67
-5.0
-1.67
-5.67
-4.67
-8.0
-7.33
-12.33
-10.0
-3.33
-9.33
-6.33
-2.0
-16.67
-8.0
-4.67
-13.0
-15.33
-9.67
-6.0
-3.67
-7.33
-4.0
-7.0
-8.0
-10.0
-12.67
-10.33
-2.33
-2.67
4.33
-3.0
-8.67
3.0
1.0
-11.33
-3.0
-7.33
-11.67
-16.67
-0.67
-3.67
-7.67
-2.33
2.33
-1.33
-8.33
-5.33
-4.33
-5.0
-12.67
-7.33
-10.67
0.0
-8.33
1.33
-0.33
-15.33
-9.0
-4.67
-7.33
-3.33
-9.0
1.67
-5.33
-3.67
-10.0
12.33
1.33
-6.0
-9.0
0.0
-4.0
-2.33
-1.0
-1.0
2.33
-5.0
7.67
-5.67
-4.0
-6.0
-2.33
9.0
5.67
2.67
12.0
22.0
21.33
10.33
28.33
21.0
22.67
22.67
4.67
6.67
25.67
18.0
8.67
9.33
9.33
-5.0
-7.0
-7.67
6.0
-8.67
-6.0
6.33
14.67
-3.67
-2.0
-8.0
9.33
-1.67
-6.33
0.33
-1.67
6.0
3.67
9.0
3.33
12.33
5.0
0.33
2.33
5.67
-4.0
1.67
4.0
-4.0
8.33
-5.67
18.0
11.67
0.33
2.0
-2.33
-2.67
-1.0
5.33
8.0
2.67
7.67
2.33
-4.67
10.0
3.0
3.67
10.67
3.0
2.67
10.0
6.67
8.0
0.67
10.67
-1.67
11.67
17.0
10.0
9.33
3.33
6.0
3.33
4.67
19.0
11.67
6.33
4.33
7.67
6.0
5.33
3.0
17.33
-2.33
8.0
10.33
7.67
2.67
9.0
-0.33
11.0
19.67
8.67
3.67
4.67
5.67
5.67
-0.67
1.0
10.0
12.33
9.67
6.67
4.67
-3.0
3.67
15.33
12.33
4.0
5.33
12.0
11.0
13.67
21.67
0.33
4.33
4.33
6.0
12.33
12.67
1.33
23.67
16.0
-5.67
14.67
13.33
14.0
13.0
17.67
24.67
18.0
32.67
45.33
43.0
49.33
82.67
112.33
119.0
155.33
151.0
170.0
168.67
180.0
168.67
185.33
152.0
139.67
128.33
103.0
71.67
57.67
35.67
21.33
21.0
19.0
15.0
16.67
15.67
-10.67
6.0
6.33
9.67
5.33
10.0
9.67
2.67
1.0
-5.0
12.0
5.0
0.33
5.67
8.0
5.0
14.67
-4.67
10.33
16.33
1.33
11.67
4.67
18.0
5.33
4.0
4.0
10.67
3.67
2.67
9.0
-0.67
-6.33
7.33
8.0
7.0
6.0
14.33
4.33
6.67
-4.67
-0.33
13.67
16.33
7.67
16.67
7.33
5.33
6.67
1.67
14.33
7.67
-3.33
1.0
12.0
-3.33
4.33
3.33
4.33
12.67
5.0
5.0
4.67
2.0
19.0
12.0
11.67
18.67
6.67
5.67
-7.67
7.67
-0.67
4.67
8.33
9.67
4.67
19.67
8.67
14.67
14.0
14.0
17.33
15.33
10.0
8.67
9.67
25.33
20.67
20.0
33.67
24.0
23.67
21.67
10.67
22.0
-0.67
5.0
6.67
5.67
4.67
-11.33
10.33
4.33
-1.33
10.67
12.0
1.0
4.0
2.33
-3.67
16.33
12.0
5.33
8.33
5.0
-3.33
1.67
2.0
6.0
2.0
16.67
16.67
15.0
9.33
-1.33
16.67
3.67
20.67
17.33
5.0
13.0
10.0
9.67
3.0
16.67
3.67
-2.0
-14.67
1.33
-0.33
2.33
1.0
-2.0
0.0
4.0
1.0
12.33
7.0
-0.67
-1.67
5.0
5.0
-0.33
11.0
-5.0
1.33
-3.67
3.67
9.0
-1.33
2.67
7.33
3.67
6.33
-8.67
0.33
5.33
2.67
11.67
0.0
6.33
-7.33
0.0
1.67
1.67
-9.0
-8.0
-7.0
-1.67
0.67
-0.67
0.33
14.33
1.67
10.0
4.67
-3.0
-2.67
-4.67
2.0
4.67
6.33
11.0
-1.67
13.33
5.67
-0.33
9.0
8.67
-2.0
11.0
12.0
-5.0
-2.67
-0.67
0.33
15.0
-4.0
-1.67
-2.0
2.33
-1.0
-0.33
7.33
-1.33
2.33
4.0
-1.67
-6.0
-0.33
8.67
-1.33
6.67
4.33
0.67
6.67
4.0
-4.0
-1.0
4.33
1.33
-4.33
-6.33
11.67
-2.33
5.67
6.0
13.67
-1.33
11.67
7.33
6.33
-4.0
2.33
1.0
-6.67
-1.0
-8.33
5.0
1.0
-4.33
9.0
3.67
-3.33
8.33
-2.67
0.67
-2.67
7.67
-8.0
2.33
-2.0
7.33
6.33
2.0
0.67
-2.33
-1.0
0.67
6.67
5.33
8.0
-0.33
-1.33
-0.67
7.0
5.67
10.0
4.33
0.67
-0.67
7.67
0.0
0.0
10.67
7.0
1.0
5.0
-2.0
0.33
-2.33
-0.67
0.0
5.67
-0.33
-2.67
5.33
4.67
0.67
3.67
-0.33
4.0
-1.67
3.67
0.67
4.67
1.0
1.33
6.67
-1.0
8.0
6.0
7.67
3.33
2.67
0.67
2.33
0.67
0.67
-1.0
5.33
1.0
7.33
5.33
2.67
6.67
-3.67
4.0
0.33
-0.33
4.0
0.67
0.0
-4.67
-5.0
-1.67
2.0
1.33
4.67
-2.67
1.33
-0.67
3.0
5.67
-0.67
0.0
-3.67
5.0
3.0
1.67