File: EDX Back Ups and Old Files/Spectra copy 3.3.23/Samples/High pH SF 60C 14d/10.75.txt
0.0
8.33
-22.0
33.0
11.33
-61.67
-37.0
-35.0
-35.67
-37.67
-34.33
-14.33
4.33
4.0
-0.33
2.67
6.67
-5.33
7.67
1.33
0.0
-1.67
-0.33
1.0
1.0
-0.33
-0.33
-0.33
-0.67
-0.33
-0.67
-0.33
0.0
0.0
1.0
1.0
-0.67
0.0
0.0
0.33
1.33
0.0
-0.67
-0.33
0.67
2.33
0.67
0.33
-0.33
-0.33
0.67
0.33
1.67
-1.0
-0.33
-1.0
-2.0
2.0
-0.67
2.0
3.67
0.67
1.67
-0.67
-0.33
-0.33
-1.0
-0.67
-0.67
2.33
-0.33
6.0
7.0
-1.0
3.0
-4.67
0.0
1.0
-1.33
4.67
-3.33
2.33
3.67
7.33
2.67
2.67
-2.67
-1.33
2.67
-1.33
-0.33
3.67
-1.0
6.0
-9.0
1.33
4.0
-0.67
-0.33
1.67
2.0
9.67
0.67
3.0
-7.33
0.67
-0.33
1.0
-2.0
2.33
2.0
5.67
-5.0
11.0
3.33
1.0
-0.33
6.33
2.33
4.33
6.0
3.0
13.0
-0.67
3.33
-7.33
-1.67
1.67
7.33
2.67
6.67
1.33
-6.0
1.67
3.67
-4.33
1.67
4.33
7.67
2.33
4.67
12.67
-2.67
0.0
4.67
-0.33
-10.33
8.0
-3.0
3.0
-1.33
0.33
6.33
2.33
3.0
-2.0
3.33
13.33
7.33
-1.0
0.67
5.33
3.67
-1.67
3.0
1.33
2.33
-3.33
0.0
1.67
-3.0
-1.0
7.33
8.33
-1.0
-1.0
6.67
-7.0
6.0
10.33
5.33
-2.67
1.33
0.33
2.67
7.0
2.67
4.67
2.0
-1.67
2.0
-0.33
0.0
-1.67
0.67
5.0
7.0
3.33
0.0
9.0
3.67
9.0
-0.67
3.0
2.33
5.0
0.67
-0.67
5.0
-0.67
1.67
0.33
-4.33
-3.67
-1.0
0.67
-1.33
-1.33
5.33
2.33
-3.33
3.33
1.0
-1.0
-4.0
0.33
-2.0
-0.33
4.33
0.0
8.67
5.33
4.0
2.67
3.0
3.67
5.0
-1.0
-1.0
7.0
1.33
2.0
1.33
-4.33
1.33
-4.0
-0.67
3.33
-4.0
-3.0
-1.0
2.0
-4.33
-3.33
3.67
3.67
5.33
-0.33
0.33
6.67
0.33
0.0
0.0
4.0
-0.33
1.67
3.67
4.67
-2.67
3.67
1.33
-1.33
0.33
3.33
5.33
1.33
4.67
2.33
7.67
3.67
-1.67
-2.67
-1.33
1.67
0.0
-2.67
-3.0
-3.33
1.0
-2.33
0.0
-1.33
0.0
-1.0
-1.33
-1.0
1.0
-0.67
-0.33
-0.67
-2.67
0.0
-4.0
2.33
1.0
-1.33
3.0
0.67
4.33
2.0
1.67
1.33
3.0
0.67
-1.0
-4.0
0.33
-3.33
-4.33
4.67
0.0
-1.67
-6.33
-0.67
-1.0
0.33
-2.33
0.67
-2.0
-0.33
1.67
-2.0
-5.33
-2.33
0.33
-5.33
-0.33
-1.67
-4.67
-2.67
-2.33
-4.0
1.67
-3.33
-5.0
-5.0
1.33
-5.33
-0.67
7.67
-1.0
-3.33
-0.67
-5.67
5.33
-0.67
-5.67
1.67
-6.67
-3.33
0.33
-3.33
-3.33
-2.33
-4.0
-3.33
-1.67
-1.67
-4.0
-8.0
-7.0
-2.33
0.33
-3.33
-2.0
-8.67
-6.33
-3.33
-1.33
-0.33
0.67
-4.0
-4.0
-7.33
-2.33
-4.33
-4.0
-2.67
-6.0
-4.33
-13.33
-7.67
-9.33
-1.33
-10.0
-7.33
-3.67
-6.0
-5.67
-3.33
0.33
0.0
-0.33
8.0
3.33
17.33
19.33
8.67
13.67
14.67
2.67
3.67
-1.0
-3.67
-3.0
-3.67
-12.33
-8.67
-0.67
-5.67
-7.33
-0.67
0.0
0.67
-9.33
-6.67
-6.0
-4.67
-9.67
1.33
0.0
-7.33
-5.33
-10.0
-1.33
-8.33
-14.33
-6.0
-9.67
-6.0
7.33
-6.0
-3.33
-9.67
-7.0
-3.67
-6.33
-4.0
-3.0
-1.0
-5.0
-6.67
-8.33
-12.33
-6.67
-5.67
-6.0
-6.67
-5.0
0.0
-10.33
-4.0
-7.33
-4.67
-7.67
-2.67
-4.67
-3.67
2.67
-2.67
-4.33
-5.33
8.67
2.67
-3.0
2.33
-5.33
-12.67
0.0
-6.33
-1.67
-2.33
-4.33
-7.0
-0.67
3.67
-1.33
-3.0
-4.33
-9.33
-10.67
-11.0
3.33
-2.67
-13.0
-3.0
0.0
-2.0
3.67
6.0
1.0
-4.67
3.0
-0.33
5.33
-3.0
1.0
1.67
5.0
-5.33
1.67
17.0
18.0
15.33
14.33
24.33
37.0
11.67
36.67
19.67
21.67
17.67
3.0
8.67
7.33
6.33
10.0
-2.0
2.33
-2.0
-9.67
-10.0
8.33
5.67
0.33
-1.0
-2.0
0.33
4.33
7.67
0.33
1.33
1.0
-0.33
-2.0
1.33
15.33
10.0
6.33
0.33
-3.33
5.0
-4.33
-4.0
-4.0
1.33
7.33
2.0
-0.33
7.33
-3.0
3.67
-0.67
12.0
7.33
8.0
0.67
10.67
-0.67
2.33
-2.0
9.0
6.67
11.67
22.0
-4.33
8.0
1.67
8.0
-3.33
1.67
12.33
5.67
3.0
13.0
-0.67
6.33
8.0
0.33
14.67
10.0
17.67
29.33
-6.67
11.67
11.0
2.33
2.0
6.33
2.67
2.0
2.33
10.67
10.67
-4.0
3.67
0.0
9.67
4.67
7.67
4.67
18.67
5.67
12.33
7.0
-1.0
10.33
0.67
3.67
-0.33
4.0
11.67
6.33
10.33
2.0
-2.67
12.0
13.0
9.67
0.67
4.33
-2.67
11.33
4.0
-1.67
16.67
13.33
17.67
13.0
5.33
6.67
8.33
6.0
18.0
24.67
34.67
14.0
19.67
34.33
50.0
54.33
83.67
110.33
116.0
159.33
191.0
182.0
184.67
170.0
195.67
166.33
175.0
157.67
141.33
92.0
83.67
62.67
31.67
11.33
20.0
22.0
17.0
24.67
6.67
-1.67
15.0
7.33
7.67
-1.67
3.0
1.67
10.67
11.0
1.0
-5.0
8.0
7.33
3.67
14.0
6.0
10.67
-4.67
16.33
4.33
12.33
4.67
0.67
13.0
1.33
8.0
3.0
5.67
6.67
3.67
7.0
7.33
3.67
11.33
11.0
10.0
7.0
19.33
15.33
2.67
6.33
8.67
5.67
6.33
14.67
10.67
6.33
3.33
6.67
10.67
9.33
4.67
17.67
1.0
11.0
5.67
1.33
4.33
12.33
7.67
13.0
5.0
-1.33
14.0
2.0
13.0
25.67
8.67
20.67
9.67
-2.67
-2.33
0.33
9.67
9.33
11.67
-7.33
7.67
9.67
15.67
23.0
17.0
18.33
11.33
12.0
10.67
23.67
22.33
10.67
24.0
7.67
24.0
13.67
-0.33
2.67
6.0
7.33
4.0
2.67
10.67
15.67
6.67
7.33
17.33
9.67
7.67
1.0
2.0
-6.0
0.33
7.33
-4.67
16.0
12.33
3.33
5.0
5.67
8.67
8.0
13.0
7.0
7.67
2.67
15.0
1.33
7.67
10.67
23.67
16.67
6.33
5.0
1.0
14.0
15.67
9.0
2.67
5.67
7.0
8.33
5.33
1.67
-1.67
1.0
2.0
7.0
6.0
5.0
0.33
9.0
-2.67
5.33
8.0
-5.0
4.67
-4.0
7.0
2.33
1.33
-1.33
12.0
3.67
10.67
-6.67
-7.33
-0.67
-1.67
-2.67
0.33
-3.33
-2.33
4.0
-0.67
-10.33
7.0
14.67
2.67
6.0
8.0
1.0
-6.67
4.67
1.33
0.33
11.33
5.67
-2.0
-5.33
-3.0
7.33
6.33
6.0
5.67
8.33
3.0
5.33
7.33
7.67
7.67
6.0
3.67
-1.0
8.0
13.0
4.0
15.33
10.33
15.33
-7.0
8.0
3.33
2.0
0.33
1.0
-3.33
-2.67
-0.33
0.33
-2.0
2.33
-4.0
-6.33
14.67
-1.33
-3.33
0.33
1.67
0.67
-1.0
-4.0
-2.0
-4.67
7.33
2.67
-5.33
7.67
0.67
-0.33
7.0
-1.33
4.67
8.67
-7.67
-0.67
0.0
-4.67
2.0
0.33
3.0
-3.33
6.0
7.0
1.67
-2.0
6.67
-3.33
-4.67
-1.67
0.67
2.33
0.67
-5.0
6.33
1.0
5.33
2.33
0.0
4.67
3.67
6.0
1.67
3.67
7.33
10.0
-2.33
7.67
-2.67
11.0
8.67
4.0
-4.67
1.67
7.33
6.67
4.0
0.0
-0.33
-2.0
0.0
3.0
-6.0
-3.67
3.67
2.33
-8.0
-1.33
0.67
2.33
-0.67
3.67
-2.33
4.67
1.67
2.0
4.33
3.67
-0.33
-2.33
-1.0
-1.67
5.67
5.0
3.0
1.0
0.67
6.33
4.67
2.67
1.33
0.67
-1.33
-3.0
2.33
1.0
-1.67
6.33
-2.33
-1.33
-3.67
7.0
-4.67
-0.33
-2.0
-1.33
-2.0
-0.67
-3.0
-4.67
1.0
-2.67
5.67
0.33
2.33
-6.67
0.0
11.67
1.33
0.0
3.33
1.0
4.0
1.67