File: EDX Back Ups and Old Files/Spectra copy 3.3.23/Samples/High pH SF 60C 14d/11.5.txt
0.0
9.33
-20.0
-8.0
2.33
-75.67
-29.0
-49.0
-110.67
-31.67
-13.33
-14.33
-12.67
-5.0
-8.33
-7.33
0.67
0.67
2.67
-0.67
0.0
-0.67
-0.33
0.0
2.0
1.67
0.67
-0.33
2.33
-1.33
0.33
-0.33
1.0
1.0
1.0
0.0
0.33
1.0
-1.0
-0.67
0.33
1.0
-0.67
0.67
-1.33
-0.67
-0.33
-0.67
0.67
1.67
-1.33
4.33
-1.33
-2.0
-0.33
3.0
1.0
0.0
0.33
3.0
2.67
2.67
3.67
6.33
-2.33
3.67
-5.0
-8.67
0.33
3.33
-2.33
2.0
3.0
-5.0
3.0
0.33
0.0
5.0
4.67
-0.33
-1.33
-5.67
6.67
2.33
0.67
-1.33
-1.67
-5.33
-4.33
1.67
-0.33
-0.33
-6.0
2.0
-4.0
-1.67
-2.0
1.33
-1.33
0.67
-2.0
11.67
11.67
-2.0
0.67
-2.33
-1.33
6.0
-5.0
0.33
3.0
0.67
0.0
-2.0
-2.67
5.0
0.67
-5.67
-1.67
5.33
-2.0
1.0
4.0
4.33
7.33
1.67
0.33
-3.33
13.33
-0.33
-0.33
1.33
0.0
3.67
3.67
-4.33
-2.33
8.33
-1.33
4.33
2.67
4.67
7.33
3.0
4.67
-4.33
2.67
8.0
4.0
1.0
-6.33
-3.67
3.33
2.33
2.0
0.0
-0.67
8.33
0.33
-5.0
2.67
9.33
8.67
6.33
8.0
5.33
1.33
2.67
1.0
0.67
-5.0
1.0
0.33
3.33
2.0
6.0
4.67
-3.0
5.0
-1.67
11.33
1.33
-0.67
0.33
9.67
-2.0
0.67
-0.33
-2.0
4.33
4.0
3.67
8.0
0.33
3.67
-1.0
3.0
7.33
-2.0
7.0
3.67
-2.0
2.33
-2.0
2.33
4.0
0.67
-2.67
2.0
1.33
-5.33
7.33
0.67
2.33
-5.0
1.67
4.67
-4.33
4.33
5.33
-2.33
1.33
-3.0
1.0
-1.0
-1.67
-2.0
-0.33
6.33
1.0
2.67
1.33
0.0
-0.33
5.0
-1.33
-1.0
-1.0
-1.0
7.0
-0.67
5.0
-1.67
-3.33
-0.67
3.0
-1.67
3.33
-2.0
-1.0
6.0
-1.0
-3.33
1.67
-0.33
-0.33
-0.67
-0.33
-1.67
8.67
-1.67
1.0
1.0
1.0
-2.33
2.67
-1.33
3.67
4.33
0.67
2.33
-0.33
6.33
6.33
1.33
-1.67
-1.33
3.33
3.67
3.67
-2.67
-2.67
0.67
-2.33
-3.0
-0.67
2.0
-0.33
-3.0
-2.33
3.0
2.67
-1.0
0.0
2.67
-2.0
-8.0
6.33
-2.33
1.33
-4.67
-4.0
1.0
0.33
2.0
-3.33
-5.0
0.67
7.33
5.0
1.67
3.33
0.0
3.67
5.0
-5.0
-5.67
2.67
-0.33
3.67
-3.0
-3.67
-5.33
0.33
2.0
4.33
-1.33
3.67
0.0
0.67
0.67
1.0
-0.33
-7.33
1.33
-2.33
-1.33
1.33
-2.67
-0.67
-6.33
-3.0
-4.33
-0.33
-1.0
-3.0
4.33
0.67
-4.67
-6.33
4.0
-2.33
-1.67
-4.67
1.33
1.33
-3.67
-1.33
-2.67
-8.33
-8.67
-9.33
-5.33
-2.33
-8.0
1.67
-4.67
-5.67
-7.0
-6.0
-4.0
-6.33
-3.67
0.67
-4.0
-2.67
-7.33
-2.33
-1.33
-7.33
1.67
-8.0
-3.0
-13.33
-8.33
-4.33
1.0
-4.67
-5.0
-4.33
-8.33
-9.67
-3.33
-6.33
-7.0
-4.33
-12.67
-3.0
-5.67
-4.33
-2.67
-7.0
-7.33
4.0
4.33
11.33
9.33
-1.33
10.67
-2.33
-2.33
-2.33
-10.0
-10.67
0.0
-3.67
-7.33
-1.67
-8.67
-4.67
-10.33
-3.67
-3.0
-3.33
-7.33
-7.67
-12.0
-9.67
-3.67
3.33
0.0
-9.33
-7.33
-14.0
-5.33
-7.33
-8.33
2.0
-15.67
-4.0
-3.67
-12.0
-6.33
-11.67
-4.0
1.33
-12.33
-4.0
-1.0
-5.0
-10.0
-6.67
-12.33
-6.33
-6.67
-0.67
-2.0
0.33
0.0
10.0
-8.33
-3.0
-4.33
-3.67
-4.67
-9.67
-4.67
-4.67
-2.33
5.33
-3.33
-4.33
-4.33
-0.33
-5.0
-7.67
-11.33
-14.67
3.0
-15.33
-2.67
7.67
-3.33
-5.0
-6.67
0.67
-5.33
-2.0
-4.33
-9.33
-3.67
-5.0
4.33
-5.67
-8.0
0.0
-2.0
-5.0
4.67
2.0
3.0
-5.67
1.0
-0.33
0.33
-1.0
0.0
3.67
6.0
2.67
6.67
8.0
16.0
20.33
29.33
26.33
34.0
26.67
48.67
38.67
32.67
22.67
19.0
16.67
13.33
17.33
1.0
1.0
-5.67
9.0
-4.67
6.0
17.33
10.67
2.33
-4.0
-2.0
0.33
3.33
4.67
-4.67
0.33
6.0
5.67
0.0
2.33
3.33
12.0
7.33
5.33
1.67
9.0
7.67
0.0
2.0
0.33
1.33
11.0
6.67
-1.67
-7.0
15.67
6.33
8.0
4.33
5.0
-0.33
8.67
3.33
14.33
0.0
6.0
-0.33
18.67
13.0
9.67
-4.0
1.67
0.0
6.67
6.67
5.33
8.67
5.0
11.0
12.33
1.33
11.0
7.33
18.67
12.0
17.67
4.33
-1.67
5.67
15.0
6.33
8.0
11.33
5.67
9.0
1.33
27.67
5.67
0.0
9.67
3.0
12.67
16.67
9.67
14.67
6.67
20.67
11.33
8.0
1.0
7.33
8.67
12.67
8.67
-3.0
-2.33
6.33
9.33
11.0
11.33
9.0
8.0
4.67
5.67
5.33
12.33
1.33
15.0
3.33
2.67
12.33
10.67
8.0
-5.67
7.67
8.33
-3.0
2.0
23.67
37.67
15.0
37.67
46.33
65.0
56.33
112.67
111.33
144.0
172.33
201.0
229.0
224.67
237.0
222.67
224.33
209.0
186.67
169.33
140.0
88.67
79.67
46.67
33.33
19.0
18.0
15.0
10.67
16.67
8.33
25.0
7.33
3.67
18.33
5.0
11.67
14.67
18.0
0.0
1.0
13.0
2.33
7.67
9.0
0.0
4.67
-3.67
18.33
-4.67
6.33
-1.33
4.67
12.0
4.33
12.0
-3.0
12.67
-6.33
4.67
7.0
-0.67
8.67
2.33
6.0
4.0
17.0
7.33
5.33
4.67
-6.67
4.67
8.67
11.33
2.67
8.67
8.33
8.33
-0.33
3.67
11.33
9.67
1.67
6.0
4.0
1.67
10.33
-0.67
-4.67
1.67
-2.0
1.0
-3.33
14.0
10.0
-3.0
1.67
-5.33
5.67
6.67
4.33
2.67
2.33
8.67
14.33
10.67
6.67
0.67
5.67
11.67
4.0
0.0
5.33
6.33
-4.0
-2.33
2.67
-12.67
0.67
21.0
0.67
10.0
-6.33
-6.33
6.67
5.0
-18.67
6.0
-4.33
7.67
4.67
-5.33
4.33
9.33
5.67
-2.33
-1.0
9.0
4.0
-1.67
1.33
6.33
9.0
-0.67
-8.67
4.0
10.67
15.67
-2.0
1.0
2.0
10.67
9.67
16.0
7.33
16.67
12.67
9.67
11.67
7.33
12.0
1.0
23.0
19.67
8.0
-2.33
-2.33
4.0
-2.67
5.33
0.67
0.33
-4.0
5.0
-5.0
8.0
-1.0
11.33
18.0
10.33
-6.67
13.0
-3.0
-3.33
5.0
-8.0
2.33
-4.67
5.67
16.0
2.67
4.67
4.33
1.67
6.33
7.33
-0.67
10.33
-8.33
3.67
4.0
1.33
1.67
-7.0
-5.33
-3.33
5.0
-4.0
-8.0
-10.67
-2.33
-7.67
11.33
7.33
-1.33
7.0
6.67
6.0
6.33
6.33
3.0
-0.33
7.33
0.0
-2.67
10.33
13.67
4.67
18.0
6.67
2.0
14.0
15.0
12.0
4.33
5.33
13.33
7.0
7.0
9.33
-1.0
-4.67
11.0
6.67
2.33
-4.33
-6.67
11.0
-4.67
-3.0
-0.33
1.67
5.67
2.67
4.33
-5.33
-1.33
-2.0
4.0
0.0
-4.67
2.33
1.67
0.67
5.67
4.67
-7.33
-1.0
6.67
2.67
1.67
0.33
-0.67
-4.0
2.33
-4.0
0.33
-1.0
-6.33
0.0
4.0
0.67
12.0
4.67
-1.33
-4.67
-0.67
-4.33
-4.67
4.67
3.0
-1.67
2.0
9.33
1.33
-6.0
4.67
0.67
5.0
5.67
4.67
4.33
5.0
7.67
-6.33
1.33
3.0
9.67
-1.0
18.33
11.67
3.33
5.67
0.0
5.0
-3.33
4.0
6.0
-1.0
-3.0
0.33
0.67
5.33
1.0
-5.33
1.67
0.33
8.33
4.67
-2.33
-1.33
-3.33
-3.0
-1.67
3.67
-2.33
-4.33
-2.0
-0.67
-3.33
-5.0
1.0
-4.0
-2.33
-1.67
2.67
0.67
0.33
-7.33
-1.33
-5.0
-0.67
3.0
0.33
1.33
3.67
-0.33
-0.67
8.0
-0.67
-3.33
1.0
6.67
4.0
-3.67
-8.0
1.33
-6.0
-0.67
2.67
-3.67
-2.67
-2.67
-4.0
2.67
-0.67
4.0
2.33
5.0
-2.0
-2.33