File: EDX Back Ups and Old Files/Spectra copy 3.3.23/Samples/High pH SF 60C 14d/6.25.txt
0.0
34.33
-51.0
16.0
2.33
-70.67
-67.0
-46.0
8.33
11.33
-14.33
-21.33
-5.67
7.0
-2.33
-7.33
-0.33
0.67
1.67
3.33
0.0
0.33
0.67
1.0
0.0
-0.33
-0.33
-0.33
1.33
-1.33
0.33
0.67
0.0
0.0
1.0
2.0
-0.67
1.0
0.0
0.33
-0.67
0.0
-0.67
-0.33
-1.33
0.33
1.67
-0.67
0.67
1.67
0.67
1.33
0.67
-3.0
1.67
-2.0
2.0
3.0
-3.67
0.0
6.67
-2.33
1.67
9.33
3.67
-0.33
0.0
-3.67
1.33
2.33
-3.33
-1.0
3.0
0.0
5.0
-0.67
3.0
9.0
8.67
2.67
2.67
2.33
1.67
2.33
-0.33
0.67
3.33
-3.33
-2.33
-3.33
6.67
0.67
0.0
-1.0
-1.0
2.33
-2.0
2.33
2.67
5.67
7.0
10.67
5.67
0.0
2.67
-1.33
2.67
-2.0
2.0
5.33
10.0
2.67
8.0
1.0
6.33
7.0
2.67
6.33
1.33
3.33
5.0
9.0
5.0
9.33
-2.67
-0.33
11.33
3.67
2.33
1.67
14.67
3.33
-7.0
3.67
7.67
2.67
4.67
2.33
6.67
1.33
7.67
2.67
7.33
1.0
1.67
-2.33
-2.33
0.0
-1.0
-2.0
-2.33
4.33
6.33
1.33
3.0
9.0
0.33
6.33
6.33
-5.0
3.67
8.33
2.67
3.33
0.0
10.33
3.33
-1.33
-1.0
4.67
-5.0
1.0
7.33
7.33
9.0
9.0
3.67
3.0
1.0
2.33
-0.67
-4.67
6.33
-1.67
8.67
3.0
4.67
2.67
-3.0
1.33
7.0
2.67
6.0
3.33
4.67
0.0
2.0
5.33
3.0
9.0
2.67
12.0
6.33
3.0
3.33
5.0
5.67
6.33
1.0
3.33
-2.33
-0.67
-4.33
-0.67
9.0
0.67
0.67
-0.33
6.33
1.33
-3.33
-1.67
-1.0
0.0
-3.0
3.33
1.0
-0.33
5.33
-2.0
5.67
-1.67
2.0
-6.33
3.0
-4.33
2.0
4.0
2.0
0.0
-0.67
2.0
3.33
-1.33
2.33
-1.0
0.33
-2.67
4.0
1.0
-2.0
3.0
-6.33
-3.33
-2.33
1.67
-0.67
-2.33
-0.67
-2.33
-3.67
0.0
3.0
4.0
-1.33
-2.33
0.67
3.67
0.33
-0.33
2.33
2.67
-2.67
3.33
2.33
1.33
2.67
0.33
0.67
3.67
-1.67
1.33
-4.33
3.67
7.0
2.33
-1.0
6.67
-3.0
2.67
-1.0
3.67
3.0
1.0
1.67
-2.0
1.0
2.33
-3.33
3.33
-0.67
3.0
0.0
-0.67
1.0
3.67
0.0
0.67
1.33
0.0
-2.33
3.33
0.0
1.67
4.0
-2.0
2.33
0.67
-1.33
1.67
3.0
2.33
-3.33
-0.67
7.0
-0.67
-0.33
0.67
0.0
0.67
-1.33
0.0
-5.33
-2.33
-2.67
-2.33
4.67
-1.67
-0.67
2.33
-2.33
1.0
-3.33
5.67
0.0
-8.0
-3.67
-0.33
-4.67
-6.33
-3.0
-3.33
-4.67
-9.67
3.33
-4.67
1.33
-0.33
-2.67
-6.33
-9.67
-4.33
-6.33
-1.33
-8.0
-2.33
-1.67
-6.67
-7.0
-8.0
-7.0
-1.33
2.33
-1.33
2.0
-4.67
-3.33
-1.33
2.67
-5.33
-1.33
-1.0
1.0
-4.33
-1.33
-2.33
-6.0
-3.67
-4.0
6.67
-9.33
-2.67
-6.33
-6.33
-5.0
1.67
-4.67
-2.0
-4.67
-4.33
3.33
14.0
-0.33
11.0
19.33
16.33
11.33
6.67
7.67
12.67
13.67
6.67
1.0
-4.67
7.0
1.33
-10.33
-11.67
-4.67
-7.67
-6.33
-8.67
-4.0
-3.33
-3.33
-7.67
-13.0
-5.67
-8.67
-3.67
-3.0
-4.33
-9.33
-10.0
-0.33
-11.33
-12.33
-6.0
-8.67
-7.0
-0.67
-14.0
-13.33
-8.67
-2.0
-2.67
-5.33
-7.0
-3.0
4.0
-9.0
-11.67
-8.33
-3.33
-6.67
-5.67
-5.0
-1.67
-10.0
7.0
-13.33
-1.0
-12.33
-3.67
-6.67
-6.67
-5.67
4.33
-1.33
0.33
-1.33
-12.33
-2.33
-9.33
-7.0
-1.67
-8.33
-11.67
2.0
-9.33
-3.67
-11.33
-5.33
-18.0
-4.67
-5.33
1.67
-6.0
-3.33
-5.33
-9.67
-7.0
-6.67
4.33
9.0
-12.0
0.0
-7.0
-1.33
-5.0
-1.0
-3.67
-1.0
-0.33
5.33
0.0
-4.0
4.67
-3.0
-6.33
2.67
11.0
9.0
1.33
3.33
10.33
2.0
19.67
9.67
4.67
8.67
9.67
3.0
7.67
4.33
2.33
1.0
8.0
2.33
-1.0
-2.67
-4.0
2.33
4.67
1.33
-7.0
-1.0
10.33
2.33
9.67
-4.67
-4.67
-1.0
5.67
2.0
-4.67
10.33
0.0
2.33
1.33
-1.33
13.0
0.67
-7.0
5.0
2.33
-2.67
5.0
-3.33
2.33
0.0
-3.33
-6.67
8.0
2.33
5.0
3.67
-1.33
9.33
2.33
7.0
14.0
-3.33
19.67
21.0
2.67
14.0
4.67
3.0
-2.33
3.67
4.33
3.67
-2.0
13.0
12.33
4.33
4.0
7.33
3.67
2.0
6.67
3.33
5.33
4.67
11.0
3.33
6.0
5.33
5.67
7.0
14.33
8.67
1.67
-2.0
3.67
14.0
-0.33
9.67
8.67
2.67
4.67
6.67
7.33
7.0
2.0
7.33
6.67
1.67
3.67
6.0
6.67
7.33
6.33
8.0
6.33
13.0
11.0
12.67
9.67
13.33
-2.67
3.33
16.0
6.33
17.67
5.33
15.67
10.0
10.33
14.67
15.33
4.0
13.0
10.67
16.67
13.0
12.67
16.33
25.0
29.33
31.67
47.33
34.0
76.33
78.0
83.0
101.67
81.0
86.67
73.33
79.0
62.67
54.33
57.0
32.67
33.67
19.67
13.33
12.0
12.0
8.0
10.67
4.67
-1.67
3.0
1.33
18.67
9.33
2.0
7.67
5.67
-1.0
4.0
14.0
7.0
1.33
0.67
16.0
-1.0
2.67
-3.67
5.33
0.33
16.33
6.67
-5.33
11.0
1.33
7.0
2.0
1.67
-3.33
9.67
13.0
13.33
11.67
14.33
10.0
2.0
2.0
20.33
7.33
3.67
-2.67
20.67
15.67
14.33
10.67
18.67
-2.67
10.33
7.67
-0.33
4.33
6.67
7.67
11.0
4.0
-7.33
3.33
-5.67
-0.67
4.67
-4.0
2.0
-10.33
14.0
19.0
10.0
13.67
7.67
8.67
13.67
15.33
18.67
-6.67
-2.33
14.33
7.67
6.67
8.67
13.67
4.67
19.0
20.0
10.33
29.33
20.0
23.67
23.67
22.33
31.67
17.0
30.67
11.0
12.67
7.67
10.67
2.0
-0.67
13.0
9.67
4.67
8.67
6.67
-0.67
25.33
8.67
-6.33
5.0
6.0
5.0
-0.67
2.33
13.33
11.0
2.33
5.33
3.0
-0.33
16.67
8.0
2.0
10.0
4.67
23.67
11.0
5.33
7.67
6.67
13.67
11.67
7.33
15.0
12.0
10.0
27.67
2.0
0.67
-9.33
0.0
0.33
6.33
-6.33
-5.67
-7.0
3.0
2.0
5.0
4.0
14.33
13.0
-8.67
2.33
21.0
14.0
5.67
7.0
12.0
13.33
-3.67
2.67
19.0
-0.33
8.67
10.33
1.67
4.33
8.33
-3.67
-0.67
-8.33
4.67
3.0
0.33
-2.33
4.0
-2.33
-2.33
-3.0
-11.0
-2.0
-2.67
7.67
-2.67
-0.67
8.33
0.67
4.0
-0.33
-2.0
-8.67
11.33
10.0
3.67
5.33
10.0
6.33
-2.67
-2.33
3.67
14.0
1.67
0.0
9.0
0.0
1.0
-3.67
7.33
4.33
12.0
7.0
6.33
8.0
2.33
3.0
0.67
8.33
-8.33
4.33
6.0
-1.67
3.0
0.67
3.67
0.67
8.67
0.33
7.67
5.67
-1.0
10.0
11.0
2.33
3.33
-2.33
-0.33
4.67
0.67
0.67
1.0
7.67
-4.33
6.67
6.33
-3.67
-4.0
-1.67
-6.0
0.33
3.0
-3.33
7.0
0.0
0.67
10.0
10.67
4.67
-0.67
6.33
-1.33
-1.67
1.67
-3.0
-2.67
-4.0
11.33
9.33
-2.0
11.67
0.67
0.0
1.67
1.67
9.33
3.0
3.67
6.67
5.33
6.0
-1.33
1.0
11.33
5.67
-1.67
3.67
12.0
-2.0
-0.33
8.0
1.0
-1.0
4.0
-3.67
-3.33
0.33
-4.0
-0.33
11.67
-0.67
0.33
1.67
-1.33
1.67
-0.33
0.0
0.33
4.67
7.67
5.67
0.0
-3.67
4.67
6.0
0.0
-1.0
3.67
8.33
-4.33
-0.33
7.33
-2.33
3.67
-3.0
4.33
4.0
1.33
1.33
5.67
5.67
1.33
2.0
1.33
-0.33
3.0
1.67
-1.0
-4.67
1.0
-0.67
1.0
1.33
3.67
-3.67
-2.67
3.33
1.0
3.67
-1.67
-1.0
-1.67
11.0
-1.0
3.67