File: EDX Back Ups and Old Files/Spectra copy 3.3.23/Samples/High pH SF 60C 14d/8.25.txt
0.0
55.33
73.0
74.0
95.33
2.33
52.0
23.0
-8.67
-17.67
-29.33
16.67
-2.67
14.0
-10.33
1.67
-0.33
0.67
3.67
2.33
1.0
-1.67
-0.33
2.0
0.0
0.67
-0.33
0.67
-0.67
-0.33
1.33
-0.33
1.0
1.0
0.0
2.0
-0.67
0.0
0.0
1.33
-0.67
0.0
-0.67
1.67
-1.33
-0.67
0.67
0.33
-0.33
0.67
-1.33
0.33
-0.33
1.0
-1.33
-2.0
-2.0
3.0
2.33
1.0
1.67
-1.33
-2.33
1.33
1.67
2.67
-3.0
-1.67
6.33
0.33
-1.33
4.0
1.0
-1.0
4.0
4.33
6.0
0.0
-4.33
2.67
5.67
-2.67
1.67
1.33
-0.33
2.67
0.33
-7.33
2.67
-4.33
2.67
-0.33
-2.0
0.0
0.0
-2.67
7.0
-2.67
2.67
4.67
0.0
8.67
1.67
2.0
7.67
2.67
1.67
2.0
-3.0
-0.67
3.0
2.67
3.0
-4.0
1.33
6.0
2.67
3.33
-1.67
1.33
-1.0
8.0
8.0
4.33
-5.67
-3.33
3.33
-4.33
10.33
0.67
5.67
1.33
-4.0
-0.33
6.67
-0.33
8.67
15.33
4.67
0.33
10.67
5.67
2.33
0.0
-3.33
2.67
1.67
7.0
-3.0
2.0
1.67
3.33
6.33
5.33
11.0
4.0
5.33
3.33
3.33
-1.0
-4.33
5.33
1.67
5.33
4.0
6.33
-2.67
2.67
-4.0
5.67
-2.0
6.0
2.33
10.33
8.0
7.0
11.67
-3.0
2.0
-1.67
-1.67
5.33
7.33
-2.67
2.67
-3.0
2.67
-1.33
-5.0
3.33
-3.0
4.67
4.0
-5.67
-0.33
4.0
3.0
1.33
-1.0
9.0
4.67
4.0
3.33
11.0
7.33
-4.0
-1.33
-0.67
-1.0
5.33
-1.33
0.33
2.67
-0.67
2.0
-1.33
-0.33
2.67
-2.67
5.33
-0.33
-3.67
-1.0
0.0
8.0
0.33
0.0
-4.33
-2.67
2.0
2.67
-4.67
3.0
-1.33
1.0
-2.33
5.0
0.0
1.0
2.0
0.33
-1.0
2.33
0.67
0.33
2.0
6.33
-2.67
-3.0
-3.0
-2.0
3.0
-0.33
-3.33
0.67
1.67
5.33
-2.33
-1.67
-2.33
1.33
-3.0
6.0
-5.0
-1.33
1.67
-1.33
1.67
6.33
0.67
-0.67
-0.33
-0.67
0.33
3.33
-0.67
1.67
0.33
5.67
2.67
0.33
-0.67
-1.33
-1.33
-1.0
0.33
1.0
0.67
0.0
3.67
0.0
-2.33
-1.0
2.0
0.67
-4.0
3.0
0.33
-1.33
4.33
0.33
5.0
-5.0
4.33
1.0
0.67
1.0
-1.33
1.33
-4.0
-1.33
-1.67
5.0
2.67
0.0
-6.0
-2.67
0.67
-1.33
0.67
-1.0
-3.67
-2.33
-2.67
2.0
-0.67
-6.33
3.67
-1.0
1.67
1.67
0.0
-5.33
-8.33
0.33
-1.33
-2.33
-1.67
-5.67
-1.67
-7.33
-3.0
-0.33
-0.33
-4.0
-5.0
-7.67
-5.33
5.33
-5.33
-3.0
-0.33
-2.67
-2.67
2.33
-4.67
1.33
-0.33
-3.67
-1.33
-6.67
-3.33
0.67
-0.33
-9.0
-1.33
3.33
-6.67
-3.0
-7.0
-8.0
-2.33
-1.67
-5.33
-5.0
-7.67
-0.33
-4.33
-1.33
-2.33
-5.33
1.0
-2.0
-5.33
-9.33
-5.33
-7.0
-5.67
-4.0
-5.33
-6.33
-4.67
-10.33
0.67
-4.0
-0.33
-3.67
10.0
-2.67
-9.33
12.33
-1.0
0.67
5.0
17.33
23.33
14.33
23.67
13.67
7.67
13.67
-1.33
4.0
-6.67
2.0
3.33
-10.33
-9.67
1.33
-4.67
-6.33
-2.67
-10.0
-7.33
-5.33
-8.67
-9.0
-11.67
-5.67
-1.67
2.0
-2.33
-16.33
-10.0
-1.33
-7.33
-10.33
-10.0
-13.67
-10.0
-7.67
-12.0
-14.33
-5.67
-12.0
-4.67
2.67
-4.0
2.0
-4.0
-9.0
0.33
-12.33
-1.33
-8.67
-8.67
-7.0
1.33
1.0
-6.0
-6.33
-2.0
-4.33
-1.67
-3.67
4.33
-7.67
-0.67
-0.33
5.33
-2.33
-5.33
-6.33
-0.33
-8.0
-4.67
-13.33
-11.67
-4.0
-4.33
-1.67
-5.33
-7.33
-10.0
-7.67
-3.33
-5.33
0.0
5.67
0.67
-1.67
-7.0
1.33
0.33
-7.0
-7.0
3.0
-2.0
-1.33
5.0
0.0
-5.67
-3.0
5.67
-1.67
-1.0
-5.0
-3.33
-6.0
2.67
2.67
3.0
9.0
9.33
9.33
15.33
3.0
20.67
17.67
18.67
21.67
13.67
3.0
1.67
7.33
7.33
-5.0
-11.0
-2.67
-2.0
-10.67
-3.0
0.33
0.67
-9.67
4.0
-5.0
-3.67
2.33
-4.33
-1.67
-0.67
9.0
3.67
11.0
9.33
6.33
2.0
9.33
-0.67
0.67
1.0
6.67
8.0
2.0
4.33
2.33
3.0
1.67
4.33
3.0
-4.33
0.33
5.0
4.33
4.0
5.67
3.67
8.33
2.33
1.0
20.0
9.67
0.67
-1.0
6.67
2.0
6.67
9.0
4.67
11.67
3.33
13.67
9.0
12.0
10.33
11.33
11.0
15.33
12.67
11.0
9.67
2.33
9.33
8.67
13.0
6.33
14.0
11.33
-3.33
6.0
-5.67
0.67
1.67
7.0
10.67
0.0
11.67
12.67
1.67
9.67
10.67
12.67
12.33
3.0
1.0
1.33
7.67
14.67
-1.33
5.0
2.67
14.33
11.33
8.0
8.33
10.0
2.0
11.67
3.67
-0.67
9.33
13.33
6.0
2.33
9.67
9.33
11.67
2.0
2.33
6.67
10.33
12.0
16.0
16.67
13.67
25.0
8.67
27.33
44.0
37.33
55.67
63.33
78.0
76.33
83.0
82.0
92.67
113.0
93.67
99.33
95.0
77.67
69.33
68.0
47.67
36.67
22.67
28.33
15.0
11.0
22.0
19.67
0.67
-1.67
14.0
1.33
8.67
10.33
2.0
-1.33
4.67
4.0
16.0
3.0
16.0
0.33
-5.33
17.0
1.0
-3.33
-6.67
12.33
3.33
12.33
5.67
5.67
13.0
12.33
0.0
3.0
-4.33
5.67
8.67
12.0
1.33
6.67
10.33
7.0
5.0
7.0
9.33
15.33
-1.33
8.33
3.67
11.67
10.33
8.67
-2.33
7.33
16.33
2.67
8.67
7.33
13.67
21.67
7.0
5.0
1.67
5.33
5.33
-4.67
5.67
13.0
-3.0
-3.33
2.0
18.0
6.0
11.67
8.67
2.67
3.67
10.33
-0.33
2.33
4.67
13.33
11.67
-1.33
2.67
23.67
15.67
29.0
16.0
20.33
33.33
23.0
3.67
20.67
20.33
29.67
29.0
19.67
18.0
32.67
26.67
8.67
13.0
9.33
24.0
8.67
11.67
3.67
7.67
9.33
11.33
4.67
5.67
9.0
6.0
-3.0
18.33
-0.67
0.33
13.0
7.33
5.33
4.0
9.67
-6.33
-4.0
7.0
7.0
11.67
3.67
6.0
0.33
9.67
4.67
14.67
14.67
11.33
15.0
0.0
14.0
20.67
2.0
-4.33
12.67
4.0
-9.67
0.33
6.67
0.33
0.0
2.0
-7.0
4.0
-1.0
-2.67
7.0
-3.67
0.33
10.0
-3.0
3.67
0.0
0.0
-5.67
1.33
-0.33
10.0
1.67
8.67
0.33
0.67
5.33
-8.67
3.33
2.33
-1.33
8.67
4.0
-5.67
-1.33
0.0
-7.33
-4.33
-5.0
10.0
11.0
5.33
0.67
4.33
7.33
4.33
0.67
0.0
1.67
-3.0
-4.67
11.33
5.0
-0.33
13.33
2.0
0.33
11.33
-2.33
-3.33
3.0
7.67
2.0
8.0
8.0
4.0
0.33
11.33
7.33
-4.0
-5.0
2.33
2.0
5.33
11.0
9.67
3.33
2.67
7.33
4.0
6.33
5.0
-4.33
4.67
3.67
-1.33
11.33
1.67
2.67
4.0
4.0
-7.0
-2.67
0.33
8.67
0.67
1.67
1.67
2.67
-5.0
8.67
6.67
8.67
-4.67
0.33
-4.0
-1.67
5.0
6.33
-2.0
-7.33
0.0
8.0
-1.33
0.0
4.67
0.67
1.33
-4.67
2.67
0.33
-0.33
0.0
-1.67
6.0
5.33
5.33
2.0
4.67
-1.33
0.0
8.67
-0.33
7.33
7.0
-6.33
-0.33
-0.67
9.0
9.67
10.0
3.33
5.67
7.33
8.67
7.0
1.0
3.67
14.0
-4.0
8.0
3.0
-1.67
3.67
2.33
0.0
-0.33
-1.33
2.33
4.33
2.67
-2.33
3.67
5.67
2.0
-3.67
3.67
4.67
1.67
5.0
1.33
11.67
0.0
1.0
3.0
0.67
-1.67
1.67
5.67
-3.67
-4.33
0.67
2.0
0.33
0.0
3.33
1.33
2.67
3.67
-3.67
4.0
1.33
-1.33
-4.0
5.67
-2.0
2.33
-3.0
-0.67
0.0
2.33
7.67
0.33
3.33
-1.67
-3.0
3.67
-6.67
6.0
-0.67
2.0
0.0
2.67