File: EDX Back Ups and Old Files/Spectra copy 3.3.23/Samples/High pH SF 60C 14d/9.25.txt
0.0
70.33
33.0
148.0
124.33
42.33
49.0
14.0
-52.67
-21.67
-42.33
11.67
-10.67
23.0
6.67
8.67
4.67
3.67
-0.33
2.33
2.0
-1.67
-0.33
1.0
1.0
-0.33
0.67
-0.33
1.33
-1.33
0.33
-0.33
1.0
0.0
0.0
0.0
-0.67
0.0
0.0
0.33
0.33
1.0
-0.67
0.67
-1.33
1.33
0.67
0.33
0.67
0.67
-0.33
2.33
0.67
-2.0
-0.33
-2.0
-1.0
7.0
-0.67
1.0
0.67
0.67
3.67
1.33
1.67
0.67
-6.0
0.33
2.33
-1.67
5.67
1.0
6.0
3.0
0.0
7.33
-1.0
6.0
1.67
-2.33
-1.33
-0.67
0.67
3.33
4.67
0.67
1.33
-0.33
-2.33
-2.33
1.67
4.67
-1.0
-1.0
-3.0
3.33
-3.0
1.33
2.67
0.67
4.0
2.67
0.67
-1.0
1.67
-1.33
5.67
-1.0
-2.0
5.33
1.0
0.67
2.0
-7.0
-1.67
5.0
0.67
-8.67
-1.67
2.33
-1.0
13.0
7.0
5.33
0.33
8.67
6.33
0.67
0.33
3.67
8.67
3.33
-5.0
3.67
-1.33
-4.33
-0.33
-1.67
1.67
7.33
6.67
5.67
1.33
-3.0
6.67
-1.33
-1.33
7.0
-4.0
3.0
2.67
2.33
9.33
1.33
3.0
1.0
-3.67
3.33
0.33
-5.0
0.67
11.33
8.67
3.33
0.0
10.33
2.33
0.67
5.0
-0.33
6.0
2.0
2.33
9.33
2.0
9.0
4.67
-1.0
2.0
-0.67
-1.67
0.33
1.33
-3.67
3.67
0.0
2.67
2.67
-4.0
-2.67
5.0
6.67
4.0
4.33
-0.33
7.0
5.0
10.33
-3.0
4.0
2.67
3.0
1.33
0.0
7.33
2.0
3.67
-1.67
1.0
2.33
-2.33
1.33
-3.33
-3.67
1.0
-2.33
-0.33
-1.33
1.33
-0.67
-2.33
-0.67
2.0
1.0
2.0
2.33
-2.0
-3.33
2.33
0.0
-0.33
-0.67
3.0
1.67
6.0
0.67
-1.0
-1.0
-1.0
2.0
-2.67
6.0
1.33
-2.33
3.33
1.0
1.33
-1.67
-1.0
0.0
0.0
4.0
3.67
-1.33
-0.33
2.67
-2.67
2.67
3.33
-1.33
-0.67
0.0
0.0
1.0
-0.33
-2.33
2.67
1.67
3.33
2.67
2.33
-3.33
-6.67
-0.67
-2.67
3.33
1.67
3.33
1.67
-0.33
2.33
-0.67
-1.33
0.67
3.0
0.33
2.0
0.67
-3.0
-2.33
-2.0
1.67
-1.0
3.0
1.67
-1.0
-2.0
5.33
-0.33
3.33
-3.67
3.0
-3.0
-0.67
-2.0
-4.33
-3.0
-5.33
3.33
0.0
-1.33
0.33
1.0
3.67
3.0
-2.0
-3.67
6.67
-0.33
0.67
-4.0
-0.67
-1.33
-1.67
0.0
1.33
-3.33
2.67
-2.0
-2.33
-2.33
2.0
-4.33
-3.33
-0.67
-0.33
-1.33
3.33
0.33
-3.67
-7.33
-5.0
3.67
-4.33
-3.0
-3.0
-4.67
-0.33
-0.67
-2.33
-2.0
-4.33
-4.67
-4.67
3.33
0.33
-5.67
-0.33
-3.67
-4.33
-5.67
-6.33
-6.33
8.67
-9.0
-4.33
-7.67
0.33
-8.0
-7.0
-8.0
0.67
-2.67
-2.33
-1.0
-2.67
1.67
-1.33
-5.33
-7.33
-3.33
-6.0
-1.0
-9.33
-10.33
-1.33
-12.0
-4.67
-3.0
0.67
-8.33
-7.67
-7.33
-4.33
-3.0
-2.33
-0.67
6.0
-3.67
-5.33
-2.67
1.0
-0.33
8.0
13.33
17.33
14.33
2.67
20.67
5.67
7.67
8.67
-2.0
0.33
5.0
-3.67
-13.33
-7.67
1.33
-3.67
-5.33
-5.67
-2.0
-4.33
-5.33
-1.67
-8.0
-5.67
-2.67
-3.67
-2.0
2.67
-10.33
-5.0
-2.33
1.67
-12.33
-6.0
-12.67
-16.0
-2.67
-15.0
-8.33
-7.67
-7.0
-5.67
-3.33
-6.0
2.0
-6.0
-5.0
-11.67
-8.33
-6.33
-7.67
-1.67
-7.0
-4.67
0.0
-4.0
-5.33
-6.0
-15.33
-0.67
-0.67
-9.67
-4.67
1.33
-4.33
7.33
-2.33
-8.33
-0.33
-11.33
1.0
1.33
-12.33
-5.67
0.0
-15.33
1.33
-9.33
-3.33
-6.0
-7.67
-0.33
-7.33
-1.0
-3.33
-6.33
-0.67
-5.0
4.33
-5.67
-7.0
-5.0
5.0
0.0
-5.33
6.0
-1.0
-7.67
-2.0
1.67
-4.67
-1.0
6.0
4.67
-2.0
-5.33
-7.33
12.0
3.0
3.33
10.33
15.33
18.0
13.67
18.67
11.67
12.67
11.67
15.0
2.67
3.33
3.33
8.0
-2.0
3.33
1.0
-6.67
-5.0
5.33
8.67
8.33
-4.0
0.0
2.33
-3.67
-0.33
0.33
5.33
-1.0
-0.33
-9.0
-3.67
3.33
4.0
1.33
-3.67
-6.33
5.0
-2.33
0.0
-5.0
10.33
3.33
-3.0
5.67
1.33
-1.0
-2.33
-4.67
0.0
1.33
2.0
2.67
-3.33
6.33
10.33
4.0
1.0
-8.33
13.67
-3.0
0.67
18.0
-4.33
5.0
-1.33
2.67
1.33
11.67
0.0
6.0
2.33
7.33
12.0
16.33
10.67
8.0
5.67
6.33
7.33
6.67
11.0
7.33
4.0
7.33
14.67
9.0
4.33
6.67
7.67
2.0
4.67
12.0
13.67
5.67
0.67
1.67
6.67
11.67
-1.67
1.0
3.0
9.33
6.67
5.67
8.67
6.0
15.67
14.33
20.33
3.0
4.33
9.0
10.0
10.67
4.67
6.33
5.33
5.33
12.0
-1.67
13.67
15.33
22.67
6.0
14.33
7.67
9.33
-6.0
-4.0
10.67
19.67
24.0
10.67
14.33
25.0
38.33
54.67
77.33
91.0
83.33
111.0
109.0
113.67
114.0
114.67
137.33
115.0
100.67
80.33
73.0
58.67
30.67
27.67
23.33
19.0
13.0
24.0
9.67
5.67
1.33
7.0
2.33
14.67
10.33
2.0
7.67
10.67
13.0
-4.0
1.0
-4.0
2.33
4.67
3.0
-6.0
-1.33
2.33
16.33
1.33
12.33
9.67
2.67
7.0
-0.67
-9.0
5.0
3.67
-1.33
-4.33
19.0
24.33
-3.33
10.33
4.0
11.0
14.0
9.33
10.33
10.67
-3.67
7.67
9.67
11.33
10.67
9.67
5.33
12.33
9.67
2.67
14.33
12.67
7.67
4.0
7.0
13.67
12.33
2.33
8.33
4.67
0.0
-6.0
1.67
7.0
14.0
17.0
17.67
10.67
4.67
2.67
0.33
11.67
-0.67
4.67
4.33
-0.33
4.67
4.67
11.67
20.67
22.0
13.0
9.33
28.33
8.0
19.67
24.67
22.33
31.67
37.0
3.67
37.0
21.67
7.67
11.67
11.0
4.33
3.0
6.67
0.67
-2.33
3.67
17.33
7.33
14.67
-6.33
-7.0
16.0
5.0
21.33
-0.67
-3.67
10.0
9.33
5.33
5.0
2.67
2.67
12.0
8.0
3.0
4.67
4.67
17.0
13.33
23.67
13.67
16.67
15.67
11.33
11.0
13.0
10.0
9.67
15.0
2.67
-3.33
-3.0
8.33
13.33
-1.33
2.33
-7.0
9.0
-11.0
-6.0
5.0
-1.67
7.0
-2.67
-2.67
-1.0
7.0
-0.33
0.0
3.0
-2.67
-4.67
3.67
17.0
-0.33
2.67
-1.67
-10.33
-5.67
1.33
-9.67
7.33
-4.33
0.67
2.0
-9.67
-3.33
4.0
-2.33
1.67
1.0
3.0
2.0
-0.67
0.67
0.33
5.33
3.33
-0.33
4.0
-12.33
1.0
5.33
2.33
11.0
1.67
2.33
2.0
4.33
11.33
-6.33
1.67
2.0
10.67
1.0
6.0
-4.0
4.0
2.33
7.33
12.33
0.0
8.0
5.33
5.0
-0.67
1.0
-8.33
9.33
-7.33
1.33
5.0
5.33
-4.0
-3.33
-1.33
2.67
2.67
5.33
1.67
-3.33
-5.0
10.0
1.0
-6.67
7.33
9.67
-6.33
10.67
-7.33
-0.33
-2.0
-3.33
11.67
-0.33
6.33
12.33
-3.0
-2.67
-2.0
2.33
3.0
-1.33
3.0
3.0
-7.33
6.0
0.67
3.67
6.33
-3.67
-6.33
-2.67
9.67
-4.0
-0.67
1.0
3.33
-2.67
-2.0
5.67
9.67
3.0
8.67
3.67
2.33
8.0
1.67
3.67
6.33
-2.0
3.67
8.0
9.33
1.67
7.33
4.67
-2.0
-1.0
-1.33
0.0
2.0
-2.0
-1.0
-1.67
-2.33
0.33
0.0
4.67
5.67
4.33
4.33
-6.33
0.67
-4.33
5.67
-2.0
-2.67
0.67
2.67
2.67
-2.0
2.33
2.67
-4.0
2.0
1.0
7.67
4.33
2.67
4.67
-5.67
-1.33
-2.33
2.0
2.33
4.0
4.33
4.33
-2.33
-2.33
-8.67
1.0
-3.67
-2.33
6.0
4.67
-1.0
0.33
1.0
-0.67
0.0
-1.67
8.67
-1.67
-2.67
-6.67
-1.0
10.67
-1.67
-2.0
4.33
3.0
4.0
-0.33