File: EDX Back Ups and Old Files/Spectra copy 3.3.23/Samples/High pH SF 60C 6d/10.5.txt
0.0
-10.0
14.0
-91.67
-13.33
-43.0
34.0
23.33
27.33
4.33
23.33
31.0
-4.67
0.33
3.33
6.0
1.67
-5.67
1.33
-1.67
0.33
-0.67
-1.0
0.0
-0.33
-0.33
0.33
0.0
0.0
-0.33
-1.0
-0.67
-0.33
0.67
0.0
1.0
-1.0
0.0
-0.33
-0.67
0.67
-0.33
-0.33
1.33
-0.33
0.67
-1.33
-0.67
0.0
2.67
-2.0
-0.67
-0.33
-0.33
2.33
0.33
3.0
-1.0
4.67
3.33
-3.0
1.33
1.0
0.67
-0.33
-0.67
0.0
4.0
4.0
-0.33
-4.0
10.33
-3.33
1.67
6.33
3.0
0.67
4.33
-1.33
0.33
2.0
-0.33
-4.0
1.0
-1.33
-2.0
5.33
0.33
2.33
-6.67
-4.33
12.67
1.0
-0.67
8.33
1.0
2.0
4.67
-3.0
5.33
-3.33
1.33
0.0
-1.33
-5.0
-0.67
9.33
-1.33
10.0
7.33
-3.67
-0.33
0.67
6.67
1.67
3.33
6.67
6.0
-2.33
9.0
3.0
3.0
3.33
2.67
8.0
-5.67
-1.33
-2.0
2.0
0.67
-0.33
3.67
4.0
5.33
-0.67
0.0
4.33
-0.67
6.33
4.67
-1.33
-1.33
2.33
1.67
-1.33
-5.33
1.0
-1.0
1.0
1.33
1.67
2.0
3.0
8.33
1.0
-0.33
-1.33
0.33
-4.0
2.33
1.33
8.0
2.0
-2.33
1.33
2.0
-4.33
2.0
1.33
5.0
3.33
-1.0
2.67
-0.33
0.33
-0.67
0.0
-2.33
2.33
-0.67
-2.0
2.0
0.33
-2.0
-0.33
2.0
-3.0
4.33
-4.0
-2.33
9.0
-3.0
11.0
3.0
-0.33
-2.0
6.0
0.0
1.0
4.0
-0.33
0.67
2.67
0.0
-1.67
3.33
-1.0
-0.33
3.67
6.33
0.67
0.67
-0.33
3.0
-1.67
-2.0
7.33
1.0
2.33
-0.67
-4.33
-1.33
3.67
1.67
-1.67
-1.0
-2.0
-1.67
-3.67
-2.33
1.67
1.33
2.67
1.0
3.0
3.33
2.33
-0.33
-3.0
-0.33
1.33
0.67
4.33
-2.33
1.33
3.33
1.67
-2.0
0.67
-4.67
-3.33
1.67
-6.0
1.33
-5.33
-0.33
-3.67
1.67
8.67
-5.67
2.33
-1.0
1.67
-0.33
3.33
8.67
-1.67
9.0
-2.67
1.33
1.33
-1.67
1.33
2.0
2.33
2.33
2.67
2.33
-1.33
5.33
3.0
-0.67
3.0
1.0
4.0
3.0
-1.67
5.0
2.33
-0.33
0.0
-4.67
2.0
2.33
-2.0
3.0
3.0
2.0
2.67
-0.67
3.0
-3.0
-2.0
-1.0
1.33
1.0
1.0
0.0
-0.67
-2.0
-1.67
-2.33
-2.33
-3.0
-4.0
1.0
-4.0
0.33
-4.0
-2.0
2.67
-1.0
-3.33
5.33
-3.67
-3.0
1.33
1.0
-2.0
-0.67
-2.33
-3.0
-2.0
2.0
-0.67
1.0
-4.0
-4.33
-4.67
-6.67
-5.33
-3.0
-3.0
-0.67
0.33
-6.67
-4.67
-2.67
-4.0
0.33
-6.33
-7.0
-1.67
-3.0
-0.67
-8.0
0.33
-1.0
-5.67
-2.0
-14.0
-7.33
-2.67
-3.67
-8.67
-6.67
-7.67
-8.0
0.67
-2.33
-3.33
-1.0
-1.67
-1.33
-4.33
0.67
-0.33
-2.33
-7.67
-4.0
-3.67
-3.67
-3.0
-6.0
-4.0
1.0
2.0
-3.33
-2.0
-2.67
-8.67
-5.0
-11.33
-4.33
-7.33
-2.0
-8.33
-9.33
6.0
10.0
-5.0
-3.33
-3.0
3.67
9.0
-6.0
2.0
10.0
3.33
8.0
0.0
1.67
-4.67
-4.33
2.0
-0.33
-2.33
-7.0
-3.33
-7.33
-10.0
-9.67
3.0
2.0
-2.67
3.33
-4.67
-2.33
-1.0
-8.67
-9.33
-1.33
4.0
4.0
-5.33
-12.0
-7.33
-1.67
-11.0
-0.67
-6.33
10.0
-5.33
-1.67
-7.33
0.0
-5.67
-5.67
-1.0
7.0
-13.33
-9.67
4.67
-7.0
-5.33
-0.67
-10.67
-1.0
-4.67
-6.33
-6.0
-6.33
-10.33
-12.67
-4.0
-11.0
-8.67
-3.67
3.0
5.67
4.0
-2.0
-4.33
-0.33
-1.0
-3.67
1.33
-4.67
-4.0
-0.67
-7.67
-8.67
0.0
-5.67
-8.33
-5.67
-5.0
-7.67
-4.67
-3.67
-9.0
-4.33
-8.0
-3.67
3.33
-5.33
1.33
-6.33
4.0
0.33
-2.67
-7.67
1.0
-4.0
-6.67
-7.0
-1.0
-1.33
-3.33
-4.0
4.0
2.67
1.0
9.67
32.67
26.67
19.33
24.33
25.67
22.33
31.67
10.67
20.0
19.33
11.67
6.67
4.67
10.0
-7.33
0.67
-2.0
-2.0
3.0
5.0
5.33
-2.0
1.67
-6.67
0.33
-3.33
2.33
-9.33
0.0
-6.0
2.67
6.67
-4.33
-2.67
1.0
6.33
3.67
11.67
-3.0
2.33
6.0
5.0
-0.67
2.0
5.33
2.0
-1.67
1.33
8.0
-3.0
7.67
1.0
8.0
4.33
-1.67
2.0
7.0
0.33
4.0
12.33
-4.67
8.33
17.0
-1.67
0.33
8.67
9.67
6.0
-0.33
1.67
0.33
-8.0
6.33
-1.67
-2.67
9.67
13.67
15.0
19.0
13.33
3.33
-0.67
3.33
3.0
0.33
-3.67
0.33
-2.33
3.0
5.67
-3.33
-1.67
7.67
0.0
5.33
9.67
2.0
6.33
13.67
10.33
1.0
1.33
6.33
2.67
10.0
-4.67
8.0
1.67
-2.67
4.67
14.0
9.0
-3.67
4.33
9.0
5.67
-4.33
7.33
5.33
1.67
1.67
10.67
11.33
5.0
5.33
8.0
7.67
4.33
4.0
13.33
11.33
21.0
25.0
41.33
41.67
39.0
63.0
78.33
113.67
111.67
128.0
143.33
178.0
183.0
168.0
165.67
154.33
142.0
107.67
107.0
75.33
59.67
40.67
33.67
39.33
7.0
11.67
-5.0
16.67
10.0
19.0
6.33
0.0
7.67
-1.67
4.0
11.0
8.67
0.0
21.33
6.67
9.0
-11.33
11.67
5.33
15.67
-4.0
2.33
7.33
16.0
9.0
8.0
7.67
9.33
7.33
7.33
15.0
16.33
7.33
10.0
9.67
-1.67
18.33
4.67
13.0
7.0
5.67
12.33
5.67
5.67
8.0
15.33
7.33
9.0
12.67
-4.67
11.33
6.67
12.0
-5.67
-4.0
6.33
4.67
4.67
5.67
3.33
16.33
5.0
-1.0
-1.67
-6.0
11.33
6.67
0.67
2.67
17.33
-4.33
1.0
8.0
7.33
-5.33
5.33
-0.67
9.0
10.33
15.0
-3.0
-2.0
3.33
1.0
15.0
1.0
0.67
17.33
10.33
10.33
8.33
5.67
1.0
5.67
21.67
13.33
3.0
2.33
7.0
5.33
19.33
1.33
10.0
0.0
1.67
-2.33
2.33
-8.0
8.33
7.0
1.0
-1.33
5.33
14.67
6.0
-0.33
-5.67
14.33
4.33
1.67
9.67
4.33
15.33
-3.0
-4.0
3.33
8.0
12.0
21.0
5.0
8.0
0.0
-2.0
6.33
12.67
18.33
3.0
4.67
-1.0
7.33
27.33
2.67
4.0
-6.33
18.67
11.33
-0.67
6.0
0.67
-1.0
8.67
-11.33
4.33
-6.33
2.67
5.33
6.33
1.67
1.33
-7.0
5.33
-6.0
-6.33
7.67
-0.67
3.0
-4.33
-1.0
-1.67
7.0
6.33
-3.33
-0.33
4.0
9.0
11.0
-1.67
-3.67
0.33
0.0
15.0
-4.0
5.67
-10.0
9.33
3.33
2.33
-1.67
-1.33
4.0
-6.67
2.67
-11.33
0.67
0.33
-2.67
8.67
0.33
9.67
8.33
11.33
12.67
0.0
16.33
3.0
-1.67
15.33
-0.67
2.33
4.33
8.67
-2.0
2.67
-6.0
14.0
2.33
-2.67
4.0
9.0
13.67
-2.0
-0.33
-1.33
-4.33
2.33
0.0
8.33
10.33
3.33
1.67
-3.0
1.33
-3.33
-4.67
0.67
-4.0
3.0
4.0
3.67
5.0
-0.67
-4.33
-4.0
-6.33
1.0
7.0
4.67
4.33
1.67
0.67
-5.67
0.0
-2.67
-4.0
4.0
-3.33
-2.33
-4.67
-4.0
-6.67
6.33
0.33
2.0
-2.0
1.0
-3.67
4.0
5.0
3.0
4.67
-5.33
-1.33
-2.67
2.67
10.67
-1.0
6.0
-0.33
5.0
8.33
2.33
3.33
1.0
7.0
1.67
-0.33
0.0
0.33
3.0
1.67
8.33
-3.0
4.33
7.33
12.0
3.67
-5.0
1.0
5.33
5.67
-1.0
-3.33
-1.33
-1.33
3.67
-1.0
1.67
-3.67
1.33
6.33
3.0
-4.33
-4.33
-1.33
-3.33
4.67
-1.33
-3.33
-0.33
5.67
2.0
-3.33
2.67
4.33
5.67
1.67
3.67
1.67
-3.33
-2.67
-2.33
-1.0
-0.67
3.33
3.67
2.67
5.33
-3.0
-7.33
-2.33
3.67
4.67
5.33
7.67
0.0
-2.67
2.67
4.67
2.67
1.0
0.33
6.0
-4.0
-0.33
-0.33