File: EDX Back Ups and Old Files/Spectra copy 3.3.23/Samples/High pH SF 60C 6d/10.75.txt
0.0
-25.0
-29.0
-11.67
-21.33
41.0
103.0
67.33
-9.67
-2.67
-4.67
-3.0
5.33
13.33
9.33
-3.0
-1.33
0.33
0.33
0.33
1.33
0.33
-1.0
-1.0
1.67
0.67
-0.67
0.0
1.0
0.67
-1.0
-0.67
-0.33
-0.33
0.0
0.0
0.0
0.0
-0.33
-0.67
-0.33
-0.33
0.67
0.33
0.67
-0.33
-1.33
0.33
-1.0
0.67
0.0
1.33
-0.33
0.67
1.33
-0.67
1.0
2.0
-0.33
0.33
-1.0
2.33
5.0
-3.33
-3.33
3.33
2.0
0.0
-4.0
-1.33
1.0
-1.67
-1.33
-3.33
-1.67
3.0
-0.33
-1.67
-1.33
0.33
-1.0
0.67
-1.0
5.0
5.67
4.0
-1.67
1.33
-3.67
-1.67
1.67
4.67
3.0
1.33
0.33
-1.0
0.0
0.67
2.0
1.33
2.67
4.33
4.0
-0.33
-4.0
11.33
-3.67
-6.33
-1.0
5.33
-2.67
-1.33
5.67
-0.33
-2.33
3.33
-2.33
8.0
4.67
4.0
1.0
5.0
-0.67
0.67
4.0
-9.67
1.67
-3.0
0.0
-4.33
2.67
-3.33
-1.0
4.33
-5.67
1.0
1.33
2.33
0.33
1.67
9.67
-6.33
3.33
7.67
6.67
-0.33
-1.0
-3.0
0.0
2.33
-1.33
0.0
4.0
4.33
-4.0
-5.33
2.67
-2.67
-1.0
-1.67
-0.67
9.0
-2.0
4.67
0.33
0.0
1.67
3.0
3.33
-1.0
0.33
8.0
4.67
-4.33
1.33
1.33
0.0
-0.33
1.33
-1.67
1.0
1.0
-0.67
3.0
-5.33
3.0
1.0
2.33
6.0
7.67
-3.0
6.0
3.0
1.0
3.67
1.0
-1.0
3.0
-8.0
-1.0
3.67
-6.33
0.67
-1.0
-1.67
-0.67
0.0
2.67
0.67
0.33
-2.33
-2.33
-3.33
2.0
-1.67
6.0
-1.67
4.0
-3.67
7.33
-2.33
-0.33
-2.33
5.67
0.33
-3.0
2.0
7.33
-1.67
-2.33
4.67
-0.67
-0.33
-3.0
3.0
-0.67
-2.67
2.67
4.0
0.67
-0.67
2.67
7.33
-0.33
1.33
-4.67
6.67
1.0
2.67
0.33
-3.33
2.67
-6.0
3.33
-5.33
-1.33
0.33
-1.33
4.67
-2.67
0.33
0.0
0.67
2.67
5.33
1.67
-4.67
4.0
0.33
-1.67
-2.67
-0.67
7.33
-2.0
1.33
-0.67
-0.33
1.33
-0.33
4.33
-1.0
-1.67
0.0
-2.0
3.0
0.0
-2.67
3.0
-0.67
0.67
-2.0
0.33
1.0
1.33
-3.0
-2.0
0.0
0.0
-1.33
-1.67
4.0
-1.0
-1.0
0.0
1.33
1.0
6.0
2.0
-1.67
1.0
1.33
-1.33
-5.33
-4.0
-1.0
7.0
-3.0
-4.67
0.0
-4.0
-0.33
-3.0
-5.33
-1.67
-2.67
0.0
-5.67
0.0
-5.0
6.33
-2.33
-5.0
-1.0
-6.0
-2.67
-1.0
-5.0
-5.33
1.33
-2.67
-3.33
-4.0
-5.0
-2.67
-0.67
-5.67
-4.67
-5.67
-2.0
2.33
-4.33
-5.0
-3.67
-1.0
-0.67
-5.0
-5.67
-4.0
-2.67
-4.0
-8.0
-0.33
-6.67
-1.67
-8.67
-4.67
-4.67
0.0
-1.33
-4.33
-5.33
-2.0
-0.67
-2.33
-5.33
-4.33
-6.33
-4.33
-4.67
-8.0
-4.67
-5.67
-3.0
-12.0
-10.0
-6.0
-6.0
-2.33
-5.0
-0.67
-5.67
-6.0
-4.33
-4.33
-4.33
-3.0
-7.33
-7.33
-4.0
-2.0
-7.0
-11.33
-4.0
2.67
0.0
-7.0
5.0
-6.0
-1.67
-4.0
1.0
-6.33
-5.67
-4.33
-2.0
-2.33
-6.33
-10.0
1.67
-10.33
-3.0
-7.67
-9.0
-2.0
-8.67
-5.67
-7.67
-7.33
0.0
-0.67
-4.33
-3.33
-1.0
-4.0
-11.33
-8.0
-13.33
0.33
0.0
-6.67
-10.33
7.0
-3.33
-6.67
-5.33
2.0
-7.67
-5.67
1.0
-6.0
-6.33
-1.67
-5.33
-8.0
-7.33
-4.67
-5.67
-5.0
-5.67
-7.33
-10.0
-13.33
-7.33
-10.67
-4.0
-4.0
-5.67
-11.67
-3.0
-3.33
-1.0
-9.0
-0.33
-7.33
-8.0
-3.67
-4.67
-3.67
-5.0
2.33
-2.67
-2.67
-6.0
3.33
-5.33
-11.67
-11.0
4.33
1.33
-5.67
-5.0
-13.33
-8.0
0.33
-2.67
-1.33
-0.67
-4.33
3.0
-8.67
-8.67
-9.67
4.0
-11.0
0.33
2.0
-3.0
-0.33
6.67
-5.0
5.0
11.67
2.0
18.67
21.67
21.67
29.33
31.33
17.67
28.33
26.67
10.67
24.0
6.33
7.67
-1.33
6.67
5.0
-3.33
5.67
1.0
-1.0
4.0
6.0
-7.67
4.0
3.67
8.33
2.33
9.67
-1.67
-3.33
3.0
-4.0
5.67
11.67
3.67
9.33
5.0
10.33
0.67
8.67
-1.0
1.33
7.0
6.0
-6.67
6.0
4.33
4.0
7.33
-0.67
5.0
1.0
14.67
4.0
3.0
1.33
8.33
6.0
14.0
7.33
-3.0
-2.67
-2.67
-1.67
3.0
-2.67
-0.67
3.67
4.67
-1.0
2.67
-0.33
6.33
-10.0
1.33
-3.67
12.33
5.67
-4.33
10.0
11.0
6.33
23.33
-6.67
3.33
4.0
18.33
-1.67
3.33
8.67
-2.0
-0.33
-2.33
4.33
5.67
0.0
4.33
10.67
-5.0
4.33
2.67
14.33
-6.0
-0.67
4.33
7.67
6.0
4.33
5.0
0.67
-0.67
9.67
9.0
11.0
-0.67
2.33
4.0
7.67
0.67
4.33
-0.67
10.67
0.67
7.67
0.33
4.0
0.33
19.0
-2.33
7.33
-1.0
10.33
18.33
19.0
18.0
42.33
49.67
58.0
51.0
77.33
123.67
145.67
156.0
176.33
201.0
190.0
193.0
198.67
152.33
204.0
121.67
133.0
113.33
79.67
45.67
40.67
43.33
8.0
20.67
12.0
5.67
1.0
3.0
11.33
1.0
6.67
3.33
9.0
3.0
1.67
3.0
17.33
1.67
-1.0
-17.33
13.67
3.33
10.67
1.0
7.33
0.33
4.0
7.0
8.0
7.67
1.33
2.33
14.33
3.0
1.33
12.33
-3.0
5.67
-3.67
5.33
5.67
4.0
12.0
2.67
1.33
4.67
11.67
8.0
2.33
3.33
12.0
12.67
0.33
6.33
6.67
-3.0
-0.67
4.0
9.33
0.67
-8.33
-4.33
3.33
10.33
10.0
-11.0
4.33
3.0
6.33
8.67
-1.33
4.67
-3.67
3.67
2.0
7.0
3.33
9.67
-0.67
4.33
0.0
10.33
4.0
12.0
10.0
5.33
0.0
1.0
5.0
3.67
6.33
-1.67
3.33
-3.67
3.67
-5.0
2.67
7.67
2.33
3.0
10.33
1.0
11.33
-0.67
-6.67
4.0
3.0
-8.33
-0.33
2.33
5.0
3.33
17.0
9.0
-2.33
-6.67
15.67
0.0
1.67
7.33
14.33
-1.67
-3.33
6.67
-1.67
-7.67
15.0
1.0
14.33
18.0
5.0
10.0
6.0
21.0
17.0
7.0
4.33
5.67
32.33
5.0
-5.33
4.0
6.33
12.33
4.67
17.0
-8.33
2.67
7.33
6.33
-2.0
3.67
6.0
17.67
-6.33
8.33
4.67
3.67
-0.67
-5.67
-0.33
0.33
4.0
0.33
-4.0
9.67
8.67
0.33
4.0
-5.33
-8.0
7.33
15.0
0.33
-0.33
10.67
12.0
3.0
6.0
-4.67
-0.67
4.33
-4.0
13.0
7.0
5.67
4.0
8.33
2.33
-1.67
0.33
-5.33
6.0
0.33
11.67
-10.33
6.67
-5.67
6.33
3.67
0.33
5.67
19.33
7.33
14.67
3.0
2.33
13.0
3.33
17.33
-3.67
6.33
2.33
-5.33
4.0
14.67
12.0
0.0
8.33
-3.67
2.0
4.0
0.67
4.0
3.67
-0.33
-2.33
4.33
-7.0
6.33
6.33
6.33
-2.33
3.0
-3.67
9.67
0.33
-4.33
-2.0
7.0
-8.0
-3.33
9.0
2.33
-0.33
-5.0
-9.33
-1.0
-1.0
5.67
-1.67
0.67
-1.33
0.33
3.0
-2.67
1.0
-3.0
-2.33
-3.33
-6.67
6.0
-9.67
2.33
0.33
-6.0
-8.0
-1.0
0.33
5.0
-1.0
-2.0
-0.33
-2.33
-6.33
-1.67
-0.33
2.67
1.0
4.0
3.67
8.0
4.33
4.33
5.33
7.0
7.0
6.67
-4.33
5.0
1.33
-1.0
6.67
8.33
2.0
3.33
-1.67
-1.0
9.67
-3.0
2.0
1.33
2.67
7.0
-1.33
0.67
3.67
8.67
0.0
-3.33
0.33
-2.67
-1.67
1.0
-0.33
-5.33
5.67
-2.33
2.67
-0.33
5.67
-4.33
-1.33
0.0
0.67
2.67
-2.67
1.67
2.67
-5.33
-1.33
-0.33
-1.67
-5.33
0.0
-1.67
3.33
-1.33
2.67
2.33
5.0
-7.33
0.67
2.67
-3.33
-3.67
-3.33
1.0
-2.67
0.67
2.67
3.67
1.0
-0.67
-3.0
3.0
3.67
3.67