File: EDX Back Ups and Old Files/Spectra copy 3.3.23/Samples/High pH SF 60C 6d/6.25.txt
0.0
25.0
-38.0
-36.67
-51.33
5.0
17.0
-5.67
10.33
-17.67
-29.67
9.0
-1.67
-1.67
0.33
-2.0
4.67
4.33
2.33
1.33
1.33
0.33
-1.0
-1.0
-0.33
-0.33
-0.67
0.0
0.0
-0.33
-1.0
-0.67
-0.33
-0.33
1.0
1.0
-1.0
0.0
-0.33
-0.67
0.67
0.67
-0.33
-0.67
-0.33
-0.33
-0.33
0.33
2.0
-0.33
-2.0
1.33
-1.33
-0.33
1.33
-0.67
0.0
-2.0
4.67
0.33
1.0
0.33
9.0
0.67
0.67
0.33
0.0
4.0
0.0
6.67
3.0
1.33
1.67
-3.33
-2.67
4.0
7.67
4.33
5.67
3.33
1.0
-1.33
-3.0
6.0
-1.33
3.0
1.33
0.33
-0.67
3.33
13.67
6.67
0.0
9.33
-3.67
2.0
-1.0
0.67
0.0
0.33
6.67
1.33
9.0
4.67
3.0
9.33
8.33
-0.33
1.0
-0.67
-1.67
-4.33
3.67
6.67
-1.33
2.33
-0.33
4.0
-2.33
1.0
4.0
4.0
3.33
4.67
11.0
-1.67
7.67
1.0
11.0
-1.33
-1.33
-5.33
4.0
2.33
-3.67
5.0
6.33
4.33
2.33
1.67
5.67
-0.33
0.33
3.67
-4.33
-4.33
-3.0
0.0
3.0
-0.67
8.67
9.0
4.0
8.33
3.0
1.67
4.67
10.33
-1.0
7.33
1.33
6.0
6.0
1.67
1.33
0.0
2.67
0.0
1.33
4.0
0.33
5.0
0.67
-0.33
-0.67
-0.67
4.0
5.67
-0.67
1.33
1.0
-1.0
7.33
-3.0
-3.33
2.0
-3.0
-3.67
8.0
3.67
8.0
-2.0
0.0
5.0
5.67
0.0
0.0
1.0
2.0
3.0
-0.33
3.67
-0.33
-4.0
-2.67
5.33
0.0
-0.33
-2.33
-1.67
-1.33
6.67
-0.33
2.0
-5.67
5.0
-0.67
9.0
4.33
5.33
-4.33
-0.33
-5.33
1.67
-0.67
0.0
7.0
4.33
1.33
0.67
3.67
7.33
0.67
-7.0
1.0
1.33
2.33
0.67
1.0
-0.33
1.33
0.67
1.33
-0.33
0.33
-2.67
5.67
-1.0
0.67
-2.67
2.67
6.67
0.0
3.33
-1.33
4.67
1.33
-4.33
0.67
-2.67
0.33
7.0
2.67
2.67
1.33
2.67
-1.67
0.0
-0.67
5.33
-1.67
-1.67
-0.67
-3.0
2.33
3.33
-1.33
-0.67
-0.33
3.33
0.0
-1.67
-1.0
-1.0
2.0
0.0
-2.67
5.0
1.33
0.67
-2.0
-0.67
2.0
5.33
-4.0
-4.0
0.0
1.0
1.67
4.33
7.0
-1.0
-1.0
4.0
-0.67
1.0
4.0
4.0
-2.67
4.0
1.33
-0.33
-2.33
-1.0
-7.0
-1.0
-7.0
0.33
1.0
-3.0
-0.33
1.0
2.67
-0.67
5.33
-1.0
-6.67
2.0
1.0
2.33
0.67
-2.0
-2.0
-5.0
-2.67
-1.0
3.0
-5.33
2.33
2.33
6.67
-3.0
-5.0
-3.67
-0.67
-6.67
-5.67
-3.67
-8.0
0.33
-5.33
-3.0
-6.67
0.0
-2.67
-2.0
-2.67
-5.0
-1.67
-5.0
-8.0
1.67
-4.67
-0.67
-6.67
-10.67
1.33
-3.0
-7.33
-2.33
-2.33
-7.0
-0.67
-0.33
-4.33
-3.33
-5.33
-2.33
-2.67
2.0
-7.67
-1.67
0.0
-8.0
-7.0
-5.0
-2.0
-1.33
3.0
-4.67
-6.67
-2.0
-5.33
6.67
-10.33
-4.0
-3.33
-1.33
1.0
-1.0
-3.0
9.67
5.0
6.67
15.0
10.0
25.0
36.0
13.33
18.0
6.0
7.67
4.33
6.67
5.0
-0.33
0.67
-1.0
2.67
-3.33
-5.0
-10.67
-9.0
7.0
-4.67
-1.67
-7.67
-6.33
-8.0
-2.67
-6.33
-4.33
1.0
-1.0
-3.33
-12.0
1.67
-1.67
-7.0
-3.67
-8.33
-9.0
-4.33
-5.67
-0.33
1.0
-2.67
-2.67
-2.0
2.0
-4.33
-4.67
-1.33
-3.0
-10.33
-4.67
-10.67
-2.0
-13.67
-11.33
-10.0
-12.33
4.67
-9.67
-12.0
-14.0
-10.67
-3.67
5.0
-2.33
-5.0
-5.0
-6.33
0.67
-8.0
-5.67
-4.67
-10.67
-5.0
3.33
-3.67
-8.67
-8.0
1.33
-6.33
-2.67
-7.0
-7.67
3.33
0.33
0.0
-6.33
-9.0
-0.67
-5.67
-5.33
-2.67
-3.33
3.0
-15.67
-6.67
-7.67
-9.0
-4.0
-6.67
0.0
-8.0
-3.33
-2.33
0.0
3.0
0.67
8.0
8.67
2.67
9.67
13.33
20.33
19.67
9.33
17.67
0.67
17.0
-9.67
7.67
-3.33
-4.33
6.0
-2.33
5.67
6.0
-3.0
-3.0
2.0
-1.67
5.0
3.67
-0.67
2.33
7.67
-1.67
-5.33
2.0
3.0
-7.33
-1.33
-0.33
6.33
-2.0
4.33
8.67
-2.33
3.0
3.33
4.0
-7.0
2.33
3.0
13.33
4.0
-3.67
6.33
0.0
3.0
9.67
4.0
5.0
3.33
5.33
3.0
13.0
5.33
-1.0
5.33
-9.67
6.33
1.0
1.33
3.33
3.67
9.67
-4.0
5.67
10.67
6.33
2.0
8.33
-3.67
-0.67
-1.33
13.67
12.0
16.0
2.33
15.33
4.33
0.33
6.0
1.33
2.33
3.33
2.67
5.0
-3.33
0.67
-6.67
2.67
6.0
-2.67
6.67
4.0
11.33
2.67
14.33
1.0
3.33
3.33
7.67
8.0
-6.67
9.0
-2.33
1.33
5.67
4.0
14.0
6.33
11.33
8.0
7.67
2.67
11.33
17.33
10.67
8.67
6.67
9.33
4.0
23.33
22.0
8.67
12.33
12.0
21.33
10.33
16.0
14.0
26.33
11.67
29.0
26.0
33.33
53.67
61.67
70.0
71.33
70.0
66.0
93.0
71.67
87.33
66.0
70.67
59.0
38.33
45.67
31.67
26.67
28.33
4.0
8.67
-5.0
12.67
-3.0
13.0
8.33
7.0
3.67
2.33
12.0
-2.0
6.67
-2.0
10.33
4.67
0.0
-6.33
4.67
-1.67
25.67
-1.0
5.33
-0.67
14.0
4.0
9.0
17.67
12.33
23.33
19.33
7.0
7.33
9.33
3.0
7.67
-1.67
-3.67
10.67
11.0
13.0
11.67
8.33
9.67
12.67
11.0
4.33
7.33
5.0
19.67
11.33
8.33
7.67
10.0
0.33
-3.0
2.33
17.67
0.67
4.67
-0.67
3.33
12.0
-5.0
-3.67
-3.0
8.33
8.67
1.67
-7.33
11.33
8.67
15.0
9.0
-1.67
1.67
3.33
9.33
-1.0
11.33
10.0
15.0
17.0
14.33
20.0
16.0
16.0
9.67
38.33
19.33
42.33
27.33
41.67
15.0
17.67
35.67
20.33
36.0
14.33
7.0
18.33
8.33
6.33
3.0
-5.0
4.67
-3.33
-14.67
9.0
11.33
11.0
5.0
-0.33
0.33
9.67
6.0
-3.33
10.33
1.33
13.33
-8.33
10.67
9.33
3.33
9.0
-1.0
1.33
11.0
4.0
-8.0
11.0
12.0
6.0
5.0
-0.67
13.67
12.33
14.0
1.67
9.0
6.33
5.33
-1.33
1.0
-1.33
12.67
13.33
10.33
1.0
-6.33
11.0
-6.33
-0.33
4.33
4.67
10.67
2.33
13.33
-0.33
9.33
0.0
-0.67
-8.0
1.67
-8.33
6.33
6.0
3.67
1.0
-8.67
-3.0
2.33
10.67
2.67
1.0
-1.0
5.0
3.33
-9.67
-1.67
1.0
5.0
-7.0
12.67
5.0
0.33
0.33
-4.67
8.33
2.67
3.0
3.33
-2.33
1.67
8.67
-2.67
9.33
6.67
-5.67
6.67
3.33
4.33
5.67
1.0
10.33
4.0
2.33
10.33
5.33
2.33
13.33
-2.33
12.0
17.67
0.0
10.0
4.33
-6.67
1.0
7.0
1.67
7.0
5.67
6.67
1.67
7.33
0.0
1.33
-0.67
4.33
8.67
3.0
3.33
5.67
6.33
5.67
-1.0
-1.0
0.0
3.67
3.0
8.33
-3.33
6.0
1.67
0.0
3.0
4.67
4.33
-6.33
11.67
-3.67
6.0
-3.67
-4.0
0.0
-7.33
-3.33
-3.67
4.0
-9.67
1.33
3.33
0.0
-4.0
-4.0
1.33
9.0
12.0
1.0
2.67
2.67
-5.33
-5.67
5.67
0.67
4.0
-3.0
-3.33
1.0
6.33
0.33
4.33
4.0
-3.0
-2.33
2.67
-2.0
8.33
4.0
4.67
5.33
4.0
4.33
-0.67
3.0
1.67
-1.0
4.0
1.33
0.67
3.0
0.67
-0.33
-4.33
2.67
6.0
-0.33
1.33
1.33
4.33
5.0
2.67
-2.33
-3.33
-4.33
2.67
0.67
-3.33
-0.33
2.67
3.0
-1.33
0.67
2.33
-4.33
2.67
0.67
-0.33
-1.33
-0.67
3.67
-6.0
1.33
1.33
-5.33
2.67
3.33
3.0
-2.33
-1.33
1.67
2.67
7.33
0.67
6.0
3.33
2.67
3.67
-5.33
2.0
3.33
2.0
4.0
8.67
7.67