File: EDX Back Ups and Old Files/Spectra copy 3.3.23/Samples/High pH SF 60C 6d/6.5.txt
0.0
-9.0
36.0
43.33
1.67
36.0
106.0
-24.67
8.33
2.33
-9.67
39.0
32.33
0.33
3.33
-5.0
-3.33
-3.67
-1.67
0.33
0.33
-0.67
0.0
0.0
-0.33
0.67
-0.67
0.0
0.0
-0.33
-1.0
-0.67
-0.33
-0.33
2.0
0.0
-1.0
1.0
-0.33
1.33
-0.33
0.67
-0.33
0.33
-0.33
-0.33
-0.33
1.33
0.0
1.67
-2.0
1.33
1.67
-1.33
-0.67
2.33
2.0
-1.0
-1.33
-0.67
-2.0
0.33
5.0
-1.33
2.67
1.33
1.0
-1.0
-3.0
5.67
2.0
5.33
5.67
-3.33
2.33
6.0
-4.33
-5.67
4.67
7.33
2.0
5.67
4.0
15.0
-1.33
5.0
0.33
2.33
-2.67
-3.67
0.67
3.67
0.0
4.33
3.33
1.0
-2.0
4.67
2.0
1.33
3.67
-0.67
7.0
1.67
-2.0
11.33
8.33
6.67
0.0
0.33
1.33
0.67
-2.33
9.67
1.67
2.33
-2.33
-2.0
1.67
-2.0
8.0
9.0
0.33
-0.33
7.0
1.33
4.67
2.0
4.0
2.67
1.67
9.67
1.0
2.33
-3.67
-3.0
13.33
4.33
2.33
-1.33
1.67
-0.33
3.33
2.67
-1.33
-1.33
-1.0
-6.0
-2.0
4.33
1.67
13.0
0.0
2.33
5.0
-2.33
4.67
-2.67
2.0
-1.67
2.33
7.0
0.0
-0.33
2.33
1.0
0.67
8.0
4.33
7.0
6.33
3.0
1.67
-6.33
9.33
9.33
13.0
6.67
-1.67
4.33
6.0
4.0
8.33
-3.0
3.67
4.0
0.0
-2.67
0.0
4.67
-1.0
3.0
2.0
5.0
2.67
-1.0
-3.0
8.0
-4.0
0.0
-0.33
4.67
-4.33
-2.0
-1.67
-1.67
-1.0
-1.33
-5.33
5.33
4.67
6.67
2.67
5.0
0.33
1.0
-0.67
1.0
-2.67
6.33
0.67
-0.33
-3.33
4.67
-1.67
0.0
6.0
2.33
-3.67
4.67
2.67
6.33
1.67
4.0
1.0
0.33
3.33
2.67
0.0
3.67
1.33
-0.33
4.33
-3.33
4.33
-3.67
-2.33
-3.0
3.67
-2.67
-2.33
6.67
-6.0
3.33
-3.33
-3.33
0.33
-5.33
1.67
-4.67
-1.67
-1.0
2.67
-1.33
-1.67
3.67
0.33
-1.0
4.33
4.33
-3.67
6.33
-1.67
3.0
5.33
0.33
5.67
-4.67
-1.33
1.33
2.0
-0.67
1.0
-2.0
4.0
7.0
0.33
-2.0
1.33
-1.33
0.0
-2.67
4.0
4.33
2.0
-2.0
2.0
0.0
2.67
2.33
0.0
-1.0
0.0
5.0
2.33
-2.0
2.0
6.0
0.33
-5.0
-1.67
-1.33
3.67
-5.0
-2.0
1.0
-3.0
-0.67
-6.0
-3.0
0.67
2.0
-5.33
2.33
2.33
-2.0
-7.67
-4.0
-6.0
-1.67
-2.33
-2.0
-2.0
1.0
-3.67
0.0
-2.0
-4.33
-1.67
-2.67
1.67
-4.0
-3.0
-5.67
1.33
-2.67
-4.67
-3.67
-1.0
0.33
-2.33
3.0
1.33
-3.0
-0.67
-5.0
-2.67
-5.0
-0.67
-4.0
-12.0
1.67
-0.67
-4.67
-3.67
-3.67
-4.67
-9.0
-2.33
-5.33
-5.33
-2.0
-2.67
-3.33
-7.33
-3.33
-1.33
-4.33
-6.67
-3.0
-4.67
-2.67
-5.0
-3.0
-3.0
-5.0
-2.0
1.67
-3.0
1.33
-4.67
2.0
-3.33
3.67
-6.33
4.0
-4.33
-7.33
0.0
6.0
-3.0
2.67
13.0
12.67
17.0
23.0
16.0
14.0
21.33
14.0
6.0
8.67
0.33
4.67
2.0
-0.33
1.67
-2.0
-0.33
-0.33
-10.0
-3.67
0.0
0.0
-0.67
-2.67
-3.67
-8.33
-8.0
2.33
-12.33
-2.33
-5.0
-2.0
-0.33
-11.0
-8.33
-6.67
-7.0
-5.67
-7.33
0.0
-6.33
-7.67
1.67
-5.0
-2.67
0.33
-6.0
-5.0
-6.33
-1.67
2.67
-2.0
0.67
-4.67
-9.67
0.0
-7.67
-10.33
-5.0
-8.33
-4.33
-5.67
-5.0
-10.0
-2.67
-2.67
1.0
-5.33
3.0
0.0
-3.33
-4.33
-4.0
-3.67
-1.67
-9.67
-8.0
3.33
-5.67
-1.67
-2.0
-5.67
-5.33
-13.67
-8.0
-6.67
-4.67
0.33
-13.0
-1.33
-4.0
-2.67
-3.67
-0.33
-2.67
-8.33
9.0
-15.67
-5.67
-4.67
-5.0
3.0
1.33
4.0
2.0
0.67
-1.33
-1.0
3.0
-6.33
-1.0
8.67
1.67
7.67
8.33
13.33
13.67
15.33
7.67
7.67
5.0
5.33
8.67
-1.33
1.67
1.0
-2.33
-0.33
6.0
-1.0
11.0
-2.0
-4.67
-7.0
-1.33
-1.67
-1.67
0.67
-4.67
-1.33
4.0
0.0
-1.33
3.67
3.67
0.33
4.0
12.33
1.67
-0.33
-1.0
13.33
-2.0
7.0
-0.67
7.0
1.33
11.0
-2.67
-4.67
5.0
1.0
8.67
-2.0
-2.0
5.33
8.33
4.0
2.0
6.33
9.0
9.33
-11.67
14.33
8.0
1.33
-1.67
-1.33
8.67
8.0
-6.33
-1.33
6.33
-6.0
-4.67
-2.67
17.33
20.67
3.67
12.0
10.0
4.33
13.33
3.33
3.33
4.0
1.33
0.33
-2.67
-0.33
3.0
-0.33
3.67
5.33
2.67
3.0
0.33
9.67
10.0
2.33
10.67
5.33
3.0
6.33
11.33
8.67
-2.0
-9.67
4.0
-3.33
10.33
3.67
-4.0
13.0
9.33
6.33
6.0
11.67
10.67
3.33
1.33
9.67
-2.33
18.67
11.33
19.0
12.33
20.0
17.67
2.33
16.0
18.33
8.33
10.0
22.0
29.33
17.67
32.0
21.0
32.33
50.67
45.67
69.0
90.33
75.0
90.0
99.0
89.67
83.33
73.0
73.67
48.0
36.33
38.67
25.67
15.67
22.33
5.0
-2.33
4.0
18.67
1.0
8.0
4.33
7.0
0.67
20.33
9.0
10.0
13.67
5.0
8.33
2.67
9.0
-3.33
8.67
7.33
13.67
5.0
14.33
3.33
18.0
-1.0
-1.0
12.67
4.33
-1.67
11.33
7.0
13.33
10.33
6.0
10.67
-0.67
10.33
12.67
1.0
11.0
12.67
-3.67
3.67
11.67
12.0
25.33
-0.67
5.0
6.67
5.33
3.33
15.67
12.0
5.33
9.0
7.33
8.67
16.67
11.67
4.33
7.33
18.0
-3.0
8.33
4.0
10.33
-0.33
4.67
-3.33
2.33
1.67
8.0
5.0
2.33
5.67
13.33
15.33
15.0
7.33
-4.0
8.0
17.0
20.33
9.0
20.0
9.0
14.67
23.33
31.33
32.33
19.33
19.67
17.0
31.67
26.67
40.33
22.0
24.33
36.0
8.33
10.33
9.33
18.0
-7.0
-1.33
-2.33
3.33
2.0
12.33
17.0
0.0
-2.33
-1.67
11.67
5.0
-1.33
6.33
-1.67
-2.67
2.67
6.67
8.33
-3.67
12.0
3.0
4.33
-1.0
-3.0
15.0
17.0
18.0
-2.0
14.0
9.33
15.67
5.33
-4.0
11.67
0.0
5.33
11.33
2.67
11.0
-3.33
5.67
1.33
3.33
8.0
4.67
-6.0
3.67
-7.33
-0.67
-1.33
13.67
-4.67
3.33
-1.33
8.33
-1.0
3.33
3.0
4.67
-7.33
6.33
4.0
-4.33
2.0
1.33
4.0
-1.67
-1.33
3.67
5.0
6.0
6.0
-1.67
-1.67
12.33
10.0
3.0
-3.0
1.67
-13.0
1.33
-1.67
4.33
0.33
10.67
7.0
6.33
4.67
1.67
4.67
-3.67
-1.67
-2.33
-2.67
3.67
13.33
17.33
1.67
2.0
4.33
5.0
-4.67
5.33
6.33
2.33
12.33
2.67
0.0
4.67
3.0
2.0
0.33
-0.67
2.0
0.0
4.67
5.0
1.67
2.67
-0.33
2.33
-2.0
0.33
11.33
6.33
1.67
-2.0
-7.67
3.67
3.33
-5.33
-1.0
1.0
0.0
-2.33
4.0
0.33
-8.33
-1.0
3.67
-6.0
-7.0
7.67
6.33
1.67
0.67
-6.67
-9.0
2.33
5.0
2.0
1.67
2.67
-2.67
-2.0
-5.67
8.33
-4.67
-3.0
-7.0
-2.0
-1.67
3.0
1.0
-1.0
0.67
1.67
1.67
-1.67
3.67
3.67
3.0
-4.0
0.67
6.0
0.33
8.33
3.33
0.0
1.0
2.67
5.67
3.0
1.33
0.0
7.67
5.33
3.0
6.33
4.33
4.0
2.67
-2.0
2.0
2.33
1.67
11.0
6.67
-0.33
6.67
-0.33
1.0
-4.33
-3.67
-2.67
-2.67
-1.0
6.67
4.67
-5.33
-1.33
2.67
-7.33
-3.33
0.67
6.67
7.0
1.67
1.67
-5.67
1.67
10.67
0.67
0.67
-2.33
-0.67
0.67
0.0
9.33
3.33
-1.33
1.67
2.33
-2.0
1.67
3.67
3.67
4.67
0.33
7.67
-1.0
-0.67
2.67
-4.33
0.67
3.0
7.33
-2.0
2.0
-0.33
11.67