File: EDX Back Ups and Old Files/Spectra copy 3.3.23/Samples/High pH SF 60C 6d/6.75.txt
0.0
-34.0
9.0
-17.67
-32.33
49.0
18.0
57.33
42.33
38.33
13.33
37.0
30.33
-0.67
1.33
10.0
0.67
-4.67
1.33
-0.67
2.33
-0.67
-1.0
-1.0
-0.33
0.67
0.33
1.0
0.0
-0.33
-1.0
-0.67
-0.33
-0.33
0.0
0.0
-1.0
1.0
-0.33
0.33
0.67
-0.33
0.67
1.33
-0.33
1.67
-0.33
-0.67
-1.0
0.67
-2.0
1.33
-0.33
-1.33
0.33
2.33
2.0
2.0
0.67
2.33
0.0
1.33
3.0
-0.33
6.67
-0.67
8.0
-4.0
1.0
4.67
2.0
-4.67
3.67
1.67
3.33
5.0
-2.33
-1.67
-0.33
-1.67
4.0
0.67
2.0
4.0
4.67
4.0
-0.67
0.33
0.33
2.33
5.67
5.67
-2.0
11.33
2.33
7.0
1.0
5.67
0.0
5.33
-1.33
4.33
13.0
-5.33
2.0
8.33
9.33
0.67
-3.0
2.33
-3.67
8.67
-0.33
-2.33
0.67
0.33
5.67
1.0
7.67
1.0
0.0
8.0
1.33
8.67
8.0
-2.67
-4.33
4.0
0.0
-1.33
4.67
-1.33
4.0
3.33
-4.67
3.0
-1.67
5.33
-0.67
4.67
0.67
-3.33
2.33
4.67
-0.33
2.67
2.0
-3.0
-2.0
-1.67
2.67
3.0
-4.0
5.33
-1.0
-4.33
-3.33
0.33
-3.0
2.33
4.33
8.0
-1.0
2.67
-1.67
-6.0
4.67
3.0
0.33
-1.0
9.33
3.0
4.67
-2.33
1.33
-3.67
6.0
1.67
-6.67
-2.67
5.0
3.0
4.33
0.0
-1.33
3.0
-9.0
9.33
-1.0
4.67
0.0
3.0
4.0
4.0
3.67
0.0
3.0
0.0
5.0
-1.0
-0.33
-0.33
2.67
-7.0
-1.67
6.33
-1.0
1.67
-4.33
4.33
-0.33
2.67
2.67
-3.0
0.33
6.0
-2.67
-1.0
4.33
0.33
-3.33
10.67
-1.33
1.67
-1.67
1.0
-2.0
9.33
1.33
-4.33
2.67
0.33
6.67
-5.0
6.0
-0.67
7.33
2.67
-4.0
3.67
3.33
0.67
1.33
-2.33
3.33
-1.67
-1.33
3.0
0.67
-3.67
3.67
2.67
-5.0
-1.67
-4.33
8.67
-2.67
-3.33
4.67
-0.67
0.33
2.0
1.67
-0.33
3.33
2.67
3.33
3.0
0.33
-0.67
0.33
-0.67
0.33
-1.0
-4.67
-0.67
-2.33
-0.67
-2.33
2.33
0.0
-0.67
-1.0
-1.0
3.0
1.0
0.33
-2.0
3.33
-1.33
2.0
0.33
5.0
4.33
-4.0
0.0
7.0
-1.0
0.67
3.33
1.0
0.0
2.0
3.0
2.33
0.0
2.0
0.0
-2.67
5.0
-0.67
-5.33
-3.33
-1.0
-5.0
1.0
-5.0
-2.67
-4.0
-5.0
4.67
-2.0
2.67
3.33
-0.67
-5.0
-2.67
0.0
-5.0
-0.67
-1.33
5.0
0.0
-4.0
1.33
-1.0
0.0
-3.33
1.33
0.33
-5.33
1.0
-3.0
-5.67
-1.67
2.33
-6.67
-0.67
-2.0
-2.67
-5.33
-3.0
-4.67
-3.0
-6.67
0.0
0.33
3.0
-5.67
2.0
-6.0
-5.33
-6.67
-7.67
-4.67
-4.67
-3.67
-4.0
-3.33
-3.33
-4.33
-2.0
-0.67
-3.33
-7.33
-1.33
-4.33
-1.33
0.33
-8.0
-5.67
-4.67
-3.0
-6.0
0.0
-1.0
-4.0
-3.33
-3.0
-6.67
-4.67
-4.0
-6.33
8.67
-7.33
-7.0
-3.33
-0.33
5.0
5.0
-2.0
8.67
5.0
17.67
17.0
25.0
30.0
19.0
18.33
10.0
13.0
8.67
9.33
-0.33
4.0
-0.33
-2.33
-11.0
-2.33
-5.33
-1.0
-3.67
-7.0
-3.0
-8.67
-3.67
-7.67
-2.33
-3.0
-0.67
-0.33
-4.33
-1.0
-6.0
-7.33
-14.0
-12.33
-6.67
-10.0
-6.67
-2.33
1.0
-8.33
-4.67
-2.33
6.0
-4.67
3.33
-3.0
-1.0
-12.33
-9.67
0.67
3.0
-1.33
-6.67
-1.67
1.0
-3.67
-2.33
-7.0
-3.33
-6.33
-12.67
-9.0
-9.0
-2.67
-7.67
-2.0
-1.33
3.0
-9.0
-0.33
-3.33
-3.0
-5.67
1.33
-4.67
-8.0
-5.67
-1.67
-1.67
-8.0
-1.67
-4.33
-6.67
-9.0
0.33
-7.67
-4.67
-5.0
-0.33
-3.0
1.33
1.33
-1.33
-1.67
-5.33
5.0
-7.67
-2.67
-10.67
-3.0
-4.0
1.33
-1.0
-8.0
3.67
-0.33
-8.0
7.0
-4.33
-6.0
1.67
-1.33
7.67
12.33
9.33
12.67
6.33
13.67
6.67
13.0
5.33
11.67
3.67
-3.33
3.0
-9.33
3.67
5.0
-8.0
-7.0
6.0
-7.67
7.0
1.67
-0.67
2.33
-1.33
-1.67
-1.33
-2.0
-3.0
-4.33
-1.33
0.67
3.33
0.0
2.33
1.67
1.67
3.0
5.33
6.0
1.0
5.33
2.0
2.33
0.0
-3.67
5.33
1.0
1.0
3.67
-2.0
-2.0
-4.67
0.33
7.0
8.0
3.33
2.0
2.33
2.33
6.33
4.0
-7.67
3.33
-1.33
-1.33
-2.0
4.67
7.67
2.33
-7.0
7.33
4.33
12.33
7.67
8.67
2.0
1.0
8.33
0.33
5.33
7.33
-5.0
11.33
3.33
-0.67
5.67
13.0
-1.33
1.67
0.33
0.67
-1.0
9.33
2.67
1.0
7.33
6.67
5.33
3.0
-1.67
4.33
2.67
-5.0
5.33
10.0
-2.33
0.33
9.67
3.0
15.0
7.33
6.33
-6.0
4.67
10.67
9.33
5.33
6.67
15.67
6.67
-2.67
7.0
9.33
15.0
7.67
13.33
26.0
20.33
3.33
20.0
8.0
20.33
26.67
31.0
25.0
33.33
47.67
60.67
66.0
96.33
86.0
90.0
87.0
85.67
89.33
66.0
61.67
65.0
60.33
46.67
13.67
30.67
30.33
21.0
12.67
-4.0
18.67
-4.0
11.0
0.33
7.0
12.67
5.33
13.0
4.0
8.67
4.0
19.33
-7.33
3.0
1.67
7.67
9.33
1.67
12.0
10.33
10.33
23.0
15.0
-3.0
3.67
26.33
19.33
5.33
-8.0
4.33
12.33
4.0
10.67
-4.67
-2.67
7.67
6.0
9.0
5.67
0.33
0.67
7.67
3.0
4.33
0.33
16.0
10.67
3.33
12.33
3.67
7.0
-3.67
2.0
4.33
3.67
5.67
-1.33
2.33
6.33
7.0
4.0
5.33
-3.0
3.33
14.67
-3.33
-6.33
11.33
11.67
7.0
7.0
4.33
1.67
2.33
3.33
6.0
12.33
8.0
0.0
14.0
23.33
5.0
19.0
20.0
36.67
32.33
21.33
46.33
31.33
30.67
16.0
21.67
42.67
22.33
3.0
19.33
12.0
29.33
4.33
14.33
3.0
3.0
0.67
4.67
5.33
-6.0
18.33
11.0
0.0
8.67
-7.67
12.67
11.0
-0.33
5.33
12.33
7.33
-4.33
6.67
15.33
13.33
-1.0
3.0
7.33
12.0
0.0
17.0
5.0
1.0
-1.0
7.0
-7.67
2.67
8.33
-1.0
-2.33
-7.0
9.33
11.33
0.67
4.0
0.67
7.67
12.33
13.33
0.0
6.67
1.0
-0.33
10.67
9.33
9.67
9.67
5.33
5.33
7.67
0.33
5.0
-0.67
-14.0
0.67
-12.33
5.33
2.0
1.67
-4.0
14.33
-3.0
-5.67
13.67
1.67
-2.0
7.0
-2.0
-4.67
-0.67
6.33
-4.0
8.0
-4.0
7.67
2.0
1.33
-0.67
-2.67
-6.67
1.67
7.0
6.33
5.67
7.67
-0.33
-0.67
0.33
5.67
-1.67
8.67
2.33
7.33
6.67
-6.0
-0.67
-1.0
7.33
7.33
0.33
2.33
15.33
1.67
10.0
8.67
-1.0
7.0
3.33
7.33
9.0
10.0
5.67
1.0
-5.33
3.67
-6.33
4.33
-1.0
0.33
-0.67
-1.67
1.67
4.0
-7.67
1.67
-5.67
6.67
-8.0
5.0
7.0
2.67
5.0
7.33
-6.33
8.0
-1.33
0.0
3.0
-0.33
1.33
-0.33
-1.33
-4.67
-3.0
3.33
3.0
-3.0
-1.33
5.67
-4.67
1.0
-4.67
3.33
-0.67
11.0
-5.0
3.0
4.33
6.0
6.0
3.0
-0.33
-2.33
-1.33
2.33
-5.33
6.67
11.0
-2.0
0.67
2.0
1.33
7.33
1.33
6.0
-1.0
-0.33
0.67
0.0
2.33
4.0
3.67
2.33
0.0
4.33
5.33
2.0
3.67
3.0
3.0
-1.67
4.67
3.0
2.67
5.67
-1.33
-1.33
1.0
6.67
-0.67
-4.67
2.33
5.0
-2.33
-6.33
8.67
-3.33
0.67
-2.33
2.67
2.67
0.67
7.0
-9.33
5.67
3.33
-0.33
0.67
5.67
-0.33
0.67
1.33
-1.33
-2.0
0.33
3.33
-1.33
-2.33
0.33
-7.0
-0.33
4.67
1.67
6.67
-1.67
-3.33
4.0
-2.67
4.67
-0.33
-2.33
2.0
0.33
2.0
2.0
8.67
2.67