File: EDX Back Ups and Old Files/Spectra copy 3.3.23/Samples/High pH SF 60C 6d/7.25.txt
0.0
25.0
55.0
18.33
-74.33
-74.0
7.0
-26.67
-30.67
7.33
-5.67
27.0
3.33
-1.67
-12.67
2.0
0.67
-1.67
2.33
-0.67
0.33
-0.67
-1.0
-1.0
0.67
0.67
-0.67
0.0
0.0
1.67
-1.0
-0.67
-0.33
-0.33
1.0
0.0
1.0
0.0
-0.33
-0.67
0.67
-0.33
1.67
-0.67
0.67
1.67
-0.33
-0.67
0.0
0.67
-2.0
-1.67
2.67
-0.33
0.33
-0.67
1.0
-1.0
-0.33
0.33
1.0
4.33
2.0
-3.33
2.67
4.33
5.0
3.0
4.0
-1.33
-4.0
1.33
0.67
3.67
1.33
1.0
1.67
3.33
-3.33
4.33
13.0
1.67
3.0
3.0
0.67
4.0
-2.67
2.33
-1.67
-0.67
6.67
4.67
9.0
-0.67
4.33
3.0
-2.0
-2.33
2.0
4.33
8.67
9.33
6.0
-2.33
2.0
5.33
9.33
-2.33
7.0
-0.67
0.33
-3.33
2.67
5.67
-2.33
-0.67
6.67
4.0
1.67
0.0
6.0
8.0
2.33
0.67
3.0
-3.67
-2.33
1.0
8.0
-6.33
-2.33
-0.33
12.0
5.33
-2.67
-2.0
1.33
1.33
2.33
1.67
4.67
-0.33
4.33
5.67
-0.33
1.67
-4.0
-2.0
3.0
0.33
-2.33
3.0
8.0
0.33
12.0
-8.33
-0.33
1.33
1.0
8.33
6.33
9.0
1.0
8.67
2.33
0.0
0.67
5.0
1.33
-1.0
0.33
1.0
3.67
-2.33
2.33
0.33
4.0
-1.33
1.33
-0.67
4.0
1.0
6.33
-1.0
1.67
-2.0
-6.0
8.33
6.0
6.67
2.0
0.0
4.0
4.0
7.67
1.0
-2.0
0.0
2.0
2.0
-4.33
-0.33
0.67
5.0
-4.67
8.33
2.0
-1.33
0.67
-1.67
0.67
10.67
1.67
-3.0
4.33
1.0
-0.67
0.0
-0.67
-1.67
2.67
4.67
0.67
-3.33
-1.67
-7.0
2.0
5.33
-2.67
-0.33
1.67
3.33
2.67
-5.0
6.0
-0.67
-0.67
-1.33
-3.0
0.67
4.33
-0.33
2.33
-2.33
0.33
0.33
0.67
-5.0
0.67
-5.67
0.67
3.67
-1.0
-2.67
-7.33
-1.33
4.33
0.67
2.67
-2.67
4.33
2.0
-3.33
1.67
3.33
4.67
-3.67
0.0
3.33
0.33
1.33
6.33
-0.67
3.0
-2.67
-1.67
-2.33
6.33
1.67
-1.67
4.0
1.33
6.0
-1.0
3.0
-1.0
3.33
-2.0
4.33
-0.33
7.0
-0.67
2.0
3.33
-4.0
0.0
2.0
-1.0
-1.33
-1.67
-2.0
-2.0
-1.0
4.0
5.33
-1.0
0.0
2.0
1.33
-3.0
-0.67
-1.33
-3.33
-1.0
-4.0
5.0
-4.0
0.33
-2.0
-5.0
-0.33
0.0
0.67
-2.67
-4.67
2.0
-3.67
4.0
-1.0
-0.67
3.67
-1.0
1.0
0.0
0.33
-4.0
-3.0
-2.33
-2.67
-2.67
2.67
-1.0
-3.0
-1.67
-1.67
-1.67
-5.67
-1.67
-4.0
-2.67
-0.33
-6.0
2.33
1.0
-0.67
-4.0
-5.67
-3.0
-5.67
-2.0
-2.0
-1.33
1.33
5.33
-5.67
-4.67
0.33
-3.0
-5.33
-4.33
-6.33
-7.0
3.33
-7.33
-7.33
-0.33
-5.33
-2.33
0.33
-6.0
0.33
0.33
-4.0
-8.0
-6.0
0.0
-4.0
-0.33
0.0
-3.67
-8.67
-8.0
-5.33
-3.33
-4.33
4.0
-0.33
-0.33
-3.0
4.0
0.0
10.67
14.0
6.67
27.0
20.0
17.0
14.0
29.33
20.0
16.0
12.67
-2.67
-4.33
5.0
-4.33
3.67
-4.0
10.67
-3.33
-2.0
-7.67
-3.0
-7.0
-7.67
4.33
-3.67
-7.33
-5.0
-4.67
-3.33
-9.33
-4.0
0.0
-4.33
-12.0
-9.33
-6.67
-9.0
0.33
-7.33
-1.0
-3.33
1.33
-3.33
-8.0
-1.67
-0.67
-11.0
2.0
-1.33
-2.67
1.67
4.0
-7.33
0.33
-8.67
-1.0
-10.67
-9.33
-2.0
-8.33
-12.33
-12.67
-7.0
-10.0
-5.67
3.33
-8.0
-3.33
0.0
-1.0
-5.33
-0.33
-6.0
-8.67
2.33
-9.67
-3.0
-1.67
-4.67
-9.67
0.0
0.33
-1.33
-7.67
-2.0
-2.67
2.33
-2.67
-7.0
-5.33
-8.0
9.33
6.33
2.67
-3.67
-7.33
5.0
-6.67
-6.67
-8.67
-1.0
-4.0
-5.67
4.0
0.0
-3.33
-2.33
1.0
4.0
3.67
-2.0
5.67
12.67
11.67
11.33
5.33
3.67
11.33
8.67
8.67
8.0
7.33
3.67
3.67
-3.33
11.0
-1.33
1.67
4.0
-5.0
-4.0
10.0
-3.67
0.0
-1.33
-2.67
10.33
4.67
3.33
-6.33
-1.0
-3.0
-0.33
3.67
2.67
4.33
-4.0
2.33
-1.33
1.67
6.0
-4.67
-2.0
-4.0
-0.67
1.0
-3.67
1.0
8.33
7.33
7.0
-3.0
5.67
-3.0
5.0
-2.67
1.33
5.0
10.0
-0.67
14.0
9.33
-1.67
5.33
-5.0
10.33
3.33
1.67
7.67
-3.0
-3.33
8.67
-0.67
7.0
8.33
-6.67
12.33
-6.33
-0.33
4.0
11.0
8.33
8.33
-1.67
3.33
4.0
7.33
7.33
-1.67
3.67
9.0
4.67
0.67
2.33
11.67
-1.0
-3.67
13.67
0.0
3.33
8.67
1.33
5.0
1.33
3.33
10.67
-1.0
0.33
8.0
-1.33
5.33
0.67
6.0
10.0
8.33
12.33
2.0
9.67
9.67
5.33
3.33
15.67
9.67
15.67
3.33
8.0
10.33
17.0
14.67
12.33
35.0
19.33
4.33
12.0
5.0
22.33
20.67
24.0
50.0
39.33
39.67
55.67
88.0
77.33
94.0
80.0
97.0
87.67
69.33
67.0
73.67
67.0
50.33
42.67
11.67
22.67
27.33
15.0
1.67
18.0
10.67
4.0
4.0
-2.67
2.0
10.67
-1.67
1.0
5.0
-2.33
1.0
3.33
1.67
-4.0
3.67
14.67
-1.67
10.67
-2.0
13.33
2.33
20.0
12.0
3.0
10.67
10.33
15.33
8.33
10.0
8.33
13.33
-5.0
1.67
-12.67
8.33
8.67
8.0
5.0
11.67
5.33
5.67
9.67
10.0
6.33
1.33
15.0
1.67
1.33
3.33
2.67
13.0
13.33
3.0
-0.67
5.67
8.67
1.67
5.33
12.33
7.0
-11.0
-7.67
-4.0
0.33
5.67
4.67
-4.33
10.33
1.67
-1.0
3.0
5.33
7.67
7.33
3.33
10.0
14.33
8.0
8.0
11.0
10.33
18.0
21.0
15.0
24.67
39.33
22.33
15.33
16.33
23.67
18.0
17.67
17.67
24.33
22.0
25.33
20.0
16.33
2.33
7.33
4.0
-5.0
1.67
3.67
5.33
8.0
-0.67
-3.0
0.0
-9.33
-1.67
16.67
16.0
7.67
9.33
-2.67
3.33
-0.33
9.67
10.33
3.33
19.0
-7.0
-8.67
7.0
0.0
-2.0
5.0
20.0
7.0
2.0
9.33
-0.33
22.33
0.0
3.67
8.0
7.33
21.33
5.67
0.0
-7.33
4.67
1.33
-6.67
5.0
-3.33
1.0
2.67
1.67
2.33
17.67
4.67
4.33
3.33
-11.33
0.33
2.0
0.33
-12.0
-1.33
0.67
9.33
2.0
7.67
10.0
2.33
4.0
-0.67
2.67
0.67
9.0
12.0
2.0
-5.67
-11.67
0.33
14.0
10.0
-4.0
3.67
-1.0
6.33
2.33
-7.67
5.33
3.67
16.0
1.33
2.67
5.67
9.67
0.33
-5.67
-4.33
-5.67
6.67
20.33
4.33
6.67
-11.0
3.33
11.0
-3.67
3.33
3.33
14.33
3.33
0.67
5.0
11.67
0.0
12.0
15.33
-0.67
1.0
0.0
6.67
2.0
-5.33
2.67
-6.33
0.33
-7.0
4.33
-5.67
-1.67
-1.33
4.0
3.33
1.67
-0.67
3.67
-3.0
3.0
1.0
1.67
11.0
0.33
3.67
2.0
-2.33
4.0
-7.0
2.67
6.33
2.67
2.67
-10.67
1.0
15.33
4.0
-2.0
6.67
-1.33
-5.67
4.0
0.33
4.33
-5.67
-4.0
0.0
-1.0
0.33
-2.0
1.0
1.0
2.67
-0.33
-2.33
3.33
0.67
7.67
12.0
3.0
2.67
4.0
7.33
3.33
6.33
3.0
7.0
3.67
1.67
2.0
1.33
-5.0
5.67
8.33
-3.0
5.33
-2.67
2.0
9.67
-3.0
5.0
10.33
-2.33
-4.0
-1.33
-2.33
0.67
6.67
3.0
10.67
-1.67
-0.67
9.33
1.0
5.67
-8.33
2.67
-5.33
-3.33
2.67
-7.33
-5.33
4.67
-1.0
-2.33
-2.33
1.33
0.67
8.67
-3.33
-1.33
-2.33
3.33
-4.33
2.0
4.33
-3.67
1.67
0.67
2.33
0.0
-5.33
-2.33
5.67
-0.33
-3.67
0.67
2.0
-3.67
10.67
4.67
-0.33
2.0
5.33
-3.0
2.0
3.67
1.67