File: EDX Back Ups and Old Files/Spectra copy 3.3.23/Samples/High pH SF 60C 6d/8.0.txt
0.0
-11.0
38.0
54.33
-14.33
73.0
54.0
54.33
-12.67
4.33
-33.67
20.0
7.33
0.33
9.33
6.0
0.67
-4.67
0.33
1.33
1.33
-0.67
0.0
-1.0
0.67
1.67
-0.67
1.0
1.0
0.67
0.0
0.33
-0.33
0.67
1.0
0.0
0.0
0.0
-0.33
0.33
1.67
-0.33
-0.33
-0.67
-0.33
-0.33
-1.33
0.33
-1.0
-0.33
-1.0
-1.67
3.67
-2.33
2.33
2.33
1.0
3.0
1.67
1.33
0.0
-1.67
5.0
-0.33
2.67
1.33
1.0
4.0
0.0
0.67
3.0
10.33
6.67
7.67
0.33
6.0
-2.33
1.33
5.67
1.33
-1.0
-0.33
4.0
9.0
1.67
1.0
-1.67
1.33
-3.67
-4.67
1.67
4.67
2.0
-3.67
2.33
-1.0
-1.0
2.67
-1.0
-0.67
8.67
-5.67
9.0
-3.33
2.0
5.33
1.33
8.67
1.0
8.33
2.33
0.67
3.67
6.67
-1.33
4.33
6.67
6.0
-1.33
-1.0
8.0
9.0
-2.67
-4.33
6.0
-5.67
6.67
-1.0
3.0
-4.33
-1.33
1.67
10.0
1.33
2.33
1.0
8.33
3.33
2.33
8.67
7.67
-2.33
4.33
1.67
1.67
0.67
3.0
3.0
-3.0
5.33
-2.33
0.0
-1.0
7.33
1.0
0.67
1.67
2.33
-3.0
-7.67
5.33
4.0
7.0
-3.33
-1.67
1.0
0.67
4.0
6.33
0.0
0.33
0.0
3.67
-2.33
4.33
-0.67
8.0
-3.33
3.33
3.33
1.0
13.0
4.33
-1.0
-4.33
1.0
1.0
-0.67
3.0
3.67
-2.0
-2.0
3.0
1.0
0.67
3.0
-3.0
1.0
-4.0
5.0
2.67
-4.33
-1.33
-4.0
3.33
10.33
4.0
1.67
-0.33
7.33
6.67
5.67
-2.33
4.0
-1.67
-1.0
-1.67
-1.0
0.33
2.33
0.67
2.67
-0.33
-2.33
-2.67
0.0
7.0
5.33
-0.67
-0.33
-0.33
4.33
1.67
3.0
8.0
-3.67
1.33
2.67
2.0
1.67
0.33
0.67
2.33
-3.33
2.33
-1.67
-1.33
-2.0
13.67
-3.67
0.67
0.67
-7.0
2.33
-5.33
-0.33
4.33
-2.33
2.67
-4.67
2.33
2.0
5.67
-1.33
-0.67
1.67
-1.67
2.0
0.33
-0.67
-0.67
0.33
3.33
1.0
-1.67
-1.67
-1.33
-4.67
0.67
1.33
0.0
-1.67
3.0
-4.0
1.0
2.0
-4.67
2.0
5.33
-1.33
6.0
-2.67
9.0
3.33
-1.0
0.0
-1.0
-3.0
-1.33
2.33
0.0
3.0
6.0
2.0
2.33
0.0
5.0
0.0
3.33
1.0
-3.67
-3.33
-7.33
2.0
0.0
2.0
-3.0
-1.67
-7.0
-3.0
-2.33
-1.0
-5.33
3.33
-1.67
1.0
-5.67
-3.0
-4.0
3.33
-4.33
1.0
2.0
-2.0
-1.67
-3.0
2.0
-6.33
-3.67
-4.67
-2.33
-4.0
0.0
-1.67
-3.67
-6.67
-5.67
-1.67
-4.0
1.33
-0.33
-3.0
-0.67
-3.0
-2.67
-7.0
-5.67
-2.0
-2.67
2.0
-5.0
-4.33
-3.67
-2.67
-4.67
-4.67
-4.67
-3.0
-0.33
-4.33
-6.33
-1.0
2.33
5.67
-7.33
-4.33
-8.33
2.67
-4.67
-3.0
-6.67
-3.67
-4.0
-14.0
-6.0
-6.0
-2.0
2.67
-1.0
-1.67
-1.67
1.0
-9.33
-2.33
-4.33
-5.0
0.67
-1.33
4.0
10.0
2.0
6.67
18.0
21.67
31.0
15.0
38.0
24.0
23.33
22.0
16.0
8.67
13.33
-1.33
10.0
-0.33
0.67
-4.0
3.67
3.67
2.0
-1.67
2.0
5.0
-1.67
-1.67
-4.67
-4.33
-9.0
3.33
-9.33
0.67
-6.0
4.0
2.67
-11.0
-7.33
-10.67
-10.0
-12.67
-4.33
4.0
-5.33
-2.67
-5.33
-3.0
-0.67
5.33
-1.0
-7.0
-3.33
-2.67
2.67
-2.0
-6.33
-8.67
-0.67
3.0
0.33
-12.33
-3.0
-9.33
-7.33
-12.67
-9.0
-13.0
-6.67
-6.67
-5.0
-9.33
-1.0
-7.0
-6.33
-2.33
-4.0
-8.67
-3.67
-8.67
-4.0
-1.67
-2.67
-0.67
-6.0
-0.67
-5.33
-4.67
-6.0
-8.67
0.33
3.33
-7.0
2.67
-8.0
-7.67
0.33
-10.33
2.33
-0.33
3.0
2.33
-10.67
-7.67
-1.0
-9.0
-8.67
5.0
-5.0
0.67
3.67
4.0
3.0
3.67
-1.0
0.67
16.67
13.67
14.33
20.33
17.67
5.33
15.67
4.67
9.0
0.33
10.67
-2.33
-4.33
1.0
-7.33
-2.33
4.0
-4.0
2.0
-2.0
-3.67
1.0
-3.33
0.33
-3.67
-3.33
3.33
-6.33
7.0
2.0
4.67
0.67
-1.33
5.33
3.0
11.33
7.67
0.67
3.0
5.33
12.0
-5.0
-3.67
-4.0
4.33
1.0
1.33
8.33
7.0
-3.0
4.67
2.0
1.0
-0.67
4.33
1.0
5.0
-7.67
13.0
0.33
1.33
13.33
3.0
3.33
2.33
-0.33
7.67
2.0
2.67
7.67
3.33
3.0
-2.67
-1.67
3.33
-0.33
20.67
-7.0
16.0
11.33
8.33
2.33
8.33
3.0
1.33
0.33
-4.67
-2.33
1.0
0.67
-1.33
-0.67
6.67
-1.0
8.33
10.67
3.0
10.33
3.67
7.33
7.0
5.33
10.33
4.67
0.0
0.33
8.0
-1.33
12.33
4.67
13.0
18.0
-0.67
3.33
3.0
2.67
10.67
-0.67
5.33
2.67
-0.33
4.67
14.33
8.0
10.33
14.0
15.67
6.33
12.0
19.33
25.33
13.0
5.0
30.33
23.67
32.0
28.0
31.33
69.67
49.67
57.0
57.33
93.0
80.0
92.0
91.67
94.33
90.0
88.67
64.0
50.33
31.67
23.67
24.67
21.33
16.0
16.67
7.0
13.67
-7.0
6.0
-1.67
-1.0
8.67
11.33
6.0
2.0
6.67
6.0
10.33
-0.33
2.0
1.67
15.67
-0.67
4.67
-1.0
6.33
7.33
11.0
12.0
3.0
6.67
11.33
14.33
13.33
16.0
14.33
-4.67
5.0
13.67
-5.67
-2.67
4.67
18.0
-1.0
22.67
1.33
12.67
17.67
8.0
6.33
1.33
10.0
8.67
4.33
-0.67
1.67
14.0
1.33
-7.0
5.33
10.67
10.67
6.67
11.33
7.33
13.0
-2.0
3.33
7.0
5.33
-0.33
-0.33
5.67
12.33
3.67
-5.0
-5.0
-3.67
3.67
14.33
3.33
6.0
7.33
12.0
7.0
23.0
2.33
28.0
19.0
18.0
25.67
20.33
8.33
30.33
13.33
34.67
14.0
23.67
37.67
27.33
4.0
14.33
27.0
6.33
3.33
6.33
8.0
11.0
12.67
-3.33
-2.67
1.0
-0.67
0.0
1.0
-8.33
11.33
8.67
6.0
5.67
-4.67
10.33
11.33
0.67
13.67
6.33
-3.67
3.0
13.0
0.33
7.0
14.0
10.0
11.0
6.0
3.0
11.0
15.33
11.67
8.33
5.0
2.67
-3.0
7.33
11.33
4.67
5.0
-0.33
12.67
11.33
1.33
10.0
15.67
-5.0
7.67
-2.33
3.33
6.67
2.67
6.33
4.33
-1.33
7.33
-1.0
0.33
1.0
-5.33
4.67
7.33
12.0
-0.33
13.0
11.33
-4.0
-4.67
-2.33
4.67
11.0
8.0
6.0
0.33
-0.67
2.33
3.0
4.0
5.0
9.67
-6.0
-0.67
-0.67
-3.67
-3.67
9.67
3.0
-6.67
11.67
3.67
2.67
-3.67
-0.67
3.67
-7.67
11.67
6.33
11.33
3.67
5.0
8.33
7.0
6.33
5.33
5.33
6.33
4.33
2.67
-5.0
2.67
10.0
-1.0
-0.67
-3.67
4.0
9.0
10.67
3.0
-2.33
1.67
1.67
5.33
-1.0
3.33
3.33
3.33
4.67
-8.0
5.33
8.67
6.33
0.67
1.0
3.0
3.0
-1.33
2.0
1.33
-4.33
8.0
3.67
-4.0
-4.0
8.67
2.33
2.67
2.67
7.33
-2.0
-3.67
-2.0
8.0
-6.33
-6.33
-4.67
-1.0
4.33
2.33
7.33
-4.0
-7.0
-4.0
10.33
11.0
2.0
4.0
1.67
-1.33
-8.33
-5.67
7.67
1.67
3.0
-1.0
5.67
12.0
6.33
4.33
1.33
0.0
6.0
4.67
8.67
-3.0
0.33
7.0
4.67
3.33
-5.0
9.33
7.33
8.0
-2.33
1.0
0.0
4.33
4.67
-1.0
-0.33
7.67
-0.33
3.67
1.0
0.67
-2.67
-1.67
1.33
-5.0
1.67
-5.33
-1.33
-0.33
-4.33
-2.33
-3.33
-0.33
-2.33
-1.0
-1.33
0.67
3.33
-0.33
4.67
6.67
-1.33
3.67
1.33
-0.33
7.0
1.33
7.33
-1.33
0.67
3.33
-1.0
-1.33
-1.33
1.67
1.67
-2.67
0.67
5.0
-4.67
-1.33
3.67
2.67
3.0
0.33
4.0
2.0
0.67
5.67