File: EDX Back Ups and Old Files/Spectra copy 3.3.23/Samples/High pH SF 60C 6d/8.5.txt
0.0
-37.0
-68.0
-31.67
-105.33
-32.0
-5.0
-74.67
5.33
24.33
-20.67
-3.0
-2.67
-14.67
-17.67
0.0
1.67
-4.67
1.33
-1.67
0.33
-0.67
-1.0
-1.0
-0.33
0.67
2.33
0.0
1.0
0.67
-1.0
-0.67
-0.33
-0.33
2.0
0.0
0.0
0.0
0.67
-0.67
-0.33
-0.33
-0.33
-0.67
0.67
0.67
-1.33
-0.67
-1.0
0.67
2.0
-0.67
1.67
0.67
-0.67
0.33
-1.0
2.0
0.67
4.33
2.0
5.33
4.0
0.67
-1.33
3.33
1.0
-3.0
5.0
1.67
-2.0
2.33
-2.33
-1.33
-1.67
1.0
-1.33
-2.67
6.67
1.33
-4.0
3.67
-3.0
2.0
3.67
1.0
3.33
6.33
-2.67
-9.67
-3.33
2.67
10.0
5.33
2.33
-2.0
-3.0
1.67
-3.0
2.33
1.67
-3.67
4.0
-1.33
-5.0
6.33
2.33
-2.33
3.0
5.33
0.33
-7.33
-1.33
-1.33
-5.33
2.33
5.67
3.0
-1.33
3.0
6.0
1.0
2.33
2.67
-1.0
-0.67
-0.33
2.0
5.0
0.67
8.67
1.67
9.0
1.33
4.33
0.0
3.33
-1.67
3.33
4.67
-1.33
-4.33
5.33
-3.33
-2.33
-2.33
-6.0
-7.0
-2.0
9.33
1.67
7.0
1.0
6.33
6.0
0.67
9.67
3.33
4.0
-1.67
0.33
10.0
1.0
6.67
-2.67
2.0
0.67
4.0
-2.67
3.0
9.33
-1.0
1.67
-0.33
0.33
8.33
5.0
-2.33
6.33
0.33
2.0
3.0
3.33
-2.0
-3.33
2.0
-4.0
0.33
-2.0
3.67
4.0
5.0
3.0
3.0
7.67
-3.0
3.0
1.0
-6.0
4.0
1.67
-0.33
2.67
-1.0
4.33
7.33
1.0
1.67
-3.33
1.33
2.67
-2.33
5.67
5.0
3.33
3.0
1.33
1.0
2.33
0.33
0.67
3.67
-3.33
2.67
3.33
-5.0
4.0
0.33
0.33
2.67
4.67
5.33
5.67
-1.0
4.0
0.33
-1.67
3.67
0.0
-2.33
-1.67
-2.33
11.33
-4.33
-0.67
-2.67
2.67
-4.0
2.67
4.33
1.67
4.67
-3.0
2.33
-4.33
-2.33
3.33
2.67
2.67
-1.67
2.33
-2.0
-1.33
0.67
-1.67
4.67
-2.67
6.0
0.33
-0.67
-1.67
-1.67
2.33
-2.0
-1.67
-3.67
4.67
0.33
-3.33
-0.67
-2.0
0.33
2.0
-4.0
-3.0
-1.0
1.33
-1.0
-0.67
-5.33
-1.0
-0.67
2.0
0.33
-1.0
-3.0
2.0
4.0
0.67
-0.67
3.0
-5.0
0.0
3.0
0.33
2.0
2.0
0.0
2.33
-5.0
-3.67
-2.33
-5.33
0.0
-2.0
1.0
-2.0
0.33
-5.0
1.0
-2.33
-1.0
-1.33
1.33
-4.67
-1.0
-1.67
-3.0
-3.0
-2.67
-5.33
1.0
-1.0
-1.0
4.33
-4.0
-2.0
-4.33
-4.67
-1.67
0.67
-1.0
2.0
-1.67
-2.67
-7.67
-4.67
0.33
-3.0
2.33
0.67
-5.0
0.33
-1.0
-1.67
-6.0
-7.67
3.0
-2.67
-6.0
-4.0
-4.33
-6.67
-3.67
-8.67
-2.67
-1.67
-5.0
-4.33
-6.33
-1.33
1.0
3.33
-4.33
-2.33
0.67
-4.33
-0.33
-4.67
0.0
-7.67
-1.67
-5.0
-8.0
-9.0
-2.0
-2.0
-5.33
1.0
-1.67
-3.67
-2.0
2.67
-3.33
-5.33
-4.0
-3.33
-2.33
1.0
9.0
1.0
2.67
12.0
6.67
22.0
16.0
31.0
23.0
22.33
15.0
17.0
15.67
4.33
4.67
1.0
2.67
-2.33
-2.0
2.67
-5.33
-4.0
-8.67
-3.0
-1.0
-1.67
3.33
1.33
-0.33
0.0
-5.67
-10.33
-4.33
6.0
0.0
-7.33
0.0
-5.33
-9.67
-4.0
-2.67
-8.33
-2.0
-5.33
-6.67
-2.33
0.0
-11.67
-2.67
-3.0
-7.0
-7.33
-1.67
-3.33
-9.0
-2.33
-8.67
-6.67
-2.0
-2.67
-8.33
-7.0
-10.33
-9.33
-1.67
-1.0
-11.0
-2.67
-5.67
3.0
-6.33
5.0
-11.0
1.67
-0.33
-7.0
-8.67
-4.67
-8.67
-6.0
-1.67
-6.67
-6.67
-5.0
-2.67
-5.33
-5.67
-7.0
-4.67
8.33
-3.67
-1.0
-7.33
-5.0
-1.67
-2.67
-3.33
0.33
-8.33
1.0
-5.67
-4.67
-8.67
-6.0
1.0
1.33
1.0
3.0
4.67
-3.33
-9.0
5.0
-3.33
2.0
5.67
1.67
3.67
3.33
11.33
12.67
9.33
15.67
14.67
8.0
0.33
4.67
2.67
-10.33
7.0
-7.33
7.67
2.0
-3.0
-3.0
1.0
-6.67
-4.0
5.67
4.33
4.33
-1.33
-0.67
2.67
-1.0
-5.0
1.67
-0.33
8.67
6.33
4.0
1.33
3.67
4.67
-2.0
-3.67
3.0
4.0
2.33
5.0
2.33
4.0
-5.67
2.33
6.0
4.0
7.67
-3.0
6.0
6.33
0.33
5.0
1.0
-3.67
10.0
11.33
-1.67
10.33
4.0
2.33
0.33
6.67
14.67
2.0
6.67
8.67
1.33
-2.0
4.33
6.33
19.33
10.67
2.67
9.0
20.0
3.33
9.33
2.33
4.33
4.0
-0.67
7.33
-1.67
-1.33
5.0
-4.33
17.67
0.33
4.67
13.0
6.33
8.67
8.0
11.33
7.67
8.33
10.0
-0.67
6.33
2.67
-2.0
1.33
9.0
-7.33
3.33
1.67
6.0
4.0
7.33
7.33
5.0
10.67
4.67
8.33
9.33
13.67
10.67
15.67
2.33
15.0
-2.67
18.0
7.67
12.33
19.0
10.33
14.33
18.0
19.0
22.33
27.67
26.0
32.0
41.33
53.67
63.67
87.0
99.33
90.0
88.0
102.0
111.67
63.33
79.0
87.67
80.0
68.33
52.67
26.67
18.67
17.33
3.0
5.67
5.0
22.67
-2.0
-1.0
-5.67
1.0
7.67
16.33
9.0
5.0
11.67
9.0
9.33
-0.33
9.0
2.67
3.67
8.33
15.67
4.0
6.33
-2.67
7.0
3.0
5.0
9.67
8.33
12.33
15.33
7.0
18.33
5.33
5.0
4.67
-2.67
9.33
-0.33
12.0
9.0
5.67
10.33
6.67
13.67
14.0
8.33
9.33
1.0
7.67
1.33
-1.67
6.67
4.0
3.33
2.0
3.33
3.67
4.67
1.67
5.33
7.33
11.0
-2.0
1.33
3.0
3.33
8.67
4.67
-4.33
12.33
0.67
-5.0
8.0
5.33
3.67
-3.67
12.33
4.0
15.33
13.0
13.0
0.0
10.33
12.0
18.0
28.0
20.67
30.33
9.33
33.33
15.33
13.67
21.0
26.67
15.67
17.33
19.0
14.33
29.0
23.33
11.33
10.33
8.0
6.0
-2.33
5.67
10.33
-3.0
10.33
7.0
-3.0
-4.33
1.33
-1.33
6.0
-1.33
3.33
11.33
2.33
5.67
13.67
6.33
7.33
9.0
7.0
5.33
1.0
5.0
-2.0
4.0
-3.0
-6.0
2.0
10.33
0.67
10.33
-3.0
-5.33
-3.0
5.33
8.33
-1.33
1.0
-12.33
1.67
8.33
-3.67
9.0
3.67
-7.0
2.67
-7.33
-2.67
9.67
9.67
3.33
2.33
9.67
-6.67
-1.0
10.33
-2.0
5.67
-0.33
0.33
4.0
-1.33
-1.0
9.33
8.0
-1.67
-3.33
5.67
9.0
3.0
2.0
-4.67
0.33
6.33
-1.0
-9.0
-9.0
4.67
5.0
3.33
1.33
-2.67
8.33
4.67
1.0
1.33
9.67
3.67
2.67
-2.67
7.33
2.67
-2.67
9.67
2.33
8.33
7.67
-3.0
13.33
11.0
2.33
3.33
1.33
-0.67
4.33
-1.33
10.0
5.67
1.0
5.0
-0.67
4.33
6.0
4.0
1.67
3.0
4.67
1.67
-1.33
-4.67
2.0
-1.67
2.33
5.33
-2.33
5.0
2.33
3.67
-2.67
0.67
-9.0
6.0
-6.0
-6.33
5.0
5.33
-4.33
6.0
-4.33
0.0
-6.0
0.67
1.33
5.67
5.67
1.33
-1.0
-2.67
2.0
0.0
0.67
-0.33
-3.67
6.0
-1.67
0.33
3.33
-2.0
5.0
-4.0
2.33
8.0
4.0
-1.0
0.67
-1.33
0.67
-6.67
4.67
-1.33
0.0
6.0
-1.33
-7.0
4.33
1.33
5.33
3.0
-1.0
-1.33
2.67
-4.0
5.33
-2.0
9.67
2.33
5.0
2.33
-3.67
4.0
2.67
-4.0
2.0
6.33
6.67
2.0
-3.33
10.67
6.67
7.67
-4.0
3.67
-5.67
3.33
0.33
3.0
-0.33
-5.33
-0.33
-0.33
-2.33
1.67
-0.33
2.67
3.67
3.0
-4.33
-1.33
4.33
-1.33
-0.33
0.67
-3.33
-4.33
2.33
2.67
0.0
2.33
7.33
-4.33
8.67
-1.67
-2.0
-1.33
-7.33
2.67
-1.33
6.33
1.67
5.0
1.33
-2.33
-2.33
-6.33
-3.0
5.33
-1.0
0.0
1.67
0.67