File: EDX Back Ups and Old Files/Spectra copy 3.3.23/Samples/High pH SF 60C 6d/9.0.txt
0.0
-47.0
-40.0
-4.67
-82.33
19.0
5.0
3.33
-1.67
22.33
33.33
10.0
25.33
7.33
-14.67
2.0
-0.33
-0.67
2.33
1.33
2.33
1.33
-1.0
0.0
0.67
-0.33
-0.67
0.0
0.0
-0.33
0.0
-0.67
-0.33
-0.33
2.0
0.0
-1.0
1.0
-0.33
-0.67
-0.33
1.67
-0.33
-0.67
0.67
1.67
-0.33
-0.67
-1.0
-0.33
-2.0
-1.67
1.67
-0.33
2.33
0.33
2.0
0.0
-0.33
3.33
1.0
-1.67
2.0
-0.33
3.67
0.33
-2.0
-1.0
3.0
3.67
0.0
4.33
2.67
1.67
1.33
5.0
-0.33
1.33
-2.33
-3.67
-2.0
-1.33
5.0
5.0
-1.33
0.0
-2.67
10.33
0.33
-2.67
2.67
0.67
1.0
7.33
5.33
8.0
-2.0
6.67
-4.0
2.33
2.67
0.33
0.0
-2.33
-1.0
4.33
6.33
-4.33
-2.0
9.33
2.33
-2.33
2.67
1.67
1.67
1.33
-3.33
5.0
6.67
6.0
3.0
7.0
8.33
8.67
-2.0
4.33
2.67
-1.0
5.0
-1.33
6.67
-3.33
2.0
9.33
0.33
-3.0
-0.67
0.33
5.33
8.67
-0.33
-3.33
6.33
2.67
-4.33
-2.33
-5.0
-4.0
3.0
1.33
-2.33
1.0
3.0
8.33
-1.0
3.67
11.67
-2.67
0.0
-2.67
5.33
3.0
-4.0
-1.33
2.33
2.0
5.67
-2.0
-4.67
2.0
-3.67
6.0
1.67
-3.33
-0.67
4.33
4.0
-1.33
2.33
-2.67
4.0
3.0
5.33
2.0
1.67
4.0
-9.0
11.33
0.0
0.67
2.0
0.0
4.0
3.0
1.67
-2.0
-2.0
4.0
5.0
-2.0
-2.33
-3.33
-4.33
1.0
3.33
6.33
1.0
3.67
-1.33
4.33
1.67
1.67
1.67
5.0
2.33
1.0
-3.67
-3.0
-0.67
-1.67
3.67
-4.33
-1.33
-3.33
3.33
0.0
3.0
1.33
0.33
2.67
3.67
2.33
2.67
0.0
2.0
2.33
-1.67
0.67
-1.0
3.67
5.33
0.67
4.33
-4.33
3.33
1.33
3.67
-2.0
6.67
-0.67
-1.33
0.67
0.0
0.33
-3.33
1.67
2.33
1.67
2.67
-7.67
0.33
3.0
-0.33
-0.33
2.33
9.67
-4.67
3.0
4.33
0.33
-1.67
2.33
3.33
0.0
-0.67
4.33
-3.33
-0.67
1.67
0.33
-1.0
2.33
3.0
-1.0
-2.0
5.0
1.33
0.0
4.33
0.67
-1.0
-4.67
2.0
1.33
-1.0
1.0
3.0
-2.0
-0.33
0.33
2.0
2.0
3.0
0.0
-3.67
3.0
-1.0
1.0
-0.67
-2.0
-2.67
-1.33
-3.33
-4.0
-5.0
-2.0
-6.0
-4.67
-4.0
-6.0
-2.33
0.0
-4.33
1.33
-4.67
0.0
-5.67
-1.0
-4.0
1.33
-5.33
-3.0
-2.0
-1.0
-2.67
-4.0
-5.0
1.67
-5.67
-3.67
-1.33
-2.0
1.0
-3.67
-2.67
-7.67
-6.67
1.33
0.0
2.33
-1.33
-3.0
-1.67
0.0
-3.67
-5.0
-2.67
-7.0
-4.67
-3.0
-8.0
-3.33
1.33
-3.67
-5.67
-9.67
-3.67
-7.0
1.67
-5.33
-6.33
-10.0
-1.67
-3.33
-8.33
-2.33
-7.33
1.67
-3.67
-7.0
-6.67
-0.67
-1.0
-5.0
1.0
-2.0
-4.0
-0.33
-3.0
-0.67
-2.67
-8.0
-2.33
-1.33
-6.33
3.0
-0.33
1.67
0.0
4.0
9.0
8.67
18.0
10.67
13.0
20.0
24.0
24.0
34.33
22.0
13.0
11.67
-0.67
3.67
9.0
-2.33
1.67
-6.0
-0.33
-6.33
-10.0
-6.67
-8.0
-3.0
5.33
-1.67
-7.67
-9.33
-6.0
-1.67
-10.33
0.67
1.0
-4.0
-9.33
-9.0
-6.33
-8.67
-7.0
-2.67
-10.33
5.0
-5.33
-1.67
-1.33
2.0
-2.67
0.33
-5.0
-1.0
-3.33
0.33
5.67
-8.0
5.67
-7.67
-4.67
2.0
-12.67
-7.33
-5.0
-16.33
-10.33
-7.67
-8.0
-6.0
-8.67
-3.67
4.0
-6.33
-2.0
-8.0
1.67
-2.33
-7.0
-11.67
1.33
-9.67
-7.0
1.33
-2.67
0.33
-8.0
-3.67
-0.33
-2.67
-10.0
-8.67
-6.67
0.33
-3.0
-1.33
-5.0
-5.67
0.33
-0.33
4.33
-4.33
5.0
-5.67
-6.67
-11.67
-5.0
-8.0
3.33
5.0
-8.0
5.67
2.67
1.0
0.0
-3.33
1.0
7.67
7.67
8.67
14.33
24.33
23.67
13.33
17.67
9.67
13.0
12.33
-4.33
3.67
-6.33
5.0
1.67
3.67
7.0
-7.0
8.0
-1.0
-7.67
-1.0
7.67
-2.67
5.33
-1.33
-1.67
-3.33
4.0
-1.0
10.67
-0.33
-1.33
3.33
-7.0
4.33
-0.33
4.67
-4.0
3.33
2.0
0.0
1.33
4.0
-2.67
3.0
-2.67
5.33
6.0
-3.0
12.67
-3.0
3.0
7.33
-7.67
7.0
7.0
5.33
1.0
1.33
6.33
16.33
-4.0
-1.67
10.33
5.67
1.67
-2.0
3.67
4.67
0.33
-10.0
6.33
5.33
1.33
10.67
-1.33
2.0
13.0
13.33
-2.67
2.33
-1.67
-6.0
-1.67
6.33
2.33
4.67
2.0
9.67
-0.33
2.33
5.67
-1.0
3.33
8.67
14.0
7.33
11.67
8.33
4.0
5.33
-3.67
-5.33
4.0
-3.67
10.0
0.67
-4.67
-3.33
7.0
9.0
1.33
6.33
6.0
3.67
4.67
10.33
4.33
12.67
6.67
6.67
9.33
1.0
3.33
20.0
12.67
11.33
13.0
11.33
14.33
12.0
23.0
33.33
30.67
37.0
32.0
57.33
56.67
90.67
70.0
109.33
126.0
117.0
130.0
103.67
91.33
103.0
91.67
65.0
74.33
57.67
33.67
34.67
20.33
17.0
4.67
0.0
22.67
-2.0
17.0
-0.67
-8.0
8.67
10.33
6.0
3.0
17.67
1.0
13.33
-2.33
-2.0
-4.33
6.67
0.33
6.67
-4.0
13.33
5.33
4.0
13.0
-2.0
13.67
3.33
9.33
17.33
13.0
15.33
6.33
-2.0
11.67
-1.67
7.33
2.67
12.0
3.0
22.67
11.33
7.67
6.67
10.0
17.33
5.33
11.0
10.67
6.33
6.33
8.67
7.0
-5.67
2.0
3.33
9.67
4.67
-1.33
2.33
10.33
7.0
1.0
0.33
2.0
2.33
1.67
-6.33
3.67
-4.67
2.67
6.0
9.0
11.33
6.67
6.33
4.33
-3.0
9.33
18.0
5.0
3.0
13.33
10.0
6.0
23.0
13.67
35.33
8.33
21.33
18.33
24.67
10.0
5.67
21.67
29.33
6.0
14.33
25.0
16.33
16.33
3.33
9.0
2.0
19.67
1.67
0.33
2.0
8.33
7.0
7.0
-6.33
5.33
13.67
5.0
-1.33
6.33
11.33
14.33
4.67
-0.33
11.33
-1.67
6.0
-2.0
10.33
11.0
29.0
-2.0
8.0
2.0
8.0
7.0
6.33
6.67
20.33
3.0
-2.33
24.0
-5.67
8.33
0.67
6.0
-5.33
9.67
4.33
-3.67
14.0
3.67
7.0
6.67
5.67
11.33
5.67
6.67
9.33
-4.67
5.67
-4.67
-1.0
-2.67
1.0
1.67
0.67
16.33
3.0
6.67
3.0
10.33
4.0
1.33
-4.33
-1.33
7.0
2.0
1.0
-9.67
1.33
-2.67
-5.0
-3.0
1.0
3.67
-4.0
8.33
-7.67
-0.67
-3.67
2.67
1.0
-11.67
2.67
-6.33
-3.33
-4.67
-3.67
-2.33
-1.67
16.67
11.33
11.33
1.67
15.0
3.33
-2.0
0.33
7.33
4.33
2.33
3.33
9.67
0.0
14.67
5.0
6.0
-1.67
-6.67
-3.0
3.0
11.67
1.0
-1.33
1.67
-4.33
3.33
-6.0
10.33
7.33
-3.67
-0.33
-4.0
3.33
-1.33
-5.67
2.67
-6.0
1.0
3.0
6.67
-1.0
4.33
-1.33
5.0
-2.33
-11.0
1.0
5.67
6.33
0.67
0.67
-7.67
-4.0
-7.67
-1.0
-2.0
-6.33
0.67
8.33
-6.0
-8.67
-2.67
1.33
-11.0
-1.0
-1.0
6.33
1.0
7.0
1.0
0.67
-0.33
1.67
10.33
3.67
2.67
7.0
1.0
6.67
6.0
-0.67
-3.67
7.33
-4.0
-2.0
2.67
0.67
2.0
1.33
-3.0
7.67
3.33
6.0
5.33
6.33
3.0
-1.33
6.0
-3.0
-1.67
3.67
8.0
-2.33
-0.33
3.67
8.67
-2.0
-3.33
-6.67
2.33
1.33
0.0
-0.33
-6.33
11.67
-7.33
1.67
2.67
-2.33
-0.33
-3.33
2.0
-4.33
4.67
-1.67
3.67
5.67
-7.33
2.67
-2.33
0.33
-1.33
-1.0
-4.67
-1.67
-2.33
0.67
-1.67
1.0
-0.33
-3.33
2.67
0.67
5.33
3.67
2.0
-2.67
4.67
4.67
-2.33
6.0
-0.67
2.0
6.0
2.67
-0.33