File: EDX Back Ups and Old Files/Spectra copy 3.3.23/Samples/High pH SF 60C 6d/9.5.txt
0.0
-5.0
37.0
17.33
-48.33
3.0
45.0
-13.67
26.33
-3.67
32.33
18.0
9.33
15.33
12.33
14.0
2.67
-4.67
0.33
1.33
-0.67
0.33
0.0
-1.0
-0.33
-0.33
-0.67
0.0
0.0
-0.33
-1.0
-0.67
-0.33
-0.33
0.0
0.0
0.0
1.0
-0.33
-0.67
-0.33
-0.33
-0.33
1.33
0.67
0.67
-0.33
1.33
0.0
0.67
-1.0
-0.67
0.67
-1.33
3.33
2.33
-1.0
0.0
-2.33
3.33
-3.0
2.33
5.0
-3.33
-1.33
5.33
1.0
0.0
0.0
2.67
0.0
5.33
2.67
0.67
5.33
5.0
-1.33
3.33
6.67
0.33
1.0
6.67
1.0
5.0
-0.33
1.0
-6.67
-4.67
4.33
-2.67
7.67
5.67
11.0
2.33
4.33
12.0
-3.0
-2.33
0.0
3.33
0.67
-8.67
5.0
-0.33
1.0
5.33
5.33
-2.33
-1.0
7.33
1.33
-3.33
4.67
7.67
-1.33
-3.67
-2.33
4.0
-2.33
2.0
2.0
2.0
-2.67
1.67
5.0
-1.67
-0.33
-5.0
9.0
0.67
-0.33
-0.33
2.0
7.33
-1.67
-6.0
9.33
1.33
2.33
1.67
5.67
-2.33
4.33
4.67
1.67
-2.33
-4.0
-3.0
-1.0
7.33
0.67
8.0
1.0
12.33
0.0
-7.33
5.67
3.33
2.0
2.33
0.33
-1.0
0.0
7.67
-1.67
0.0
-0.33
6.0
-0.67
5.0
6.33
8.0
3.67
-3.33
0.33
7.33
0.0
0.67
8.33
-0.67
3.0
-3.0
-1.67
-1.0
-1.33
3.0
-4.0
2.33
0.0
1.67
2.0
2.0
4.0
0.0
0.67
0.0
-3.0
1.0
-1.0
3.0
0.67
4.67
2.67
-2.0
4.33
6.33
6.0
2.67
-3.33
7.33
1.67
-3.33
2.67
6.0
-4.67
3.0
-0.67
-3.0
2.33
-0.67
-1.33
5.67
-0.33
0.67
3.33
-4.0
2.0
0.33
-2.67
-3.33
4.67
1.33
-0.33
-5.0
2.0
3.33
-0.67
-2.33
-4.0
0.67
2.33
-1.33
-0.67
2.67
3.33
-5.67
2.67
-1.0
-0.33
3.33
3.67
3.67
0.0
-3.67
-2.33
1.67
1.33
-2.33
-2.33
-0.67
-2.67
4.0
3.67
0.67
0.33
2.67
-1.67
0.0
1.33
0.33
2.33
2.33
2.33
5.0
-0.67
2.33
-2.33
0.33
-1.33
1.33
1.0
-1.67
-1.0
-1.0
6.0
-2.0
-1.67
-1.0
2.33
2.67
3.0
-4.67
4.0
1.33
-2.0
0.0
5.0
-2.0
-1.33
-2.67
-1.0
-1.0
-1.0
3.0
-1.67
0.0
-3.0
2.0
-2.67
-2.0
-1.67
-4.33
-5.33
-3.0
-2.0
3.0
-3.0
3.33
-5.0
-5.0
-3.33
1.0
-3.33
6.33
-2.67
-2.0
-6.67
0.0
-1.0
0.33
-3.33
2.0
-2.0
1.0
7.33
-3.0
1.0
0.67
-6.67
-1.67
-0.33
-3.0
2.0
-6.67
2.33
-8.67
-6.67
-2.67
-2.0
5.33
-1.33
-1.0
-1.67
-6.0
-4.67
-2.0
-2.67
-7.0
-3.67
-1.0
-5.0
-3.33
-5.67
0.33
-9.67
-6.67
0.33
-4.0
-2.33
-3.33
-7.33
4.0
-3.67
-1.33
-10.33
2.67
-5.33
3.67
-7.67
-6.0
-5.67
-0.67
-1.0
-11.0
-8.0
4.0
-11.0
-7.33
-4.0
-2.67
0.33
-1.0
0.67
-1.33
-3.33
-1.0
-6.33
-4.33
-1.0
6.0
-5.0
5.67
2.0
13.67
15.0
7.0
16.0
22.0
20.33
3.0
11.0
-0.33
-1.67
-0.33
1.0
-7.33
-4.33
-7.0
-1.33
-4.33
-9.0
-10.67
6.0
3.0
-5.67
-2.67
-6.67
-8.33
-3.0
-1.67
-8.33
5.67
2.0
6.0
-11.33
-5.0
-9.33
-9.67
-8.0
-4.67
-5.33
-2.0
-9.33
-0.67
3.67
1.0
-8.67
-7.67
-2.0
-3.0
-12.33
1.33
0.67
-2.0
-4.33
-3.67
-9.67
-1.0
0.33
-6.33
-6.0
-7.33
-8.33
-4.67
-7.0
-5.0
0.33
-6.67
0.0
-5.33
0.0
-5.0
-5.33
2.67
-2.0
-10.67
-4.67
-4.67
8.0
7.33
-10.67
0.33
-8.0
-5.67
-11.33
-5.67
-6.0
-8.67
-0.67
-1.67
-2.0
-9.33
-10.0
-1.67
-4.67
-3.33
-3.67
-6.33
-1.0
-1.67
4.33
2.33
5.0
-2.0
-4.67
0.0
-5.0
-0.33
0.67
7.0
9.0
4.67
6.0
3.67
14.67
18.67
7.33
16.33
17.67
20.33
18.67
12.67
23.0
10.33
-4.33
-6.33
1.67
1.0
-7.33
6.67
9.0
-4.0
1.0
-1.0
3.33
1.0
2.67
-4.67
5.33
-1.33
-0.67
1.67
6.0
-8.0
1.67
10.67
6.67
-1.67
1.0
9.33
0.67
-0.33
-2.0
2.33
9.0
6.0
3.33
1.0
2.33
4.0
-12.67
9.33
2.0
-4.0
9.67
-2.0
6.0
-3.67
3.33
6.0
-5.0
4.33
3.0
15.33
0.33
-3.67
16.0
3.33
7.33
0.67
8.67
-1.0
-11.33
11.67
5.33
0.0
3.33
-3.67
11.33
4.67
3.67
9.0
16.0
22.33
9.33
1.33
4.33
4.0
7.33
5.33
-4.67
3.67
12.0
14.67
6.67
12.33
6.67
11.0
5.33
9.67
2.0
7.33
8.67
6.33
4.0
6.33
1.33
2.67
1.0
2.33
3.0
3.67
10.33
0.67
7.0
15.0
16.33
6.33
8.0
6.67
12.67
6.33
1.33
13.67
3.67
14.67
6.33
9.0
8.33
16.0
15.67
10.33
12.0
14.33
8.33
13.0
37.0
19.33
25.67
23.0
44.0
56.33
77.67
84.67
104.0
137.33
124.0
159.0
133.0
125.67
135.33
113.0
67.67
98.0
60.33
74.67
38.67
24.67
30.33
23.0
14.67
0.0
13.67
-7.0
27.0
-4.67
7.0
6.67
3.33
12.0
10.0
9.67
-8.0
5.33
-8.33
-6.0
-0.33
18.67
12.33
21.67
1.0
13.33
5.33
15.0
12.0
7.0
6.67
-2.67
1.33
16.33
-2.0
17.33
7.33
5.0
4.67
-1.67
6.33
3.67
7.0
3.0
17.67
-1.67
-3.33
6.67
5.0
8.33
1.33
10.0
4.67
6.33
1.33
6.67
11.0
-0.67
9.0
17.33
-0.33
5.67
-3.33
7.33
9.33
6.0
7.0
6.33
6.0
13.33
9.67
-6.33
4.67
5.33
14.67
1.0
8.0
15.33
0.67
15.33
3.33
13.0
-7.67
1.0
4.0
16.0
9.33
7.0
17.0
7.0
12.67
12.33
13.33
15.33
8.33
17.67
5.0
23.67
25.67
10.33
4.0
17.33
5.0
11.33
24.33
0.33
14.0
-3.0
6.67
2.67
-4.67
-2.0
14.33
13.0
-8.0
3.67
-6.67
10.67
2.0
-1.33
2.33
-5.67
-6.67
2.67
-0.33
25.33
-3.67
8.0
5.0
7.33
9.0
-3.0
2.0
14.0
3.0
-1.0
7.0
0.33
-0.33
12.33
-16.0
2.67
-6.0
0.33
12.33
10.67
-1.0
-1.33
9.67
14.33
1.33
3.0
-0.33
2.0
4.67
3.67
-5.67
14.67
-2.33
8.33
9.33
-0.33
13.33
5.0
4.33
12.0
-0.33
9.67
-2.67
5.0
-8.33
-6.0
-0.67
-5.0
4.33
-3.33
-0.33
13.0
6.0
7.0
-8.67
-1.67
4.33
-1.0
15.0
0.0
9.67
0.0
-8.67
1.33
0.33
1.33
9.67
1.0
0.33
10.67
5.67
1.67
-1.67
-1.67
1.67
-2.67
6.67
4.33
13.33
8.67
-4.0
8.33
3.0
5.33
7.33
7.33
8.33
4.33
-0.33
4.0
10.67
11.0
8.0
-1.67
0.33
9.0
13.0
10.67
11.0
4.67
-1.33
-10.33
-3.67
1.0
1.33
5.33
4.33
3.67
4.0
-1.67
1.67
-4.67
-9.33
-4.0
2.0
-5.0
-0.33
-4.0
2.33
-6.33
3.0
1.67
-1.0
1.0
3.67
2.33
0.67
9.67
-0.67
-3.0
-0.67
-2.0
-2.0
-1.33
-0.33
2.33
-2.0
-3.67
9.33
3.33
-1.0
-4.0
3.0
-5.67
1.0
1.0
-1.0
3.67
1.67
1.67
2.33
-4.33
0.67
1.0
2.0
-3.33
4.0
5.33
-2.67
2.33
-2.0
4.0
5.67
4.67
6.0
6.33
2.0
12.67
3.33
-1.0
6.33
2.33
5.0
3.67
-2.0
-2.0
-3.67
8.67
-1.0
-1.33
-0.33
3.67
5.67
-3.0
0.67
-6.67
6.33
2.33
0.0
-2.33
-7.33
3.67
1.67
8.67
2.67
4.67
-4.33
2.67
5.0
-5.33
3.67
2.33
0.67
0.67
0.67
0.67
-4.33
1.33
0.67
1.0
10.33
7.33
5.67
0.67
3.33
4.0
-3.33
-1.33
3.67
2.67
6.33
-2.33
-1.0
-2.67
8.67
1.67
3.67
4.0
-1.67
-5.0
-1.0
1.67
3.67