File: EDX Back Ups and Old Files/EDX Processed Data/.ipynb_checkpoints/High pH SF 25C 6d-checkpoint.txt
Name: High pH SF 25C 6d
Number of Scans: 29
Positions: [-13.0, -12.75, -12.5, -12.25, -12.0, -11.75, -11.5, -11.25, -11.0, -10.75, -10.5, -10.25, -10.0, -9.75, -9.5, -9.25, -9.0, -8.75, -8.5, -8.25, -8.0, -7.75, -7.5, -7.25, -7.0, -6.75, -6.5, -6.25, -6.0]
Points per Scan: 2048
Sample Edge: 3
Scans Off Sample: [0, 1, 2]
Conversion Features: [(275, 17444.3), (309, 19608.3), (913, 57981.7), (934, 59318.24), (1058, 67244.3)]
Degree of Fit: 3
Fit Coeffecients: [ 8.59183e-07 -0.001482  64.3003 -144.207]
pH: High
Steel Fiber: True
Aging Temp.: 25
Aging Atm.: 100% CO2
Aging Humidity: None
Aging Time: 6

*********
#Bins	Energy [keV]	Avg. Background	-12.25 [mm]	-12.0 [mm]	-11.75 [mm]	-11.5 [mm]	-11.25 [mm]	-11.0 [mm]	-10.75 [mm]	-10.5 [mm]	-10.25 [mm]	-10.0 [mm]	-9.75 [mm]	-9.5 [mm]	-9.25 [mm]	-9.0 [mm]	-8.75 [mm]	-8.5 [mm]	-8.25 [mm]	-8.0 [mm]	-7.75 [mm]	-7.5 [mm]	-7.25 [mm]	-7.0 [mm]	-6.75 [mm]	-6.5 [mm]	-6.25 [mm]	-6.0 [mm]
0	-0.144207	0.0	0.0	0.0	0.0	0.0	0.0	0.0	0.0	0.0	0.0	0.0	0.0	0.0	0.0	0.0	0.0	0.0	0.0	0.0	0.0	0.0	0.0	0.0	0.0	0.0	0.0	0.0
7	0.305823	1877.67	-78.67	-15.67	43.33	3.33	-74.67	112.33	25.33	-1.67	-45.67	4.33	29.33	4.33	52.33	-31.67	-90.67	19.33	53.33	12.33	27.33	-50.67	80.33	20.33	39.33	6.33	32.33	-54.67
14	0.75571	1062.33	65.67	14.67	35.67	-18.33	-30.33	22.67	13.67	-22.33	-2.33	42.67	44.67	51.67	46.67	77.67	15.67	20.67	16.67	-21.33	92.67	-18.33	50.67	-24.33	65.67	63.67	-35.33	86.67
21	1.20545	248.33	-23.33	-12.33	7.67	-27.33	-18.33	-5.33	18.67	-43.33	9.67	5.67	12.67	-8.33	-6.33	-4.33	48.67	16.67	-20.33	7.67	6.67	4.67	4.67	-20.33	-24.33	23.67	-2.33	-0.33
28	1.65506	39.0	-5.0	10.0	-2.0	14.0	-10.0	17.0	8.0	1.0	-6.0	9.0	-6.0	0.0	3.0	2.0	-4.0	-6.0	-5.0	-7.0	-3.0	8.0	3.0	7.0	-5.0	5.0	0.0	-3.0
35	2.10453	4.33	2.67	-0.33	0.67	8.67	1.67	0.67	-1.33	0.67	1.67	0.67	3.67	1.67	-0.33	-0.33	1.67	-0.33	2.67	3.67	0.67	-2.33	0.67	2.67	-0.33	1.67	0.67	-1.33
42	2.55386	0.67	-0.67	-0.67	-0.67	-0.67	1.33	-0.67	1.33	0.33	1.33	0.33	-0.67	-0.67	0.33	0.33	1.33	0.33	1.33	-0.67	-0.67	-0.67	0.33	-0.67	-0.67	0.33	-0.67	0.33
49	3.00305	0.0	0.0	1.0	0.0	1.0	0.0	0.0	1.0	0.0	0.0	0.0	1.0	0.0	1.0	0.0	1.0	0.0	0.0	1.0	0.0	0.0	1.0	1.0	0.0	0.0	1.0	2.0
56	3.45212	0.0	2.0	0.0	0.0	1.0	2.0	0.0	0.0	0.0	0.0	0.0	0.0	0.0	1.0	0.0	0.0	1.0	1.0	0.0	1.0	1.0	1.0	0.0	0.0	0.0	0.0	0.0
63	3.90105	0.67	1.33	-0.67	-0.67	-0.67	0.33	0.33	0.33	-0.67	1.33	-0.67	0.33	0.33	1.33	-0.67	-0.67	0.33	-0.67	0.33	-0.67	-0.67	-0.67	0.33	0.33	-0.67	-0.67	1.33
70	4.34985	0.0	0.0	1.0	0.0	0.0	2.0	0.0	1.0	0.0	0.0	0.0	0.0	0.0	1.0	2.0	1.0	0.0	0.0	0.0	0.0	1.0	0.0	0.0	0.0	0.0	1.0	1.0
77	4.79852	0.67	-0.67	-0.67	0.33	-0.67	0.33	-0.67	-0.67	2.33	0.33	-0.67	-0.67	0.33	0.33	0.33	-0.67	0.33	-0.67	0.33	-0.67	0.33	-0.67	-0.67	-0.67	-0.67	0.33	0.33
84	5.24707	1.0	-1.0	0.0	1.0	-1.0	-1.0	-1.0	0.0	-1.0	0.0	0.0	-1.0	-1.0	-1.0	-1.0	-1.0	-1.0	0.0	1.0	-1.0	-1.0	-1.0	-1.0	1.0	-1.0	0.0	0.0
91	5.6955	1.33	-1.33	-0.33	-1.33	-1.33	-1.33	-1.33	-0.33	-0.33	-1.33	0.67	-1.33	-0.33	-1.33	1.67	-1.33	0.67	-0.33	0.67	-1.33	0.67	-1.33	-1.33	1.67	-1.33	-0.33	-0.33
98	6.1438	1.33	0.67	-0.33	-1.33	-0.33	-1.33	-0.33	0.67	-0.33	-1.33	-1.33	-1.33	-1.33	-0.33	0.67	-1.33	0.67	0.67	-0.33	3.67	-1.33	-1.33	-1.33	-0.33	0.67	-1.33	1.67
105	6.59198	1.33	0.67	-1.33	-1.33	-1.33	-1.33	1.67	2.67	2.67	-0.33	-1.33	1.67	0.67	0.67	-0.33	-1.33	-0.33	0.67	-1.33	-1.33	1.67	-1.33	1.67	1.67	0.67	-0.33	0.67
112	7.04005	2.67	-1.67	1.33	0.33	-0.67	0.33	-2.67	0.33	2.33	1.33	-1.67	-0.67	0.33	-0.67	-0.67	0.33	-2.67	-0.67	-2.67	3.33	-0.67	-0.67	0.33	0.33	0.33	-0.67	-1.67
119	7.48799	3.0	-3.0	1.0	0.0	3.0	2.0	0.0	-1.0	1.0	0.0	0.0	-1.0	-2.0	0.0	6.0	0.0	2.0	0.0	-3.0	4.0	5.0	0.0	0.0	1.0	0.0	1.0	2.0
126	7.93583	4.0	6.0	0.0	0.0	5.0	2.0	2.0	-4.0	3.0	-2.0	1.0	2.0	1.0	0.0	3.0	6.0	2.0	5.0	-2.0	4.0	0.0	3.0	0.0	-4.0	4.0	1.0	5.0
133	8.38354	5.0	2.0	1.0	1.0	1.0	2.0	3.0	-1.0	5.0	-1.0	-1.0	0.0	4.0	-1.0	2.0	4.0	2.0	0.0	1.0	0.0	1.0	-2.0	3.0	3.0	9.0	-1.0	0.0
140	8.83115	9.0	0.0	1.0	3.0	-1.0	-2.0	2.0	-2.0	-1.0	-2.0	-4.0	-1.0	5.0	0.0	0.0	3.0	0.0	0.0	3.0	0.0	5.0	0.0	3.0	-1.0	3.0	-1.0	5.0
147	9.27865	9.67	3.33	-0.67	0.33	2.33	-2.67	-3.67	-0.67	-2.67	1.33	0.33	-5.67	-0.67	0.33	5.33	1.33	-2.67	-3.67	-2.67	-6.67	8.33	3.33	5.33	2.33	-5.67	6.33	1.33
154	9.72604	8.33	0.67	4.67	-0.33	3.67	1.67	0.67	1.67	2.67	-0.33	4.67	2.67	2.67	0.67	-0.33	1.67	-2.33	4.67	1.67	1.67	-0.33	4.67	5.67	3.67	1.67	9.67	-3.33
161	10.1733	9.33	-1.33	0.67	2.67	-1.33	5.67	0.67	6.67	2.67	-0.33	1.67	0.67	3.67	4.67	7.67	13.67	-0.33	2.67	-3.33	0.67	2.67	0.67	6.67	1.67	6.67	3.67	1.67
168	10.6205	6.33	8.67	3.67	2.67	0.67	2.67	-1.33	7.67	9.67	-1.33	5.67	7.67	1.67	5.67	8.67	0.67	1.67	2.67	8.67	2.67	6.67	6.67	8.67	5.67	13.67	0.67	7.67
175	11.0676	7.33	1.67	7.67	5.67	4.67	4.67	2.67	-4.33	5.67	1.67	0.67	9.67	8.67	9.67	3.67	6.67	8.67	6.67	10.67	1.67	8.67	10.67	2.67	7.67	0.67	1.67	6.67
182	11.5145	10.0	5.0	3.0	-4.0	-1.0	2.0	2.0	3.0	-3.0	-1.0	1.0	-3.0	2.0	4.0	3.0	5.0	-1.0	1.0	4.0	4.0	2.0	12.0	9.0	1.0	1.0	2.0	4.0
189	11.9614	10.33	-4.33	-1.33	0.67	-4.33	2.67	-1.33	2.67	-0.33	-2.33	-1.33	2.67	4.67	9.67	3.67	-0.33	4.67	1.67	0.67	3.67	-0.33	3.67	8.67	0.67	4.67	-1.33	-3.33
196	12.4082	9.33	2.67	1.67	-0.33	3.67	0.67	-1.33	-2.33	1.67	-4.33	0.67	9.67	-0.33	1.67	5.67	-1.33	0.67	6.67	2.67	1.67	11.67	0.67	1.67	1.67	3.67	3.67	0.67
203	12.8549	8.33	-2.33	2.67	3.67	-1.33	3.67	1.67	3.67	2.67	7.67	-3.33	7.67	9.67	8.67	2.67	5.67	-0.33	3.67	6.67	0.67	10.67	1.67	6.67	2.67	8.67	2.67	6.67
210	13.3015	9.67	-1.67	-3.67	12.33	-0.67	4.33	6.33	4.33	-1.67	1.33	0.33	7.33	-1.67	1.33	4.33	8.33	6.33	6.33	4.33	2.33	-1.67	0.33	3.33	6.33	6.33	1.33	5.33
217	13.748	9.33	-1.33	4.67	5.67	2.67	5.67	-1.33	4.67	7.67	0.67	5.67	8.67	2.67	0.67	0.67	5.67	3.67	-2.33	2.67	5.67	9.67	0.67	4.67	4.67	2.67	5.67	6.67
224	14.1944	10.33	1.67	0.67	0.67	6.67	1.67	4.67	-4.33	-3.33	-0.33	4.67	-2.33	1.67	0.67	1.67	4.67	1.67	3.67	2.67	-1.33	0.67	2.67	-0.33	-3.33	4.67	0.67	0.67
231	14.6407	13.0	-1.0	-1.0	-3.0	-3.0	-2.0	-2.0	2.0	-1.0	-2.0	-2.0	-1.0	-8.0	-2.0	11.0	-1.0	3.0	3.0	-2.0	2.0	2.0	8.0	0.0	-2.0	-2.0	-7.0	3.0
238	15.0869	9.33	0.67	1.67	0.67	-2.33	1.67	3.67	0.67	5.67	-3.33	4.67	1.67	2.67	0.67	7.67	7.67	6.67	3.67	-1.33	-1.33	1.67	2.67	5.67	13.67	4.67	0.67	4.67
245	15.5331	7.67	9.33	1.33	7.33	7.33	-1.67	5.33	6.33	2.33	3.33	2.33	-2.67	5.33	3.33	4.33	2.33	8.33	3.33	7.33	3.33	11.33	10.33	5.33	4.33	3.33	3.33	9.33
252	15.9791	7.67	3.33	5.33	-0.67	1.33	0.33	6.33	3.33	6.33	-1.67	5.33	3.33	10.33	0.33	6.33	1.33	13.33	7.33	3.33	6.33	1.33	3.33	8.33	7.33	11.33	10.33	5.33
259	16.4251	11.0	0.0	-2.0	-1.0	3.0	-2.0	0.0	0.0	-6.0	1.0	-1.0	-2.0	-2.0	9.0	1.0	5.0	-3.0	-1.0	-2.0	7.0	-1.0	4.0	1.0	5.0	2.0	8.0	4.0
266	16.871	11.33	-1.33	1.67	5.67	-1.33	-4.33	-6.33	-2.33	5.67	5.67	3.67	1.67	0.67	0.67	3.67	-3.33	4.67	-2.33	-0.33	-2.33	7.67	1.67	0.67	3.67	-6.33	-3.33	-2.33
273	17.3168	11.33	-6.33	2.67	2.67	-0.33	-0.33	2.67	-4.33	0.67	1.67	1.67	1.67	4.67	-3.33	-7.33	-2.33	-0.33	0.67	-2.33	0.67	-0.33	-5.33	1.67	-3.33	-3.33	-0.33	-1.33
280	17.7626	8.67	0.33	7.33	5.33	5.33	7.33	1.33	0.33	2.33	8.33	3.33	-0.67	6.33	9.33	2.33	4.33	0.33	-0.67	-0.67	4.33	2.33	-1.67	3.33	0.33	3.33	0.33	10.33
287	18.2082	8.0	3.0	0.0	1.0	9.0	8.0	5.0	2.0	4.0	2.0	4.0	2.0	-2.0	1.0	6.0	0.0	4.0	1.0	0.0	5.0	0.0	5.0	-3.0	7.0	2.0	6.0	2.0
294	18.6538	6.67	1.33	-0.67	4.33	4.33	-0.67	6.33	9.33	10.33	4.33	8.33	5.33	6.33	1.33	2.33	6.33	6.33	4.33	2.33	5.33	7.33	8.33	2.33	6.33	6.33	7.33	6.33
301	19.0994	9.0	4.0	3.0	-2.0	5.0	1.0	-3.0	5.0	2.0	9.0	0.0	-1.0	-1.0	5.0	4.0	1.0	1.0	6.0	2.0	-2.0	2.0	-2.0	7.0	5.0	-2.0	3.0	-2.0
308	19.5448	8.0	-2.0	9.0	3.0	9.0	7.0	-1.0	1.0	-4.0	9.0	2.0	-2.0	4.0	-2.0	-2.0	5.0	6.0	-1.0	5.0	0.0	1.0	5.0	9.0	1.0	3.0	6.0	3.0
315	19.9902	9.0	8.0	0.0	3.0	1.0	-2.0	3.0	8.0	1.0	12.0	7.0	1.0	1.0	4.0	1.0	2.0	-3.0	1.0	4.0	4.0	7.0	4.0	5.0	1.0	8.0	-2.0	6.0
322	20.4355	10.67	-0.67	-2.67	1.33	2.33	0.33	-1.67	1.33	0.33	4.33	1.33	-1.67	-1.67	-2.67	1.33	0.33	0.33	0.33	-2.67	0.33	0.33	-1.67	8.33	2.33	2.33	-3.67	-3.67
329	20.8808	8.33	-1.33	4.67	1.67	-1.33	1.67	3.67	6.67	5.67	6.67	5.67	0.67	1.67	4.67	2.67	1.67	-0.33	6.67	2.67	2.67	0.67	2.67	2.67	0.67	4.67	-2.33	2.67
336	21.326	8.0	4.0	1.0	1.0	7.0	6.0	-1.0	6.0	6.0	4.0	3.0	6.0	-1.0	0.0	6.0	2.0	3.0	1.0	7.0	1.0	3.0	4.0	2.0	-1.0	-2.0	3.0	1.0
343	21.7711	9.67	1.33	-3.67	-1.67	-2.67	-2.67	-1.67	-0.67	2.33	3.33	-4.67	0.33	-0.67	-5.67	2.33	-1.67	0.33	2.33	0.33	-0.67	5.33	4.33	1.33	6.33	5.33	1.33	3.33
350	22.2162	11.67	-2.67	-1.67	-2.67	3.33	-3.67	1.33	1.33	1.33	1.33	-2.67	-6.67	3.33	3.33	-5.67	6.33	-1.67	-2.67	-0.67	-4.67	-3.67	4.33	1.33	0.33	-3.67	-0.67	-1.67
357	22.6612	6.67	7.33	4.33	-1.67	1.33	1.33	0.33	5.33	0.33	0.33	2.33	3.33	3.33	7.33	2.33	7.33	4.33	3.33	-0.67	2.33	10.33	0.33	6.33	1.33	11.33	-4.67	6.33
364	23.1062	7.67	3.33	5.33	3.33	0.33	1.33	6.33	2.33	-0.67	-2.67	4.33	5.33	6.33	-3.67	0.33	-1.67	1.33	8.33	2.33	2.33	1.33	2.33	3.33	6.33	7.33	4.33	1.33
371	23.5511	6.0	1.0	2.0	0.0	-1.0	4.0	6.0	0.0	9.0	4.0	3.0	5.0	4.0	2.0	1.0	8.0	1.0	3.0	6.0	1.0	7.0	7.0	6.0	11.0	9.0	6.0	4.0
378	23.996	7.33	0.67	0.67	-2.33	3.67	3.67	4.67	3.67	-0.33	7.67	-2.33	1.67	1.67	0.67	-3.33	2.67	1.67	1.67	2.67	3.67	0.67	7.67	0.67	0.67	7.67	0.67	12.67
385	24.4408	7.33	-0.33	0.67	-2.33	-2.33	-0.33	-0.33	2.67	-3.33	1.67	0.67	-5.33	1.67	6.67	4.67	0.67	3.67	-0.33	6.67	6.67	-1.33	6.67	2.67	6.67	2.67	6.67	4.67
392	24.8855	7.67	0.33	2.33	0.33	0.33	-1.67	-1.67	4.33	0.33	2.33	0.33	3.33	1.33	9.33	9.33	-5.67	7.33	-2.67	3.33	4.33	-0.67	2.33	6.33	2.33	1.33	-0.67	-0.67
399	25.3303	5.33	5.67	0.67	5.67	-1.33	7.67	2.67	2.67	0.67	8.67	3.67	5.67	12.67	1.67	9.67	2.67	5.67	1.67	2.67	4.67	-0.33	0.67	4.67	6.67	12.67	7.67	5.67
406	25.7749	7.0	6.0	2.0	4.0	-2.0	-5.0	2.0	6.0	0.0	-2.0	7.0	1.0	6.0	6.0	3.0	-1.0	2.0	5.0	6.0	1.0	1.0	2.0	1.0	-2.0	3.0	3.0	8.0
413	26.2196	5.67	1.33	-0.67	3.33	6.33	0.33	6.33	4.33	1.33	4.33	4.33	12.33	5.33	-0.67	1.33	0.33	8.33	5.33	2.33	2.33	5.33	4.33	9.33	6.33	6.33	1.33	4.33
420	26.6642	7.33	1.67	-2.33	-3.33	-1.33	4.67	0.67	0.67	1.67	1.67	2.67	2.67	0.67	-0.33	0.67	3.67	-2.33	0.67	-2.33	3.67	4.67	-1.33	-0.33	-4.33	6.67	-0.33	1.67
427	27.1087	6.0	0.0	1.0	4.0	5.0	3.0	0.0	3.0	6.0	1.0	3.0	3.0	3.0	3.0	6.0	2.0	3.0	4.0	4.0	4.0	5.0	6.0	-1.0	4.0	3.0	6.0	1.0
434	27.5532	7.0	3.0	0.0	7.0	-2.0	1.0	-4.0	4.0	-3.0	-1.0	-1.0	0.0	-1.0	0.0	-1.0	-1.0	6.0	-2.0	-2.0	2.0	0.0	5.0	-2.0	4.0	1.0	1.0	3.0
441	27.9977	7.33	-0.33	7.67	-2.33	1.67	0.67	-4.33	-1.33	6.67	1.67	-2.33	-0.33	2.67	1.67	0.67	-1.33	-3.33	-0.33	6.67	-5.33	0.67	2.67	0.67	0.67	-1.33	-0.33	2.67
448	28.4422	8.33	3.67	-1.33	0.67	-0.33	-5.33	4.67	1.67	-3.33	-3.33	2.67	1.67	0.67	1.67	-2.33	-3.33	0.67	1.67	4.67	4.67	0.67	-2.33	-0.33	-0.33	-2.33	-3.33	-1.33
455	28.8866	5.0	7.0	5.0	0.0	0.0	3.0	4.0	0.0	-1.0	0.0	1.0	-3.0	3.0	4.0	1.0	1.0	-1.0	1.0	3.0	6.0	0.0	5.0	3.0	6.0	3.0	8.0	1.0
462	29.3309	7.67	-3.67	-3.67	-1.67	1.33	0.33	-1.67	-1.67	-1.67	5.33	-1.67	1.33	-2.67	-2.67	-6.67	1.33	-5.67	1.33	3.33	-0.67	-0.67	0.33	1.33	-3.67	3.33	0.33	-1.67
469	29.7753	3.33	3.67	6.67	4.67	7.67	2.67	7.67	1.67	0.67	7.67	3.67	4.67	8.67	2.67	3.67	2.67	0.67	4.67	2.67	7.67	9.67	13.67	9.67	0.67	5.67	4.67	2.67
476	30.2196	5.33	-3.33	0.67	0.67	1.67	-1.33	6.67	3.67	2.67	3.67	1.67	-1.33	0.67	2.67	1.67	6.67	0.67	3.67	2.67	-2.33	5.67	0.67	0.67	3.67	2.67	-0.33	2.67
483	30.6639	6.0	-1.0	-1.0	-2.0	4.0	3.0	-1.0	-3.0	1.0	1.0	0.0	2.0	-3.0	1.0	2.0	4.0	0.0	3.0	-3.0	-2.0	2.0	-2.0	0.0	2.0	2.0	6.0	3.0
490	31.1082	6.0	-2.0	5.0	4.0	-3.0	3.0	0.0	-3.0	1.0	1.0	2.0	0.0	0.0	4.0	1.0	-1.0	4.0	-2.0	3.0	0.0	0.0	3.0	0.0	0.0	1.0	-1.0	-1.0
497	31.5525	5.0	3.0	2.0	-3.0	-1.0	4.0	-1.0	4.0	1.0	2.0	3.0	2.0	5.0	0.0	0.0	-2.0	3.0	0.0	3.0	-1.0	2.0	0.0	2.0	0.0	1.0	2.0	9.0
504	31.9967	6.67	-1.67	0.33	3.33	0.33	3.33	-0.67	-3.67	-2.67	-2.67	3.33	1.33	-2.67	2.33	3.33	-0.67	2.33	2.33	4.33	2.33	-1.67	0.33	0.33	3.33	-0.67	2.33	6.33
511	32.4409	5.33	0.67	4.67	2.67	0.67	-2.33	2.67	-2.33	-0.33	-1.33	2.67	3.67	0.67	-2.33	-2.33	-3.33	4.67	1.67	10.67	1.67	4.67	3.67	1.67	0.67	-3.33	5.67	7.67
518	32.8851	4.33	2.67	4.67	-4.33	2.67	5.67	4.67	0.67	7.67	-1.33	-0.33	1.67	-0.33	2.67	5.67	2.67	5.67	0.67	1.67	0.67	3.67	4.67	2.67	5.67	-1.33	3.67	-0.33
525	33.3293	6.33	-2.33	-3.33	-2.33	-0.33	-0.33	4.67	-0.33	-1.33	0.67	-5.33	-2.33	2.67	-0.33	-2.33	-4.33	-1.33	-3.33	6.67	-1.33	-0.33	1.67	-1.33	-2.33	0.67	3.67	3.67
532	33.7735	5.33	-0.33	5.67	0.67	-0.33	-2.33	0.67	0.67	0.67	-2.33	-1.33	-2.33	-0.33	2.67	-1.33	-2.33	0.67	3.67	1.67	4.67	5.67	-0.33	-0.33	2.67	0.67	0.67	-0.33
539	34.2177	6.67	-3.67	-1.67	-2.67	-1.67	1.33	-0.67	0.33	-0.67	0.33	-1.67	-2.67	-3.67	0.33	-3.67	-2.67	-1.67	-3.67	0.33	0.33	0.33	-2.67	-1.67	5.33	2.33	3.33	-1.67
546	34.6618	7.0	1.0	-6.0	-2.0	0.0	-4.0	-2.0	0.0	-1.0	0.0	-3.0	0.0	1.0	-1.0	-4.0	1.0	3.0	1.0	1.0	3.0	-4.0	-1.0	-5.0	0.0	-4.0	1.0	-3.0
553	35.106	4.33	4.67	0.67	-1.33	1.67	4.67	6.67	-2.33	0.67	0.67	0.67	-0.33	3.67	-0.33	1.67	1.67	-1.33	3.67	-1.33	2.67	0.67	1.67	2.67	2.67	3.67	2.67	2.67
560	35.5501	4.67	3.33	1.33	0.33	2.33	5.33	1.33	5.33	-0.67	3.33	-0.67	4.33	2.33	1.33	3.33	3.33	0.33	1.33	2.33	0.33	0.33	0.33	1.33	-1.67	0.33	-2.67	1.33
567	35.9943	6.33	-1.33	2.67	-2.33	-3.33	-1.33	0.67	-2.33	-0.33	-1.33	-4.33	-1.33	3.67	-0.33	6.67	-2.33	-0.33	1.67	2.67	-0.33	1.67	-0.33	-1.33	1.67	0.67	0.67	-3.33
574	36.4384	5.0	-2.0	0.0	0.0	3.0	-1.0	3.0	2.0	0.0	1.0	1.0	0.0	1.0	0.0	1.0	1.0	5.0	3.0	1.0	-1.0	-1.0	3.0	5.0	1.0	3.0	-3.0	1.0
581	36.8825	6.0	4.0	-3.0	1.0	0.0	1.0	-1.0	4.0	1.0	-2.0	0.0	-2.0	3.0	0.0	-3.0	-2.0	4.0	0.0	0.0	-1.0	3.0	1.0	-1.0	2.0	-1.0	-4.0	6.0
588	37.3267	6.33	-1.33	-1.33	-2.33	-0.33	-3.33	0.67	-0.33	4.67	0.67	-5.33	0.67	-5.33	-0.33	0.67	-0.33	-0.33	1.67	-1.33	1.67	2.67	-0.33	0.67	2.67	0.67	-2.33	7.67
595	37.7708	4.0	-3.0	-2.0	1.0	4.0	1.0	-2.0	5.0	-1.0	1.0	1.0	0.0	1.0	0.0	3.0	2.0	2.0	5.0	0.0	2.0	0.0	5.0	1.0	2.0	8.0	0.0	0.0
602	38.215	3.0	4.0	5.0	0.0	5.0	3.0	3.0	-1.0	-1.0	7.0	2.0	1.0	7.0	3.0	8.0	3.0	7.0	4.0	3.0	1.0	5.0	0.0	2.0	1.0	5.0	3.0	3.0
609	38.6591	3.33	-0.33	0.67	5.67	-1.33	2.67	-1.33	-2.33	5.67	1.67	0.67	3.67	2.67	0.67	4.67	-0.33	-0.33	2.67	6.67	1.67	1.67	2.67	1.67	4.67	3.67	3.67	-0.33
616	39.1033	5.0	0.0	0.0	-2.0	2.0	-1.0	2.0	-1.0	0.0	-1.0	-4.0	4.0	3.0	1.0	0.0	-3.0	-3.0	4.0	1.0	2.0	-1.0	-2.0	2.0	2.0	1.0	-1.0	-1.0
623	39.5474	3.67	-0.67	1.33	3.33	1.33	5.33	1.33	-1.67	2.33	2.33	0.33	-0.67	-2.67	1.33	2.33	2.33	4.33	2.33	3.33	2.33	0.33	-2.67	6.33	2.33	3.33	3.33	2.33
630	39.9916	5.0	-2.0	-3.0	3.0	4.0	1.0	0.0	-1.0	1.0	2.0	3.0	-2.0	-1.0	1.0	5.0	5.0	-1.0	-1.0	3.0	0.0	-3.0	-1.0	3.0	-1.0	3.0	6.0	0.0
637	40.4358	5.33	0.67	4.67	2.67	-0.33	-2.33	0.67	0.67	-0.33	1.67	5.67	-0.33	2.67	1.67	-0.33	-3.33	-1.33	-2.33	1.67	-0.33	3.67	-3.33	3.67	0.67	2.67	3.67	-0.33
644	40.88	5.67	3.33	-3.67	1.33	1.33	-0.67	3.33	0.33	1.33	-1.67	3.33	0.33	4.33	-0.67	1.33	-4.67	-2.67	2.33	-1.67	-3.67	-2.67	1.33	-0.67	0.33	2.33	-1.67	-1.67
651	41.3243	6.67	-0.67	-3.67	-2.67	-0.67	-0.67	-3.67	-2.67	-1.67	-1.67	-0.67	-2.67	-1.67	-0.67	-2.67	3.33	2.33	-3.67	-2.67	-0.67	-4.67	-0.67	-2.67	2.33	-0.67	-1.67	5.33
658	41.7685	6.0	6.0	-1.0	-3.0	1.0	2.0	5.0	1.0	1.0	-6.0	2.0	-1.0	1.0	-1.0	-2.0	4.0	-3.0	-3.0	-1.0	1.0	1.0	1.0	2.0	1.0	-1.0	-1.0	-5.0
665	42.2128	5.67	0.33	6.33	-0.67	-1.67	-1.67	-0.67	4.33	3.33	1.33	2.33	0.33	-0.67	1.33	-0.67	-5.67	3.33	-4.67	-3.67	1.33	-1.67	-1.67	-0.67	2.33	-1.67	-1.67	-1.67
672	42.6571	5.67	-1.67	2.33	-0.67	1.33	-3.67	1.33	0.33	3.33	2.33	-0.67	0.33	-0.67	2.33	-2.67	-1.67	0.33	-2.67	-1.67	0.33	4.33	-1.67	-0.67	2.33	4.33	1.33	5.33
679	43.1014	5.33	0.67	0.67	0.67	-2.33	-1.33	-1.33	0.67	-2.33	2.67	-2.33	-0.33	0.67	0.67	6.67	0.67	4.67	2.67	-0.33	-3.33	-0.33	0.67	-0.33	3.67	-0.33	-1.33	3.67
686	43.5458	9.67	1.33	-5.67	-4.67	-5.67	-7.67	-1.67	-0.67	-6.67	-0.67	-3.67	-7.67	-3.67	-1.67	-2.67	-3.67	-1.67	3.33	-0.67	0.33	-4.67	-2.67	-5.67	-5.67	-7.67	-1.67	-3.67
693	43.9901	6.0	4.0	0.0	0.0	5.0	3.0	-3.0	-2.0	1.0	5.0	-1.0	-5.0	0.0	-3.0	-1.0	-3.0	5.0	1.0	5.0	4.0	2.0	-1.0	2.0	1.0	1.0	6.0	-1.0
700	44.4345	7.0	1.0	2.0	-3.0	0.0	1.0	1.0	11.0	-4.0	-1.0	5.0	-3.0	-2.0	-4.0	-4.0	-1.0	-1.0	2.0	4.0	4.0	3.0	-5.0	-3.0	-2.0	-1.0	0.0	3.0
707	44.879	5.33	1.67	-0.33	1.67	3.67	0.67	1.67	3.67	2.67	-0.33	-1.33	3.67	5.67	3.67	0.67	3.67	4.67	-1.33	1.67	0.67	-2.33	1.67	0.67	1.67	3.67	2.67	-0.33
714	45.3235	10.0	-5.0	-5.0	-2.0	-1.0	-3.0	-6.0	-4.0	1.0	-1.0	0.0	2.0	-2.0	-1.0	-7.0	6.0	4.0	2.0	0.0	0.0	-4.0	-6.0	-5.0	-1.0	-2.0	-1.0	-1.0
721	45.768	12.0	-2.0	-9.0	-5.0	-8.0	-5.0	-7.0	-1.0	-2.0	-8.0	-2.0	-1.0	-4.0	-6.0	0.0	-5.0	-3.0	-5.0	-8.0	-3.0	-5.0	-6.0	-4.0	-5.0	-7.0	-6.0	-5.0
728	46.2125	8.33	-0.33	1.67	-1.33	2.67	-3.33	-2.33	-5.33	-5.33	-0.33	0.67	-2.33	-2.33	-2.33	2.67	-0.33	-2.33	-1.33	-1.33	-2.33	-3.33	1.67	1.67	-0.33	-7.33	-3.33	-1.33
735	46.6571	6.0	5.0	0.0	10.0	4.0	-4.0	2.0	0.0	-1.0	0.0	3.0	-2.0	5.0	0.0	2.0	4.0	-1.0	3.0	1.0	-1.0	0.0	-1.0	4.0	4.0	9.0	1.0	2.0
742	47.1017	12.33	-4.33	-5.33	-3.33	-3.33	-3.33	-4.33	-7.33	0.67	-7.33	-6.33	-8.33	-0.33	-7.33	-1.33	-3.33	-1.33	-6.33	-0.33	-9.33	-5.33	-6.33	-10.33	-1.33	-5.33	-3.33	-6.33
749	47.5464	11.67	-1.67	-0.67	-1.67	-7.67	-0.67	-3.67	-2.67	3.33	-7.67	-3.67	-6.67	-6.67	0.33	-5.67	1.33	0.33	-5.67	-6.67	-8.67	3.33	-5.67	-1.67	0.33	-1.67	0.33	-4.67
756	47.9911	10.0	-3.0	5.0	-4.0	-2.0	-3.0	-4.0	-1.0	-5.0	-4.0	4.0	4.0	-5.0	-2.0	-2.0	-2.0	-2.0	0.0	-2.0	-2.0	-5.0	-4.0	1.0	2.0	-4.0	-4.0	-3.0
763	48.4358	9.67	3.33	-2.67	-3.67	0.33	1.33	1.33	-3.67	-5.67	-2.67	4.33	-0.67	2.33	-1.67	4.33	-2.67	-5.67	-3.67	2.33	0.33	-0.67	-1.67	3.33	2.33	0.33	-1.67	-3.67
770	48.8806	12.67	-1.67	-5.67	-4.67	1.33	-2.67	0.33	-6.67	-4.67	-6.67	-6.67	-8.67	-5.67	-3.67	-0.67	-2.67	-1.67	-7.67	-2.67	-5.67	-5.67	-3.67	-5.67	-6.67	-3.67	0.33	2.33
777	49.3255	12.33	0.67	-4.33	-0.33	-2.33	-1.33	-5.33	-4.33	-5.33	-1.33	-7.33	-0.33	2.67	-2.33	-7.33	-3.33	-2.33	-2.33	-4.33	-1.33	-2.33	-0.33	-6.33	-3.33	2.67	-3.33	-0.33
784	49.7704	12.0	3.0	-2.0	4.0	-5.0	4.0	-3.0	-6.0	-3.0	-3.0	-4.0	-8.0	1.0	-2.0	-6.0	-5.0	-3.0	-4.0	0.0	-4.0	-4.0	-2.0	-8.0	-1.0	-6.0	-3.0	-9.0
791	50.2153	12.67	-2.67	-7.67	4.33	-5.67	-0.67	-1.67	-3.67	0.33	1.33	-2.67	-0.67	4.33	-0.67	-2.67	-1.67	-4.67	-1.67	4.33	-3.67	0.33	3.33	5.33	-1.67	-8.67	-4.67	0.33
798	50.6603	13.0	2.0	-4.0	-2.0	6.0	-4.0	0.0	2.0	-2.0	0.0	6.0	5.0	4.0	12.0	1.0	2.0	-1.0	8.0	1.0	-1.0	7.0	-1.0	5.0	-5.0	0.0	0.0	-1.0
805	51.1054	13.33	-7.33	-7.33	-4.33	-4.33	-1.33	0.67	-1.33	15.67	11.67	20.67	20.67	15.67	16.67	17.67	17.67	11.67	15.67	7.67	12.67	7.67	1.67	9.67	15.67	11.67	11.67	7.67
812	51.5505	13.67	-2.67	-6.67	-3.67	-2.67	-0.67	-8.67	5.33	14.33	18.33	22.33	26.33	25.33	25.33	23.33	34.33	23.33	28.33	13.33	17.33	18.33	22.33	16.33	21.33	15.33	15.33	24.33
819	51.9957	14.67	-0.67	-2.67	-5.67	-9.67	1.33	-8.67	-1.67	6.33	16.33	26.33	13.33	14.33	5.33	22.33	12.33	25.33	8.33	9.33	14.33	7.33	8.33	2.33	16.33	15.33	9.33	17.33
826	52.4409	13.67	2.33	-4.67	-2.67	1.33	-4.67	-7.67	-2.67	2.33	12.33	9.33	1.33	4.33	4.33	9.33	6.33	3.33	2.33	-1.67	4.33	5.33	13.33	6.33	3.33	1.33	-0.67	7.33
833	52.8862	15.33	-6.33	-1.33	-3.33	-6.33	-6.33	-9.33	-1.33	-3.33	-1.33	-1.33	-4.33	-5.33	-3.33	1.67	-1.33	3.67	0.67	-0.33	6.67	-1.33	2.67	1.67	-1.33	-2.33	-2.33	-4.33
840	53.3316	12.33	1.67	0.67	1.67	-3.33	-1.33	1.67	-1.33	-6.33	-1.33	2.67	0.67	-0.33	-6.33	-0.33	-3.33	-0.33	6.67	1.67	-3.33	-1.33	-2.33	3.67	0.67	2.67	0.67	2.67
847	53.7771	13.0	-3.0	2.0	0.0	-3.0	-1.0	-4.0	0.0	6.0	8.0	6.0	-1.0	-1.0	-1.0	1.0	4.0	1.0	3.0	3.0	0.0	-2.0	4.0	0.0	-5.0	-4.0	-2.0	-5.0
854	54.2226	13.33	-3.33	-4.33	-5.33	-2.33	-1.33	-6.33	-0.33	1.67	-1.33	4.67	-0.33	-0.33	-4.33	-1.33	2.67	-6.33	-7.33	5.67	7.67	-3.33	-1.33	-5.33	-1.33	-3.33	4.67	3.67
861	54.6681	9.0	-1.0	6.0	5.0	3.0	-3.0	2.0	4.0	6.0	2.0	-1.0	5.0	12.0	7.0	9.0	-4.0	4.0	2.0	13.0	7.0	-1.0	5.0	12.0	8.0	9.0	1.0	-1.0
868	55.1138	11.0	5.0	1.0	-2.0	-3.0	6.0	-2.0	11.0	2.0	6.0	-3.0	8.0	2.0	-2.0	3.0	-1.0	3.0	1.0	0.0	3.0	2.0	-2.0	3.0	2.0	0.0	8.0	1.0
875	55.5595	14.33	3.67	-3.33	1.67	-2.33	0.67	-9.33	0.67	-4.33	1.67	-3.33	-4.33	-3.33	-0.33	0.67	1.67	-3.33	1.67	1.67	-0.33	-0.33	-4.33	1.67	-2.33	-6.33	-3.33	-6.33
882	56.0053	13.67	-4.67	1.33	-2.67	-1.67	0.33	-2.67	-1.67	1.33	-1.67	-4.67	-1.67	-2.67	-2.67	-5.67	-3.67	2.33	1.33	-5.67	0.33	-6.67	0.33	1.33	0.33	-3.67	0.33	-2.67
889	56.4512	16.33	1.67	0.67	-7.33	3.67	-3.33	-1.33	-1.33	-2.33	-2.33	-2.33	-7.33	6.67	0.67	-6.33	-9.33	-1.33	0.67	-2.33	-3.33	-4.33	-4.33	-3.33	-6.33	-3.33	-7.33	-6.33
896	56.8972	12.33	5.67	1.67	-0.33	4.67	3.67	5.67	2.67	6.67	0.67	-2.33	0.67	4.67	-2.33	-2.33	-2.33	-2.33	2.67	4.67	-2.33	-3.33	2.67	-0.33	-2.33	-4.33	1.67	-0.33
903	57.3432	18.67	-0.67	-0.67	-6.67	-5.67	-6.67	-4.67	-5.67	-2.67	-0.67	-4.67	-5.67	-2.67	-3.67	-4.67	-4.67	-2.67	-9.67	-4.67	-1.67	-5.67	1.33	-6.67	-5.67	-9.67	-4.67	-1.67
910	57.7893	15.0	2.0	1.0	4.0	3.0	4.0	8.0	1.0	-4.0	-1.0	8.0	-1.0	-2.0	-7.0	3.0	1.0	-5.0	4.0	-5.0	6.0	-6.0	3.0	6.0	-1.0	5.0	0.0	-1.0
917	58.2355	16.67	-3.67	-1.67	3.33	-0.67	4.33	-8.67	5.33	1.33	-1.67	-4.67	0.33	2.33	0.33	2.33	0.33	-4.67	-4.67	5.33	-2.67	0.33	-3.67	-4.67	-1.67	-7.67	2.33	6.33
924	58.6818	16.0	-2.0	-1.0	-3.0	5.0	-5.0	-2.0	2.0	-3.0	-3.0	0.0	-2.0	-3.0	1.0	0.0	2.0	-8.0	2.0	-2.0	1.0	0.0	2.0	-7.0	-9.0	2.0	-2.0	-5.0
931	59.1282	18.33	-1.33	2.67	-0.33	0.67	-1.33	-1.33	-0.33	-2.33	1.67	-4.33	2.67	-3.33	6.67	-4.33	-0.33	-2.33	0.67	-5.33	2.67	-4.33	6.67	-1.33	-3.33	5.67	11.67	0.67
938	59.5747	21.67	-7.67	-0.67	-7.67	11.33	0.33	-6.67	-3.67	-2.67	-5.67	-2.67	-4.67	-4.67	-5.67	2.33	-7.67	-1.67	-2.67	-6.67	4.33	1.33	-9.67	-8.67	-3.67	0.33	-4.67	-7.67
945	60.0212	14.0	-1.0	1.0	1.0	-2.0	-4.0	-8.0	5.0	1.0	5.0	2.0	-3.0	-2.0	5.0	-6.0	-2.0	5.0	-1.0	-1.0	-1.0	-2.0	-3.0	-6.0	1.0	3.0	-4.0	-3.0
952	60.4679	15.33	3.67	2.67	-3.33	-6.33	0.67	4.67	-1.33	5.67	-4.33	2.67	1.67	0.67	-1.33	-3.33	-6.33	-6.33	-0.33	2.67	-0.33	6.67	-3.33	6.67	1.67	-5.33	-0.33	0.67
959	60.9146	16.67	-0.67	0.33	-0.67	-5.67	-0.67	2.33	-2.67	-0.67	4.33	-9.67	-1.67	-0.67	-0.67	3.33	-3.67	-2.67	-0.67	-4.67	0.33	-1.67	-4.67	1.33	-2.67	2.33	-4.67	-5.67
966	61.3615	14.33	6.67	5.67	0.67	0.67	4.67	-0.33	0.67	-0.33	4.67	-2.33	5.67	-0.33	5.67	1.67	-7.33	-3.33	0.67	3.67	0.67	1.67	-0.33	-3.33	5.67	0.67	0.67	5.67
973	61.8084	14.33	-6.33	0.67	3.67	-3.33	4.67	-6.33	-1.33	1.67	2.67	0.67	2.67	4.67	6.67	-4.33	-3.33	-0.33	3.67	-6.33	2.67	-0.33	6.67	-0.33	2.67	-3.33	-5.33	-5.33
980	62.2555	16.67	12.33	-1.67	1.33	-2.67	-4.67	2.33	-5.67	0.33	-1.67	-7.67	-6.67	-1.67	3.33	0.33	6.33	-4.67	-1.67	3.33	0.33	4.33	1.33	-3.67	1.33	-3.67	-2.67	-1.67
987	62.7026	11.67	10.33	11.33	18.33	11.33	9.33	-0.67	2.33	2.33	2.33	12.33	4.33	7.33	20.33	3.33	1.33	3.33	8.33	5.33	6.33	-1.67	7.33	2.33	1.33	-2.67	9.33	3.33
994	63.1499	12.67	2.33	-2.67	4.33	2.33	10.33	1.33	-1.67	1.33	10.33	6.33	-0.67	1.33	4.33	1.33	-5.67	9.33	3.33	-0.67	0.33	-6.67	5.33	0.33	0.33	1.33	2.33	-2.67
1001	63.5972	14.33	9.67	1.67	8.67	-3.33	3.67	-1.33	0.67	1.67	-0.33	-3.33	0.67	2.67	3.67	0.67	1.67	-1.33	2.67	-0.33	-2.33	-2.33	-0.33	7.67	-0.33	2.67	8.67	-1.33
1008	64.0447	17.67	3.33	1.33	-4.67	-6.67	-2.67	-0.67	-2.67	-1.67	-7.67	0.33	-8.67	-3.67	-5.67	2.33	-6.67	-3.67	1.33	1.33	-5.67	-1.67	0.33	5.33	0.33	-0.67	4.33	-4.67
1015	64.4923	16.33	5.67	-0.33	1.67	9.67	6.67	8.67	2.67	0.67	7.67	3.67	2.67	2.67	3.67	1.67	-4.33	11.67	-1.33	3.67	0.67	-1.33	7.67	6.67	-2.33	-0.33	-0.33	0.67
1022	64.94	11.67	14.33	26.33	20.33	5.33	13.33	11.33	4.33	15.33	11.33	14.33	18.33	8.33	8.33	9.33	15.33	16.33	9.33	7.33	7.33	8.33	12.33	14.33	11.33	9.33	5.33	11.33
1029	65.3878	17.0	16.0	19.0	32.0	23.0	30.0	29.0	18.0	23.0	18.0	12.0	15.0	5.0	12.0	25.0	10.0	22.0	7.0	2.0	7.0	15.0	11.0	15.0	7.0	5.0	9.0	5.0
1036	65.8357	16.0	31.0	25.0	38.0	43.0	36.0	33.0	23.0	19.0	19.0	15.0	12.0	18.0	26.0	12.0	18.0	10.0	11.0	10.0	21.0	10.0	12.0	16.0	19.0	7.0	17.0	27.0
1043	66.2837	13.67	22.33	21.33	30.33	31.33	27.33	28.33	27.33	22.33	18.33	11.33	27.33	17.33	26.33	15.33	11.33	25.33	20.33	12.33	11.33	12.33	11.33	20.33	15.33	5.33	10.33	16.33
1050	66.7319	13.33	15.67	27.67	10.67	9.67	11.67	7.67	15.67	3.67	5.67	10.67	12.67	13.67	9.67	2.67	13.67	-0.33	12.67	11.67	-0.33	6.67	4.67	13.67	-0.33	14.67	3.67	9.67
1057	67.1801	16.33	7.67	-0.33	6.67	3.67	15.67	14.67	0.67	4.67	6.67	1.67	1.67	4.67	-0.33	12.67	10.67	7.67	6.67	2.67	2.67	4.67	-3.33	-1.33	5.67	12.67	0.67	4.67
1064	67.6285	16.67	1.33	7.33	-2.67	5.33	7.33	2.33	5.33	1.33	6.33	-3.67	6.33	2.33	5.33	8.33	5.33	-2.67	1.33	2.33	3.33	-3.67	5.33	1.33	0.33	3.33	11.33	3.33
1071	68.077	13.0	5.0	6.0	2.0	6.0	7.0	9.0	4.0	3.0	11.0	7.0	4.0	3.0	6.0	-2.0	5.0	4.0	10.0	15.0	2.0	1.0	16.0	4.0	2.0	4.0	0.0	2.0
1078	68.5257	12.67	13.33	6.33	3.33	3.33	10.33	11.33	0.33	-0.67	7.33	3.33	3.33	5.33	5.33	2.33	9.33	7.33	-0.67	3.33	6.33	16.33	8.33	2.33	8.33	4.33	2.33	8.33
1085	68.9744	16.0	-2.0	2.0	2.0	2.0	3.0	-2.0	9.0	4.0	16.0	5.0	10.0	2.0	-6.0	12.0	-4.0	-4.0	-1.0	3.0	2.0	4.0	4.0	6.0	10.0	0.0	3.0	4.0
1092	69.4233	13.0	0.0	11.0	5.0	2.0	12.0	14.0	13.0	14.0	10.0	-1.0	-1.0	7.0	2.0	6.0	13.0	14.0	9.0	16.0	6.0	2.0	-2.0	4.0	9.0	8.0	10.0	9.0
1099	69.8724	14.0	-1.0	9.0	3.0	11.0	7.0	0.0	6.0	3.0	1.0	6.0	7.0	-4.0	0.0	3.0	6.0	2.0	6.0	4.0	3.0	3.0	4.0	1.0	14.0	8.0	11.0	7.0
1106	70.3215	12.67	0.33	-0.67	1.33	6.33	4.33	2.33	1.33	-1.67	2.33	2.33	9.33	6.33	-0.67	1.33	11.33	6.33	4.33	-0.67	4.33	6.33	2.33	2.33	-2.67	8.33	4.33	2.33
1113	70.7708	12.67	5.33	5.33	3.33	3.33	9.33	2.33	5.33	9.33	17.33	14.33	2.33	12.33	9.33	8.33	-2.67	11.33	1.33	7.33	4.33	1.33	3.33	1.33	8.33	-0.67	4.33	5.33
1120	71.2202	16.0	2.0	1.0	-6.0	2.0	-3.0	4.0	-2.0	2.0	-4.0	3.0	2.0	4.0	5.0	8.0	-3.0	8.0	-3.0	-4.0	5.0	-2.0	-3.0	-5.0	0.0	-2.0	10.0	4.0
1127	71.6698	12.0	2.0	11.0	3.0	9.0	7.0	9.0	11.0	6.0	13.0	13.0	6.0	8.0	5.0	4.0	8.0	15.0	13.0	7.0	1.0	7.0	-2.0	9.0	5.0	14.0	8.0	4.0
1134	72.1195	14.33	2.67	-2.33	7.67	15.67	4.67	0.67	3.67	6.67	2.67	4.67	6.67	0.67	-5.33	0.67	1.67	1.67	4.67	-0.33	1.67	5.67	1.67	1.67	-0.33	9.67	5.67	-1.33
1141	72.5694	23.67	-8.67	8.33	8.33	4.33	-4.67	2.33	8.33	5.33	0.33	2.33	-3.67	7.33	-1.67	1.33	-4.67	11.33	0.33	2.33	6.33	-0.67	1.33	-1.67	-2.67	-0.67	-9.67	7.33
1148	73.0193	26.67	-2.67	-1.67	3.33	2.33	17.33	5.33	3.33	13.33	13.33	13.33	-3.67	7.33	13.33	7.33	15.33	1.33	2.33	8.33	3.33	13.33	8.33	11.33	10.33	5.33	10.33	17.33
1155	73.4695	16.67	4.33	9.33	-4.67	5.33	14.33	17.33	17.33	8.33	3.33	12.33	7.33	18.33	9.33	7.33	3.33	8.33	2.33	13.33	11.33	3.33	14.33	15.33	7.33	11.33	16.33	8.33
1162	73.9198	13.33	9.67	3.67	15.67	6.67	4.67	8.67	2.67	14.67	0.67	1.67	3.67	8.67	-0.33	12.67	-2.33	2.67	0.67	10.67	1.67	3.67	9.67	0.67	3.67	9.67	8.67	9.67
1169	74.3702	15.67	3.33	12.33	0.33	2.33	6.33	-1.67	-1.67	13.33	4.33	1.33	3.33	12.33	14.33	6.33	13.33	9.33	13.33	4.33	11.33	10.33	4.33	4.33	9.33	7.33	-0.67	3.33
1176	74.8208	32.33	-4.33	2.67	-7.33	4.67	-0.33	-6.33	1.67	-3.33	2.67	-4.33	-9.33	1.67	5.67	0.67	-2.33	-0.33	-6.33	10.67	-0.33	-1.33	11.67	1.67	1.67	6.67	1.67	15.67
1183	75.2715	45.0	-7.0	0.0	-3.0	13.0	1.0	-1.0	4.0	-6.0	8.0	14.0	6.0	5.0	0.0	-1.0	3.0	-7.0	5.0	4.0	1.0	5.0	1.0	-5.0	7.0	15.0	1.0	-4.0
1190	75.7224	24.33	-7.33	8.67	4.67	3.67	-1.33	7.67	3.67	-8.33	2.67	7.67	3.67	6.67	6.67	6.67	-3.33	0.67	9.67	12.67	7.67	0.67	6.67	2.67	5.67	-7.33	-0.33	9.67
1197	76.1734	17.33	6.67	2.67	12.67	1.67	0.67	-1.33	0.67	6.67	-2.33	-1.33	7.67	2.67	1.67	-1.33	9.67	2.67	-7.33	-3.33	2.67	1.67	5.67	4.67	4.67	0.67	-1.33	-0.33
1204	76.6246	15.0	9.0	2.0	2.0	8.0	8.0	1.0	8.0	4.0	2.0	4.0	-1.0	2.0	6.0	4.0	-3.0	15.0	10.0	4.0	1.0	8.0	12.0	4.0	5.0	15.0	6.0	7.0
1211	77.076	11.33	-4.33	10.67	10.67	13.67	15.67	10.67	10.67	12.67	14.67	1.67	1.67	13.67	11.67	2.67	10.67	12.67	4.67	10.67	6.67	9.67	13.67	11.67	17.67	11.67	11.67	16.67
1218	77.5275	12.33	0.67	2.67	11.67	10.67	7.67	-2.33	11.67	13.67	7.67	11.67	15.67	9.67	5.67	6.67	14.67	9.67	11.67	14.67	5.67	12.67	4.67	8.67	8.67	9.67	23.67	14.67
1225	77.9792	14.0	4.0	7.0	9.0	1.0	6.0	12.0	5.0	9.0	20.0	5.0	1.0	7.0	8.0	9.0	6.0	13.0	7.0	12.0	9.0	5.0	5.0	19.0	8.0	13.0	2.0	7.0
1232	78.431	13.33	6.67	12.67	11.67	9.67	0.67	2.67	11.67	14.67	12.67	12.67	-2.33	11.67	11.67	9.67	9.67	8.67	8.67	4.67	2.67	6.67	3.67	7.67	6.67	6.67	8.67	7.67
1239	78.883	12.33	-2.33	12.67	16.67	9.67	13.67	11.67	13.67	9.67	7.67	8.67	6.67	6.67	3.67	9.67	7.67	20.67	9.67	2.67	11.67	3.67	6.67	9.67	8.67	9.67	10.67	10.67
1246	79.3352	10.0	10.0	23.0	9.0	15.0	12.0	18.0	21.0	14.0	12.0	16.0	19.0	10.0	16.0	11.0	18.0	12.0	22.0	6.0	14.0	11.0	9.0	6.0	12.0	13.0	14.0	12.0
1253	79.7876	17.0	1.0	4.0	8.0	6.0	10.0	10.0	5.0	-2.0	3.0	7.0	3.0	8.0	7.0	-1.0	1.0	9.0	5.0	9.0	1.0	5.0	3.0	-1.0	6.0	9.0	1.0	-2.0
1260	80.2401	17.33	0.67	-1.33	9.67	3.67	-4.33	11.67	12.67	8.67	26.67	7.67	8.67	5.67	-2.33	2.67	13.67	-0.33	7.67	0.67	8.67	-2.33	-0.33	10.67	11.67	2.67	-1.33	6.67
1267	80.6928	17.33	-1.33	-0.33	4.67	-1.33	5.67	4.67	9.67	10.67	13.67	14.67	5.67	7.67	-0.33	-0.33	8.67	1.67	11.67	3.67	1.67	5.67	8.67	5.67	9.67	9.67	5.67	8.67
1274	81.1456	15.67	0.33	9.33	8.33	17.33	8.33	10.33	5.33	12.33	16.33	13.33	12.33	24.33	15.33	6.33	16.33	32.33	18.33	11.33	9.33	18.33	10.33	7.33	6.33	14.33	12.33	16.33
1281	81.5987	15.67	7.33	10.33	8.33	16.33	20.33	10.33	8.33	10.33	28.33	16.33	17.33	13.33	14.33	12.33	11.33	19.33	22.33	22.33	23.33	8.33	13.33	20.33	15.33	26.33	25.33	14.33
1288	82.0519	13.67	13.33	23.33	24.33	21.33	16.33	28.33	24.33	17.33	22.33	29.33	30.33	28.33	31.33	14.33	19.33	22.33	16.33	7.33	26.33	11.33	10.33	17.33	28.33	31.33	17.33	12.33
1295	82.5053	14.33	27.67	43.67	54.67	42.67	17.67	30.67	34.67	41.67	38.67	22.67	33.67	43.67	36.67	12.67	28.67	27.67	23.67	32.67	32.67	31.67	20.67	27.67	34.67	31.67	18.67	18.67
1302	82.9589	20.0	78.0	117.0	117.0	112.0	96.0	75.0	73.0	86.0	55.0	54.0	67.0	44.0	34.0	45.0	53.0	58.0	49.0	34.0	36.0	48.0	41.0	41.0	27.0	41.0	47.0	47.0
1309	83.4127	20.67	169.33	217.33	246.33	221.33	182.33	160.33	161.33	118.33	108.33	91.33	104.33	88.33	83.33	84.33	105.33	78.33	74.33	92.33	72.33	94.33	77.33	57.33	90.33	67.33	75.33	56.33
1316	83.8666	18.0	143.0	304.0	276.0	283.0	232.0	230.0	192.0	153.0	134.0	142.0	115.0	111.0	109.0	117.0	92.0	100.0	102.0	99.0	109.0	107.0	88.0	93.0	86.0	114.0	98.0	91.0
1323	84.3207	19.0	140.0	263.0	234.0	205.0	204.0	181.0	160.0	144.0	121.0	104.0	93.0	101.0	94.0	86.0	94.0	88.0	84.0	74.0	95.0	84.0	90.0	59.0	93.0	95.0	91.0	73.0
1330	84.7751	29.67	91.33	125.33	92.33	97.33	86.33	65.33	96.33	71.33	47.33	50.33	44.33	44.33	33.33	45.33	37.33	50.33	46.33	44.33	34.33	53.33	42.33	37.33	41.33	31.33	38.33	24.33
1337	85.2296	32.67	37.33	42.33	29.33	35.33	32.33	15.33	20.33	27.33	31.33	19.33	14.33	28.33	12.33	15.33	19.33	11.33	8.33	24.33	10.33	27.33	13.33	6.33	16.33	9.33	9.33	21.33
1344	85.6843	27.67	2.33	1.33	-1.67	2.33	8.33	6.33	14.33	7.33	15.33	13.33	8.33	10.33	0.33	15.33	10.33	23.33	4.33	1.33	21.33	16.33	13.33	10.33	10.33	15.33	16.33	4.33
1351	86.1392	27.0	3.0	7.0	3.0	5.0	9.0	14.0	8.0	10.0	-7.0	-3.0	13.0	-9.0	0.0	-2.0	6.0	-9.0	1.0	10.0	6.0	-4.0	8.0	6.0	3.0	2.0	2.0	10.0
1358	86.5943	22.67	-6.67	7.33	-1.67	4.33	3.33	10.33	11.33	11.33	7.33	1.33	3.33	5.33	3.33	0.33	-0.67	6.33	12.33	6.33	2.33	11.33	-4.67	1.33	17.33	9.33	-0.67	2.33
1365	87.0496	20.67	6.33	17.33	6.33	23.33	16.33	2.33	4.33	3.33	10.33	10.33	21.33	18.33	14.33	12.33	11.33	0.33	0.33	14.33	-0.67	8.33	5.33	9.33	11.33	7.33	6.33	5.33
1372	87.5051	25.67	6.33	6.33	2.33	8.33	9.33	8.33	12.33	1.33	8.33	-2.67	20.33	14.33	0.33	-0.67	13.33	-7.67	5.33	9.33	9.33	18.33	10.33	3.33	7.33	10.33	1.33	17.33
1379	87.9608	22.67	10.33	17.33	1.33	6.33	7.33	15.33	2.33	15.33	-1.67	1.33	22.33	7.33	8.33	11.33	14.33	5.33	16.33	10.33	9.33	4.33	14.33	8.33	21.33	14.33	3.33	9.33
1386	88.4167	25.33	-1.33	1.67	1.67	10.67	1.67	-0.33	-0.33	-5.33	13.67	6.67	5.67	16.67	13.67	-1.33	1.67	12.67	9.67	7.67	2.67	-2.33	14.67	8.67	5.67	11.67	20.67	9.67
1393	88.8728	22.33	7.67	14.67	6.67	-0.33	6.67	14.67	10.67	7.67	14.67	1.67	-0.33	-1.33	-0.33	16.67	15.67	9.67	-2.33	10.67	6.67	6.67	10.67	5.67	9.67	4.67	6.67	16.67
1400	89.3291	24.0	5.0	9.0	7.0	11.0	5.0	4.0	5.0	8.0	9.0	12.0	6.0	14.0	14.0	6.0	7.0	7.0	-2.0	15.0	9.0	6.0	9.0	11.0	6.0	2.0	15.0	9.0
1407	89.7857	19.0	17.0	4.0	14.0	17.0	7.0	17.0	4.0	30.0	6.0	21.0	10.0	6.0	5.0	16.0	8.0	16.0	14.0	5.0	12.0	28.0	16.0	4.0	10.0	6.0	21.0	9.0
1414	90.2424	22.67	6.33	6.33	11.33	12.33	3.33	7.33	6.33	10.33	13.33	5.33	10.33	-0.67	0.33	0.33	4.33	0.33	15.33	12.33	1.33	10.33	9.33	15.33	-0.67	11.33	11.33	3.33
1421	90.6993	23.33	5.67	4.67	3.67	7.67	8.67	4.67	0.67	7.67	15.67	11.67	4.67	15.67	7.67	10.67	8.67	3.67	3.67	8.67	7.67	9.67	3.67	9.67	8.67	13.67	8.67	4.67
1428	91.1565	24.33	0.67	-0.33	2.67	4.67	3.67	-0.33	10.67	1.67	6.67	6.67	8.67	16.67	4.67	7.67	14.67	7.67	5.67	13.67	9.67	-0.33	12.67	3.67	1.67	1.67	0.67	19.67
1435	91.6139	23.33	14.67	16.67	8.67	3.67	6.67	10.67	7.67	0.67	20.67	13.67	16.67	2.67	11.67	1.67	6.67	15.67	14.67	10.67	10.67	12.67	14.67	11.67	13.67	15.67	9.67	6.67
1442	92.0715	24.0	-1.0	1.0	0.0	5.0	3.0	13.0	6.0	7.0	2.0	11.0	10.0	13.0	5.0	11.0	-1.0	13.0	17.0	17.0	7.0	4.0	6.0	13.0	1.0	15.0	13.0	7.0
1449	92.5293	22.67	3.33	1.33	9.33	9.33	8.33	8.33	11.33	13.33	12.33	17.33	10.33	2.33	10.33	12.33	9.33	14.33	4.33	10.33	-0.67	11.33	15.33	17.33	6.33	11.33	18.33	12.33
1456	92.9873	28.67	6.33	10.33	9.33	-6.67	9.33	-3.67	3.33	5.33	5.33	2.33	8.33	5.33	3.33	-0.67	4.33	4.33	10.33	-1.67	1.33	-0.67	2.33	2.33	4.33	8.33	8.33	5.33
1463	93.4456	28.0	-1.0	-2.0	-2.0	0.0	11.0	6.0	-1.0	5.0	-1.0	1.0	12.0	1.0	2.0	10.0	5.0	16.0	11.0	7.0	-8.0	11.0	9.0	15.0	16.0	12.0	5.0	11.0
1470	93.904	26.33	4.67	6.67	-2.33	-0.33	-0.33	12.67	-7.33	3.67	1.67	0.67	11.67	3.67	5.67	10.67	-3.33	6.67	19.67	5.67	12.67	6.67	4.67	5.67	9.67	0.67	5.67	0.67
1477	94.3628	22.67	1.33	9.33	3.33	10.33	14.33	20.33	12.33	9.33	9.33	12.33	4.33	9.33	4.33	13.33	10.33	18.33	14.33	11.33	17.33	9.33	19.33	2.33	12.33	11.33	13.33	10.33
1484	94.8217	27.67	0.33	0.33	7.33	11.33	9.33	11.33	9.33	8.33	6.33	4.33	-0.67	9.33	16.33	8.33	4.33	-4.67	7.33	0.33	1.33	12.33	10.33	11.33	4.33	7.33	6.33	15.33
1491	95.2808	29.67	1.33	-3.67	6.33	3.33	8.33	1.33	-5.67	4.33	5.33	19.33	15.33	14.33	4.33	10.33	6.33	1.33	9.33	10.33	15.33	10.33	19.33	-1.67	1.33	11.33	5.33	8.33
1498	95.7402	27.67	0.33	6.33	14.33	1.33	1.33	-1.67	4.33	5.33	15.33	13.33	5.33	24.33	11.33	14.33	7.33	9.33	5.33	7.33	6.33	22.33	12.33	16.33	6.33	11.33	15.33	18.33
1505	96.1999	29.0	0.0	6.0	-1.0	6.0	1.0	9.0	-1.0	19.0	16.0	19.0	15.0	19.0	18.0	14.0	6.0	22.0	18.0	6.0	5.0	13.0	12.0	20.0	13.0	15.0	12.0	24.0
1512	96.6597	35.0	-1.0	3.0	0.0	-2.0	5.0	1.0	2.0	10.0	18.0	23.0	30.0	18.0	14.0	17.0	11.0	11.0	30.0	20.0	19.0	22.0	22.0	15.0	23.0	18.0	27.0	15.0
1519	97.1198	30.33	0.67	-5.33	4.67	4.67	-1.33	8.67	7.67	6.67	24.67	18.67	18.67	39.67	21.67	27.67	27.67	21.67	24.67	31.67	34.67	30.67	22.67	33.67	16.67	19.67	29.67	16.67
1526	97.5802	29.0	7.0	5.0	6.0	18.0	6.0	6.0	2.0	18.0	27.0	29.0	33.0	31.0	32.0	23.0	32.0	38.0	20.0	46.0	42.0	25.0	36.0	27.0	23.0	15.0	43.0	28.0
1533	98.0407	27.33	5.67	3.67	5.67	18.67	25.67	21.67	8.67	24.67	28.67	19.67	9.67	19.67	32.67	28.67	15.67	14.67	19.67	29.67	16.67	2.67	5.67	18.67	34.67	28.67	33.67	25.67
1540	98.5016	33.67	8.33	-7.67	-4.67	-0.67	-7.67	3.33	8.33	1.33	17.33	11.33	5.33	16.33	6.33	16.33	7.33	6.33	11.33	6.33	15.33	2.33	12.33	13.33	6.33	9.33	6.33	-1.67
1547	98.9626	38.33	-6.33	0.67	-8.33	-5.33	-7.33	-7.33	9.67	-13.33	3.67	-0.33	-1.33	-2.33	4.67	-8.33	-11.33	0.67	-14.33	0.67	-3.33	-4.33	-7.33	-11.33	-7.33	-1.33	1.67	3.67
1554	99.4239	27.67	2.33	11.33	12.33	5.33	4.33	10.33	13.33	9.33	8.33	9.33	7.33	17.33	12.33	16.33	6.33	17.33	14.33	9.33	14.33	0.33	9.33	7.33	2.33	1.33	5.33	14.33
1561	99.8855	31.0	-2.0	-1.0	-1.0	9.0	12.0	-3.0	10.0	5.0	12.0	-2.0	8.0	5.0	11.0	10.0	2.0	17.0	20.0	-8.0	8.0	22.0	6.0	4.0	8.0	0.0	-6.0	7.0
1568	100.347	27.0	5.0	5.0	2.0	-3.0	11.0	6.0	4.0	1.0	4.0	9.0	12.0	6.0	6.0	9.0	9.0	16.0	17.0	3.0	21.0	3.0	10.0	9.0	13.0	18.0	19.0	16.0
1575	100.809	27.0	8.0	4.0	0.0	11.0	1.0	5.0	6.0	7.0	7.0	11.0	15.0	2.0	8.0	27.0	23.0	5.0	13.0	4.0	12.0	13.0	8.0	2.0	15.0	10.0	12.0	0.0
1582	101.272	28.0	6.0	12.0	10.0	2.0	15.0	3.0	-2.0	-1.0	2.0	-3.0	0.0	0.0	0.0	-1.0	9.0	2.0	11.0	4.0	-1.0	4.0	9.0	8.0	2.0	1.0	4.0	11.0
1589	101.734	27.67	1.33	9.33	4.33	13.33	11.33	16.33	8.33	20.33	3.33	8.33	9.33	16.33	9.33	2.33	6.33	12.33	-2.67	13.33	27.33	4.33	11.33	4.33	13.33	6.33	-5.67	1.33
1596	102.197	32.0	7.0	6.0	8.0	3.0	11.0	14.0	14.0	10.0	0.0	-5.0	13.0	-5.0	4.0	16.0	9.0	2.0	-1.0	5.0	-5.0	0.0	-3.0	-10.0	11.0	8.0	3.0	-1.0
1603	102.66	21.33	21.67	22.67	20.67	23.67	20.67	18.67	12.67	19.67	18.67	3.67	16.67	12.67	12.67	8.67	12.67	14.67	17.67	16.67	10.67	18.67	17.67	17.67	28.67	12.67	14.67	20.67
1610	103.123	33.0	-1.0	-3.0	6.0	12.0	4.0	18.0	-1.0	9.0	-4.0	-3.0	-5.0	-4.0	7.0	-10.0	2.0	4.0	0.0	0.0	1.0	-7.0	-2.0	6.0	10.0	5.0	5.0	2.0
1617	103.587	30.33	-1.33	5.67	-5.33	10.67	8.67	-7.33	-5.33	6.67	4.67	-1.33	-0.33	-6.33	7.67	2.67	5.67	4.67	0.67	2.67	6.67	5.67	10.67	-3.33	5.67	-2.33	5.67	-0.33
1624	104.051	29.33	5.67	-4.33	-0.33	-4.33	-2.33	3.67	-7.33	2.67	9.67	0.67	-4.33	-0.33	-8.33	11.67	3.67	1.67	3.67	-3.33	3.67	6.67	3.67	0.67	2.67	3.67	4.67	1.67
1631	104.515	26.33	-0.33	7.67	-4.33	5.67	-3.33	1.67	2.67	0.67	1.67	-3.33	8.67	12.67	8.67	4.67	-8.33	9.67	-2.33	7.67	7.67	4.67	-3.33	-0.33	2.67	3.67	13.67	2.67
1638	104.979	29.67	9.33	6.33	-6.67	4.33	-3.67	-4.67	-4.67	8.33	0.33	-8.67	-4.67	-1.67	13.33	4.33	-0.67	-0.67	4.33	5.33	1.33	6.33	1.33	2.33	-10.67	5.33	1.33	8.33
1645	105.444	21.0	-2.0	3.0	15.0	9.0	5.0	3.0	12.0	10.0	11.0	11.0	16.0	15.0	0.0	15.0	18.0	-4.0	9.0	4.0	17.0	17.0	2.0	6.0	5.0	8.0	2.0	1.0
1652	105.909	29.33	-4.33	-5.33	-1.33	-7.33	-1.33	-1.33	-1.33	2.67	-8.33	-12.33	-2.33	-6.33	-4.33	-2.33	8.67	-7.33	7.67	-1.33	3.67	4.67	-0.33	-5.33	-5.33	-1.33	-2.33	-2.33
1659	106.374	22.33	-1.33	11.67	1.67	12.67	7.67	11.67	17.67	6.67	9.67	7.67	2.67	-0.33	-2.33	13.67	-0.33	-0.33	-0.33	2.67	-7.33	3.67	8.67	3.67	7.67	0.67	9.67	10.67
1666	106.84	23.0	1.0	9.0	-1.0	-4.0	1.0	0.0	7.0	4.0	2.0	1.0	9.0	8.0	-4.0	5.0	17.0	13.0	6.0	17.0	0.0	-1.0	12.0	10.0	17.0	-2.0	10.0	16.0
1673	107.305	25.33	-3.33	2.67	-1.33	-6.33	-10.33	15.67	3.67	0.67	-0.33	-1.33	-3.33	0.67	-0.33	5.67	8.67	1.67	-5.33	-1.33	19.67	6.67	1.67	2.67	3.67	9.67	-1.33	6.67
1680	107.771	27.0	-6.0	-2.0	-3.0	-1.0	-6.0	-1.0	-9.0	6.0	-7.0	-4.0	-7.0	5.0	-2.0	6.0	-5.0	3.0	7.0	16.0	5.0	-6.0	12.0	3.0	3.0	-7.0	-6.0	4.0
1687	108.238	24.67	3.33	-1.67	-3.67	1.33	1.33	6.33	2.33	-1.67	-0.67	3.33	8.33	2.33	3.33	9.33	1.33	0.33	4.33	10.33	-1.67	13.33	2.33	0.33	3.33	2.33	-3.67	-7.67
1694	108.704	26.33	1.67	-0.33	-4.33	-9.33	-4.33	-3.33	-2.33	1.67	-0.33	-0.33	-5.33	-4.33	-6.33	2.67	-2.33	0.67	-1.33	-4.33	1.67	5.67	-0.33	4.67	-5.33	-1.33	0.67	1.67
1701	109.171	21.67	3.33	11.33	1.33	-3.67	6.33	6.33	2.33	5.33	2.33	8.33	9.33	14.33	-1.67	1.33	1.33	8.33	-1.67	7.33	19.33	6.33	3.33	5.33	1.33	3.33	6.33	13.33
1708	109.638	23.0	7.0	2.0	-9.0	6.0	-7.0	3.0	-1.0	0.0	-9.0	10.0	1.0	-5.0	5.0	-6.0	-2.0	-2.0	1.0	0.0	5.0	2.0	-1.0	2.0	8.0	8.0	2.0	-1.0
1715	110.106	21.0	-3.0	2.0	0.0	12.0	-4.0	2.0	8.0	7.0	-13.0	-3.0	-6.0	-1.0	8.0	-6.0	0.0	11.0	-1.0	6.0	-1.0	11.0	2.0	10.0	2.0	12.0	8.0	6.0
1722	110.574	24.0	1.0	0.0	-11.0	-2.0	3.0	0.0	-2.0	4.0	-5.0	-3.0	-7.0	0.0	2.0	-3.0	-4.0	1.0	2.0	4.0	0.0	0.0	8.0	-5.0	4.0	8.0	-4.0	2.0
1729	111.042	20.33	6.67	7.67	13.67	6.67	4.67	8.67	-1.33	5.67	6.67	-0.33	-6.33	2.67	3.67	13.67	3.67	4.67	2.67	-2.33	-0.33	17.67	-1.33	3.67	13.67	6.67	2.67	15.67
1736	111.51	18.67	-3.67	0.33	16.33	10.33	13.33	12.33	7.33	10.33	4.33	7.33	6.33	-5.67	11.33	5.33	11.33	9.33	10.33	17.33	6.33	-0.67	5.33	5.33	10.33	7.33	4.33	8.33
1743	111.979	21.33	0.67	8.67	7.67	3.67	17.67	0.67	8.67	6.67	3.67	5.67	4.67	2.67	5.67	1.67	11.67	0.67	10.67	5.67	1.67	4.67	6.67	10.67	4.67	12.67	-2.33	5.67
1750	112.447	17.67	14.33	16.33	11.33	9.33	10.33	12.33	15.33	14.33	1.33	6.33	13.33	-3.67	11.33	9.33	6.33	7.33	15.33	10.33	13.33	6.33	-0.67	6.33	6.33	12.33	11.33	10.33
1757	112.917	22.67	-8.67	3.33	9.33	17.33	0.33	11.33	-3.67	-4.67	10.33	1.33	0.33	1.33	7.33	3.33	-6.67	4.33	-2.67	5.33	-3.67	-4.67	-7.67	6.33	-5.67	3.33	2.33	1.33
1764	113.386	14.33	8.67	4.67	3.67	14.67	8.67	10.67	4.67	3.67	12.67	5.67	8.67	6.67	2.67	10.67	0.67	8.67	8.67	11.67	5.67	5.67	12.67	1.67	10.67	16.67	6.67	6.67
1771	113.856	19.67	2.33	1.33	-6.67	2.33	-3.67	-5.67	-1.67	1.33	0.33	5.33	0.33	5.33	5.33	9.33	8.33	-2.67	1.33	1.33	-0.67	-4.67	3.33	3.33	-3.67	1.33	0.33	-3.67
1778	114.326	16.0	-1.0	-4.0	-1.0	1.0	6.0	7.0	5.0	2.0	3.0	-1.0	1.0	0.0	9.0	2.0	4.0	8.0	4.0	3.0	1.0	-2.0	4.0	5.0	4.0	10.0	1.0	8.0
1785	114.796	16.0	2.0	6.0	1.0	15.0	6.0	1.0	5.0	1.0	-2.0	4.0	4.0	-1.0	5.0	2.0	-3.0	1.0	5.0	7.0	1.0	-3.0	12.0	7.0	-4.0	26.0	1.0	-2.0
1792	115.267	14.0	7.0	14.0	8.0	8.0	-1.0	6.0	0.0	11.0	0.0	0.0	10.0	4.0	9.0	7.0	5.0	-3.0	0.0	3.0	4.0	0.0	5.0	7.0	6.0	3.0	-1.0	-1.0
1799	115.738	17.0	1.0	3.0	-1.0	-9.0	5.0	-2.0	-2.0	-7.0	5.0	-1.0	4.0	2.0	9.0	-4.0	7.0	0.0	-2.0	5.0	0.0	-3.0	8.0	-1.0	-1.0	-6.0	7.0	7.0
1806	116.209	15.67	4.33	-2.67	2.33	4.33	4.33	-2.67	2.33	-1.67	3.33	0.33	4.33	2.33	-1.67	-1.67	2.33	6.33	9.33	3.33	3.33	-0.67	0.33	3.33	2.33	-6.67	-0.67	-1.67
1813	116.681	12.0	4.0	5.0	-2.0	18.0	12.0	2.0	7.0	8.0	10.0	10.0	5.0	6.0	5.0	8.0	4.0	4.0	14.0	12.0	-3.0	4.0	3.0	5.0	5.0	2.0	11.0	1.0
1820	117.153	16.67	-2.67	-1.67	-2.67	5.33	-1.67	-4.67	-3.67	-2.67	13.33	0.33	2.33	4.33	5.33	-0.67	7.33	0.33	-0.67	-4.67	-0.67	-0.67	0.33	-3.67	11.33	7.33	-2.67	1.33
1827	117.625	15.0	-3.0	7.0	2.0	4.0	1.0	1.0	0.0	-1.0	2.0	2.0	-1.0	0.0	1.0	-3.0	4.0	6.0	-1.0	1.0	8.0	4.0	1.0	5.0	6.0	9.0	5.0	5.0
1834	118.098	12.0	3.0	6.0	5.0	1.0	5.0	5.0	-2.0	-2.0	8.0	2.0	5.0	3.0	10.0	2.0	7.0	9.0	10.0	1.0	11.0	5.0	-4.0	-1.0	10.0	11.0	2.0	5.0
1841	118.571	12.67	-2.67	3.33	1.33	-2.67	-0.67	5.33	0.33	6.33	-1.67	1.33	2.33	-3.67	-0.67	-5.67	6.33	2.33	2.33	6.33	4.33	-0.67	5.33	1.33	2.33	9.33	1.33	2.33
1848	119.044	16.0	-12.0	-9.0	-8.0	-4.0	-2.0	1.0	-3.0	-4.0	-1.0	1.0	-1.0	-5.0	6.0	-7.0	-1.0	-5.0	-5.0	0.0	-3.0	0.0	8.0	0.0	3.0	-4.0	1.0	-6.0
1855	119.518	11.67	3.33	5.33	3.33	1.33	6.33	6.33	-0.67	-1.67	-1.67	0.33	5.33	2.33	2.33	5.33	-0.67	-1.67	3.33	6.33	12.33	4.33	-1.67	-4.67	7.33	1.33	9.33	3.33
1862	119.991	11.0	4.0	1.0	-1.0	6.0	7.0	5.0	2.0	0.0	-2.0	5.0	2.0	12.0	1.0	-4.0	5.0	3.0	2.0	0.0	1.0	9.0	10.0	2.0	1.0	5.0	3.0	2.0
1869	120.466	12.33	3.67	-3.33	-0.33	-2.33	1.67	3.67	7.67	0.67	4.67	12.67	13.67	-2.33	2.67	4.67	6.67	-2.33	7.67	0.67	-0.33	5.67	1.67	0.67	5.67	-2.33	1.67	6.67
1876	120.94	9.67	3.33	5.33	2.33	-0.67	8.33	-0.67	7.33	-1.67	4.33	1.33	-0.67	5.33	5.33	8.33	5.33	0.33	13.33	4.33	14.33	4.33	3.33	1.33	7.33	10.33	4.33	8.33
1883	121.415	17.33	0.67	-4.33	-4.33	-1.33	-7.33	-0.33	-0.33	-5.33	-5.33	-1.33	-6.33	3.67	0.67	-6.33	-4.33	2.67	3.67	-9.33	-3.33	-4.33	-2.33	-4.33	-1.33	-9.33	3.67	-0.33
1890	121.89	14.33	-4.33	5.67	-2.33	-2.33	0.67	0.67	-3.33	-2.33	-8.33	2.67	4.67	2.67	-0.33	-0.33	0.67	1.67	1.67	0.67	2.67	-4.33	-2.33	2.67	5.67	1.67	-1.33	-3.33
1897	122.366	10.67	1.33	7.33	11.33	6.33	3.33	8.33	7.33	-0.67	9.33	8.33	6.33	3.33	5.33	4.33	1.33	5.33	3.33	2.33	9.33	2.33	12.33	10.33	1.33	9.33	6.33	4.33
1904	122.841	12.33	-0.33	1.67	1.67	2.67	3.67	2.67	-0.33	2.67	0.67	7.67	14.67	5.67	-5.33	1.67	5.67	-1.33	10.67	5.67	6.67	-2.33	2.67	5.67	6.67	1.67	9.67	1.67
1911	123.318	11.33	1.67	8.67	-2.33	3.67	8.67	8.67	-0.33	2.67	9.67	-1.33	13.67	9.67	-3.33	12.67	4.67	2.67	-0.33	-2.33	1.67	0.67	7.67	2.67	2.67	9.67	-0.33	3.67
1918	123.794	11.33	-0.33	3.67	5.67	0.67	2.67	1.67	-1.33	-1.33	-3.33	2.67	0.67	0.67	1.67	-0.33	4.67	-0.33	-3.33	0.67	2.67	6.67	-1.33	-2.33	-0.33	2.67	2.67	6.67
1925	124.271	13.0	-1.0	-1.0	1.0	-2.0	2.0	-2.0	0.0	7.0	-2.0	1.0	4.0	-4.0	0.0	5.0	-1.0	-4.0	-2.0	4.0	-2.0	2.0	-3.0	2.0	0.0	0.0	4.0	-4.0
1932	124.748	11.67	2.33	-6.67	2.33	5.33	7.33	-1.67	-7.67	1.33	5.33	7.33	4.33	-0.67	-6.67	-7.67	3.33	2.33	-2.67	4.33	4.33	-1.67	5.33	1.33	3.33	6.33	-3.67	3.33
1939	125.226	10.33	0.67	2.67	-2.33	1.67	0.67	0.67	-2.33	3.67	-5.33	-3.33	-2.33	-0.33	-4.33	4.67	8.67	-2.33	1.67	3.67	10.67	-3.33	1.67	0.67	-3.33	0.67	-0.33	6.67
1946	125.704	10.0	6.0	0.0	-5.0	0.0	4.0	1.0	-1.0	2.0	2.0	-3.0	7.0	0.0	-1.0	1.0	3.0	-5.0	3.0	0.0	5.0	-1.0	1.0	2.0	4.0	0.0	10.0	-1.0
1953	126.182	7.0	6.0	4.0	3.0	3.0	2.0	1.0	4.0	2.0	11.0	2.0	1.0	7.0	-1.0	8.0	6.0	3.0	4.0	1.0	-1.0	2.0	10.0	9.0	6.0	1.0	6.0	5.0
1960	126.66	7.33	4.67	1.67	10.67	7.67	-0.33	3.67	6.67	11.67	6.67	12.67	2.67	11.67	1.67	-1.33	2.67	3.67	5.67	6.67	12.67	6.67	11.67	0.67	4.67	5.67	7.67	7.67
1967	127.139	12.0	4.0	2.0	1.0	-2.0	-2.0	3.0	-4.0	0.0	1.0	-6.0	-3.0	-1.0	-6.0	0.0	0.0	0.0	6.0	-3.0	1.0	0.0	-5.0	9.0	2.0	-6.0	-8.0	0.0
1974	127.619	12.0	2.0	-3.0	-6.0	-2.0	2.0	1.0	1.0	-3.0	-1.0	-7.0	-4.0	-4.0	-5.0	-2.0	2.0	-3.0	-1.0	1.0	5.0	-4.0	1.0	-5.0	-1.0	-5.0	3.0	-1.0
1981	128.098	6.0	1.0	10.0	3.0	4.0	7.0	6.0	15.0	1.0	3.0	10.0	7.0	-1.0	4.0	2.0	0.0	10.0	6.0	2.0	4.0	11.0	-2.0	9.0	8.0	4.0	5.0	4.0
1988	128.578	9.67	3.33	5.33	0.33	-0.67	3.33	2.33	1.33	0.33	0.33	0.33	-2.67	-0.67	-1.67	3.33	1.33	0.33	1.33	2.33	0.33	4.33	4.33	0.33	3.33	6.33	2.33	3.33
1995	129.059	10.33	1.67	-0.33	-0.33	0.67	1.67	-3.33	-5.33	1.67	-1.33	-7.33	-0.33	3.67	-0.33	-2.33	3.67	7.67	-0.33	-3.33	-1.33	3.67	-0.33	6.67	0.67	3.67	2.67	-1.33
2002	129.539	8.67	3.33	1.33	-0.67	2.33	-0.67	5.33	3.33	-2.67	-1.67	3.33	4.33	-1.67	-3.67	6.33	1.33	-0.67	6.33	-2.67	2.33	5.33	-0.67	-0.67	3.33	2.33	6.33	4.33
2009	130.02	7.67	1.33	1.33	1.33	11.33	0.33	6.33	1.33	9.33	3.33	3.33	5.33	4.33	3.33	5.33	5.33	0.33	5.33	6.33	4.33	8.33	2.33	-0.67	10.33	-0.67	9.33	-0.67
2016	130.502	7.33	0.67	0.67	-1.33	4.67	-0.33	1.67	-2.33	1.67	-1.33	-2.33	1.67	-0.33	1.67	-1.33	2.67	5.67	3.67	5.67	4.67	0.67	-2.33	1.67	4.67	1.67	6.67	5.67
2023	130.984	5.67	7.33	7.33	1.33	7.33	-0.67	3.33	2.33	6.33	4.33	5.33	0.33	2.33	3.33	1.33	0.33	-1.67	2.33	7.33	2.33	8.33	3.33	1.33	7.33	6.33	-0.67	7.33
2030	131.466	8.0	-2.0	0.0	4.0	2.0	5.0	1.0	2.0	-1.0	-3.0	7.0	0.0	5.0	-1.0	1.0	2.0	3.0	-1.0	4.0	0.0	6.0	1.0	1.0	4.0	6.0	0.0	5.0
2037	131.948	8.67	-0.67	1.33	2.33	5.33	-3.67	-5.67	0.33	-4.67	-3.67	-4.67	4.33	0.33	1.33	1.33	1.33	-0.67	-1.67	-2.67	0.33	0.33	2.33	-0.67	0.33	0.33	-3.67	6.33
2044	132.431	7.67	-1.67	-1.67	3.33	-1.67	3.33	-0.67	4.33	2.33	1.33	-0.67	0.33	5.33	2.33	-4.67	0.33	-2.67	-0.67	5.33	2.33	-2.67	1.33	0.33	-2.67	4.33	6.33	6.33
2047	132.638	9.0	1.0	2.0	-2.0	-2.0	2.0	-1.0	0.0	0.0	-6.0	0.0	1.0	0.0	-3.0	1.0	-2.0	-1.0	-2.0	-2.0	-1.0	2.0	0.0	-1.0	-1.0	1.0	0.0	-2.0