File: EDX Back Ups and Old Files/EDX Processed Data/.ipynb_checkpoints/High pH BL 60C 6d-checkpoint.txt
Name: High pH BL 60C 6d
Number of Scans: 29
Positions: [-13.0, -12.75, -12.5, -12.25, -12.0, -11.75, -11.5, -11.25, -11.0, -10.75, -10.5, -10.25, -10.0, -9.75, -9.5, -9.25, -9.0, -8.75, -8.5, -8.25, -8.0, -7.75, -7.5, -7.25, -7.0, -6.75, -6.5, -6.25, -6.0]
Points per Scan: 2048
Sample Edge: 3
Scans Off Sample: [0, 1, 2]
Conversion Features: [(275, 17444.3), (309, 19608.3), (913, 57981.7), (934, 59318.24), (1058, 67244.3)]
Degree of Fit: 3
Fit Coeffecients: [ 8.59183e-07 -0.001482  64.3003 -144.207]
pH: High
Steel Fiber: False
Aging Temp.: 60
Aging Atm.: 100% CO2
Aging Humidity: None
Aging Time: 6

*********
#Bins	Energy [keV]	Avg. Background	-12.25 [mm]	-12.0 [mm]	-11.75 [mm]	-11.5 [mm]	-11.25 [mm]	-11.0 [mm]	-10.75 [mm]	-10.5 [mm]	-10.25 [mm]	-10.0 [mm]	-9.75 [mm]	-9.5 [mm]	-9.25 [mm]	-9.0 [mm]	-8.75 [mm]	-8.5 [mm]	-8.25 [mm]	-8.0 [mm]	-7.75 [mm]	-7.5 [mm]	-7.25 [mm]	-7.0 [mm]	-6.75 [mm]	-6.5 [mm]	-6.25 [mm]	-6.0 [mm]
0	-0.144207	0.0	0.0	0.0	0.0	0.0	0.0	0.0	0.0	0.0	0.0	0.0	0.0	0.0	0.0	0.0	0.0	0.0	0.0	0.0	0.0	0.0	0.0	0.0	0.0	0.0	0.0	0.0
7	0.305823	1879.67	-76.67	-12.67	13.33	-85.67	-0.67	-33.67	-11.67	-12.67	-94.67	-155.67	-60.67	7.33	-30.67	-61.67	-122.67	-61.67	-10.67	-48.67	4.33	-102.67	-24.67	-20.67	51.33	21.33	19.33	-118.67
14	0.75571	1057.33	20.67	36.67	4.67	-21.33	-13.33	-25.33	66.67	-1.33	20.67	-13.33	-36.33	6.67	51.67	-11.33	13.67	22.67	-15.33	4.67	66.67	10.67	-32.33	7.67	27.67	-38.33	37.67	-37.33
21	1.20545	250.0	48.0	-38.0	-2.0	-8.0	22.0	-16.0	-7.0	27.0	3.0	-21.0	-20.0	-11.0	2.0	-7.0	-1.0	-26.0	-16.0	-22.0	-15.0	-7.0	-20.0	-37.0	-6.0	4.0	-7.0	7.0
28	1.65506	38.33	-4.33	3.67	-1.33	3.67	4.67	-1.33	3.67	1.67	-5.33	15.67	-2.33	-9.33	9.67	-1.33	2.67	-5.33	-2.33	-1.33	6.67	5.67	3.67	-3.33	2.67	8.67	6.67	2.67
35	2.10453	3.67	3.33	1.33	1.33	2.33	0.33	0.33	-1.67	-3.67	-1.67	1.33	0.33	-0.67	2.33	6.33	-1.67	0.33	-2.67	-1.67	-1.67	1.33	-0.67	1.33	1.33	4.33	1.33	0.33
42	2.55386	0.0	1.0	1.0	1.0	1.0	3.0	1.0	0.0	0.0	0.0	2.0	0.0	0.0	0.0	0.0	2.0	0.0	1.0	0.0	0.0	2.0	1.0	1.0	0.0	1.0	1.0	1.0
49	3.00305	0.33	0.67	-0.33	1.67	0.67	2.67	-0.33	-0.33	0.67	-0.33	-0.33	-0.33	0.67	-0.33	0.67	-0.33	-0.33	-0.33	-0.33	-0.33	-0.33	1.67	-0.33	1.67	-0.33	0.67	1.67
56	3.45212	0.33	0.67	-0.33	0.67	-0.33	-0.33	-0.33	-0.33	-0.33	0.67	0.67	0.67	-0.33	0.67	-0.33	-0.33	-0.33	-0.33	-0.33	-0.33	0.67	0.67	-0.33	0.67	1.67	0.67	0.67
63	3.90105	0.0	0.0	0.0	0.0	1.0	1.0	1.0	0.0	0.0	0.0	0.0	1.0	0.0	1.0	1.0	1.0	0.0	0.0	0.0	0.0	1.0	0.0	0.0	0.0	0.0	0.0	1.0
70	4.34985	0.0	0.0	0.0	1.0	1.0	0.0	2.0	0.0	0.0	0.0	0.0	1.0	1.0	0.0	0.0	0.0	0.0	0.0	1.0	0.0	1.0	0.0	1.0	0.0	1.0	0.0	0.0
77	4.79852	0.67	-0.67	-0.67	0.33	-0.67	-0.67	-0.67	-0.67	-0.67	-0.67	0.33	0.33	-0.67	0.33	0.33	-0.67	-0.67	-0.67	0.33	-0.67	0.33	1.33	-0.67	-0.67	-0.67	-0.67	-0.67
84	5.24707	1.0	0.0	-1.0	0.0	0.0	0.0	-1.0	-1.0	0.0	-1.0	1.0	0.0	-1.0	-1.0	-1.0	-1.0	-1.0	-1.0	-1.0	-1.0	1.0	2.0	-1.0	1.0	0.0	-1.0	-1.0
91	5.6955	0.33	2.67	-0.33	-0.33	-0.33	1.67	-0.33	-0.33	0.67	-0.33	-0.33	-0.33	0.67	0.67	1.67	0.67	0.67	0.67	-0.33	-0.33	-0.33	-0.33	-0.33	-0.33	-0.33	1.67	0.67
98	6.1438	0.67	-0.67	-0.67	-0.67	-0.67	0.33	0.33	-0.67	0.33	0.33	0.33	1.33	0.33	0.33	0.33	1.33	0.33	0.33	0.33	-0.67	0.33	1.33	1.33	0.33	-0.67	-0.67	3.33
105	6.59198	1.0	0.0	0.0	2.0	1.0	0.0	5.0	2.0	-1.0	1.0	1.0	0.0	0.0	3.0	-1.0	1.0	1.0	1.0	0.0	-1.0	2.0	1.0	1.0	1.0	2.0	0.0	1.0
112	7.04005	1.0	0.0	3.0	0.0	-1.0	-1.0	0.0	2.0	0.0	0.0	0.0	1.0	0.0	2.0	2.0	3.0	-1.0	2.0	2.0	2.0	3.0	0.0	1.0	2.0	3.0	1.0	0.0
119	7.48799	2.0	-1.0	2.0	0.0	-2.0	2.0	2.0	-1.0	7.0	2.0	0.0	3.0	3.0	-1.0	5.0	6.0	3.0	2.0	6.0	3.0	2.0	3.0	6.0	3.0	1.0	5.0	2.0
126	7.93583	8.67	-6.67	-1.67	-0.67	-4.67	-2.67	-3.67	-0.67	-6.67	0.33	-3.67	-1.67	-6.67	-0.67	-3.67	-3.67	-6.67	-5.67	-4.67	-2.67	0.33	-2.67	-6.67	-3.67	-4.67	-0.67	-6.67
133	8.38354	6.33	-0.33	-1.33	2.67	-1.33	-3.33	0.67	-0.33	0.67	0.67	-3.33	-0.33	-0.33	-0.33	-1.33	5.67	-1.33	2.67	-1.33	-2.33	-0.33	1.67	1.67	3.67	-2.33	4.67	3.67
140	8.83115	9.67	-0.67	-2.67	-4.67	-1.67	-0.67	-3.67	0.33	-4.67	-0.67	-1.67	3.33	-3.67	2.33	-2.67	1.33	0.33	-2.67	-5.67	0.33	-0.67	-3.67	-1.67	-3.67	-4.67	2.33	-3.67
147	9.27865	7.0	2.0	2.0	0.0	1.0	7.0	3.0	5.0	3.0	9.0	11.0	1.0	3.0	2.0	3.0	6.0	7.0	5.0	2.0	2.0	5.0	4.0	-1.0	3.0	1.0	4.0	2.0
154	9.72604	13.33	-1.33	-5.33	-3.33	1.67	-3.33	-4.33	-7.33	-3.33	-4.33	-7.33	3.67	0.67	1.67	-0.33	2.67	-2.33	-3.33	-7.33	-3.33	1.67	-1.33	-3.33	0.67	2.67	0.67	1.67
161	10.1733	7.0	2.0	7.0	8.0	4.0	9.0	12.0	10.0	6.0	2.0	5.0	3.0	4.0	6.0	2.0	5.0	5.0	2.0	3.0	5.0	3.0	14.0	3.0	-1.0	9.0	9.0	0.0
168	10.6205	9.33	0.67	-5.33	1.67	1.67	-2.33	3.67	5.67	-2.33	6.67	-0.33	0.67	2.67	2.67	-0.33	6.67	-3.33	3.67	0.67	-4.33	-3.33	4.67	-0.33	-1.33	2.67	-1.33	4.67
175	11.0676	12.0	2.0	-6.0	-1.0	0.0	-1.0	5.0	3.0	-2.0	4.0	0.0	3.0	-4.0	0.0	3.0	-4.0	0.0	-3.0	-2.0	1.0	1.0	0.0	4.0	-6.0	-2.0	-2.0	0.0
182	11.5145	11.67	0.33	0.33	-3.67	-5.67	1.33	-0.67	-5.67	2.33	3.33	-0.67	-0.67	-4.67	-3.67	0.33	-0.67	0.33	2.33	4.33	-0.67	1.33	4.33	4.33	5.33	-4.67	-2.67	-2.67
189	11.9614	8.33	0.67	8.67	2.67	-1.33	6.67	2.67	-0.33	4.67	7.67	6.67	7.67	5.67	4.67	5.67	9.67	1.67	3.67	3.67	1.67	-0.33	4.67	-1.33	0.67	1.67	0.67	-0.33
196	12.4082	8.33	-2.33	0.67	5.67	7.67	2.67	3.67	1.67	0.67	5.67	0.67	1.67	4.67	2.67	-1.33	10.67	4.67	4.67	3.67	2.67	5.67	1.67	0.67	2.67	4.67	5.67	-0.33
203	12.8549	8.33	4.67	1.67	-2.33	2.67	-2.33	-0.33	-0.33	2.67	6.67	1.67	1.67	1.67	0.67	8.67	4.67	3.67	0.67	1.67	5.67	1.67	6.67	6.67	8.67	6.67	-0.33	8.67
210	13.3015	11.33	-2.33	-2.33	6.67	1.67	-5.33	-5.33	5.67	2.67	-0.33	1.67	-0.33	-0.33	2.67	1.67	-1.33	1.67	-2.33	-5.33	0.67	2.67	4.67	-5.33	-3.33	-3.33	5.67	1.67
217	13.748	12.0	3.0	-3.0	-2.0	-3.0	-5.0	-1.0	-1.0	-3.0	1.0	4.0	0.0	2.0	-5.0	0.0	2.0	0.0	3.0	-6.0	-2.0	0.0	-3.0	-4.0	3.0	-1.0	10.0	0.0
224	14.1944	10.33	0.67	1.67	0.67	-2.33	-7.33	-4.33	0.67	-4.33	3.67	0.67	1.67	-4.33	-1.33	-0.33	6.67	0.67	2.67	-0.33	2.67	0.67	0.67	0.67	0.67	4.67	1.67	-5.33
231	14.6407	10.0	-1.0	1.0	-4.0	5.0	-4.0	1.0	-3.0	5.0	-4.0	-3.0	6.0	4.0	11.0	-3.0	-2.0	-2.0	16.0	-2.0	7.0	6.0	1.0	-3.0	-1.0	-1.0	2.0	3.0
238	15.0869	10.33	-5.33	0.67	2.67	-2.33	-3.33	3.67	-2.33	3.67	2.67	-0.33	1.67	7.67	-1.33	6.67	-0.33	1.67	-8.33	-3.33	2.67	-0.33	6.67	2.67	-0.33	3.67	2.67	0.67
245	15.5331	9.0	2.0	-2.0	11.0	4.0	-1.0	12.0	3.0	0.0	-5.0	2.0	1.0	0.0	1.0	1.0	3.0	6.0	6.0	2.0	5.0	2.0	-3.0	5.0	6.0	0.0	7.0	2.0
252	15.9791	10.0	3.0	-1.0	7.0	3.0	0.0	10.0	-3.0	-3.0	-1.0	-1.0	1.0	5.0	-1.0	1.0	0.0	4.0	1.0	8.0	6.0	7.0	0.0	3.0	6.0	-2.0	2.0	0.0
259	16.4251	12.0	-4.0	2.0	1.0	-2.0	0.0	-2.0	-7.0	1.0	-3.0	0.0	-7.0	0.0	4.0	-4.0	3.0	5.0	1.0	-3.0	0.0	5.0	-6.0	0.0	11.0	3.0	9.0	-1.0
266	16.871	11.67	0.33	-0.67	-1.67	3.33	-0.67	4.33	4.33	-4.67	-3.67	-2.67	-4.67	-4.67	1.33	2.33	1.33	4.33	-1.67	-3.67	1.33	-0.67	3.33	7.33	-2.67	3.33	-2.67	3.33
273	17.3168	10.67	1.33	-0.67	-1.67	5.33	3.33	1.33	-2.67	-0.67	1.33	2.33	1.33	-3.67	0.33	-2.67	-4.67	-1.67	-1.67	4.33	5.33	-6.67	-3.67	-3.67	6.33	4.33	10.33	1.33
280	17.7626	8.33	1.67	1.67	-0.33	3.67	2.67	0.67	-1.33	2.67	2.67	5.67	0.67	3.67	1.67	-0.33	5.67	3.67	6.67	4.67	11.67	4.67	1.67	1.67	1.67	2.67	2.67	6.67
287	18.2082	7.67	3.33	4.33	5.33	4.33	3.33	1.33	6.33	3.33	2.33	2.33	10.33	2.33	0.33	4.33	4.33	6.33	-1.67	6.33	5.33	3.33	11.33	3.33	-0.67	-0.67	9.33	11.33
294	18.6538	7.67	3.33	0.33	0.33	3.33	1.33	7.33	6.33	3.33	2.33	2.33	-0.67	2.33	3.33	3.33	4.33	5.33	8.33	4.33	5.33	6.33	4.33	5.33	1.33	5.33	0.33	3.33
301	19.0994	7.0	4.0	0.0	6.0	3.0	2.0	3.0	7.0	2.0	-2.0	5.0	3.0	9.0	14.0	2.0	3.0	4.0	3.0	4.0	9.0	11.0	2.0	8.0	11.0	3.0	1.0	2.0
308	19.5448	12.0	-6.0	3.0	-2.0	-3.0	-5.0	0.0	0.0	-3.0	-5.0	4.0	4.0	-4.0	-1.0	3.0	1.0	-4.0	2.0	12.0	1.0	1.0	4.0	-4.0	1.0	-1.0	-2.0	-6.0
315	19.9902	9.0	-3.0	3.0	1.0	2.0	1.0	-2.0	3.0	-2.0	3.0	4.0	5.0	8.0	-1.0	5.0	3.0	0.0	0.0	5.0	-1.0	7.0	-1.0	-2.0	2.0	6.0	6.0	0.0
322	20.4355	10.67	-6.67	-0.67	-3.67	-1.67	-4.67	2.33	2.33	-2.67	-7.67	-1.67	-5.67	4.33	0.33	0.33	3.33	2.33	3.33	0.33	3.33	2.33	0.33	5.33	1.33	3.33	4.33	-3.67
329	20.8808	8.0	4.0	8.0	7.0	4.0	4.0	7.0	2.0	6.0	8.0	3.0	0.0	3.0	2.0	2.0	7.0	5.0	3.0	1.0	2.0	1.0	3.0	5.0	2.0	4.0	2.0	2.0
336	21.326	10.33	-0.33	-1.33	-0.33	0.67	0.67	-4.33	-3.33	-0.33	4.67	-3.33	3.67	5.67	2.67	1.67	-2.33	-0.33	0.67	-0.33	4.67	-0.33	0.67	-2.33	4.67	-1.33	-6.33	1.67
343	21.7711	8.67	1.33	2.33	4.33	1.33	-0.67	2.33	-0.67	0.33	-0.67	0.33	-0.67	-1.67	1.33	2.33	3.33	6.33	3.33	4.33	0.33	2.33	0.33	4.33	6.33	-0.67	6.33	3.33
350	22.2162	11.0	1.0	5.0	-3.0	-7.0	0.0	6.0	0.0	-3.0	-1.0	1.0	3.0	2.0	-3.0	4.0	3.0	-1.0	-1.0	-1.0	9.0	-2.0	-4.0	3.0	3.0	2.0	1.0	2.0
357	22.6612	6.0	2.0	6.0	1.0	4.0	5.0	3.0	8.0	6.0	7.0	2.0	3.0	7.0	1.0	1.0	5.0	5.0	2.0	3.0	3.0	1.0	9.0	11.0	-1.0	3.0	5.0	3.0
364	23.1062	12.33	-10.33	-6.33	-4.33	-0.33	1.67	-4.33	-3.33	-3.33	-2.33	-6.33	-2.33	-3.33	-2.33	-4.33	2.67	-6.33	-0.33	-4.33	-6.33	-4.33	-3.33	-1.33	-5.33	-8.33	-2.33	-0.33
371	23.5511	8.33	-0.33	-1.33	2.67	5.67	5.67	-1.33	3.67	3.67	3.67	0.67	-0.33	0.67	5.67	-1.33	5.67	-1.33	1.67	4.67	1.67	-0.33	-2.33	-4.33	5.67	3.67	0.67	2.67
378	23.996	11.67	-6.67	-4.67	-3.67	-9.67	-1.67	0.33	-4.67	-1.67	-2.67	-1.67	2.33	0.33	2.33	-3.67	-4.67	3.33	1.33	-3.67	2.33	-3.67	-2.67	-2.67	-1.67	-2.67	0.33	-0.67
385	24.4408	12.0	-4.0	0.0	-6.0	1.0	-10.0	7.0	-5.0	-4.0	-6.0	-6.0	-3.0	-3.0	-2.0	4.0	-6.0	-4.0	-1.0	1.0	1.0	-5.0	-4.0	-1.0	-4.0	3.0	0.0	-4.0
392	24.8855	11.0	-3.0	-1.0	-1.0	2.0	0.0	-4.0	-2.0	-3.0	-4.0	1.0	-5.0	2.0	3.0	1.0	4.0	0.0	-5.0	0.0	0.0	-3.0	-3.0	3.0	5.0	0.0	0.0	7.0
399	25.3303	6.33	4.67	0.67	1.67	0.67	-1.33	3.67	0.67	1.67	3.67	-1.33	4.67	4.67	6.67	0.67	-0.33	-0.33	6.67	0.67	-0.33	8.67	4.67	0.67	-2.33	2.67	2.67	1.67
406	25.7749	9.33	-1.33	-3.33	1.67	2.67	-7.33	-3.33	-0.33	-1.33	0.67	-0.33	-0.33	4.67	-0.33	-1.33	0.67	-1.33	2.67	-2.33	-2.33	-3.33	2.67	-2.33	0.67	-1.33	-0.33	-1.33
413	26.2196	9.67	-6.67	1.33	-2.67	-4.67	-4.67	-1.67	-1.67	-0.67	0.33	-1.67	-0.67	1.33	2.33	4.33	-4.67	6.33	1.33	7.33	-1.67	3.33	3.33	1.33	-0.67	-4.67	-5.67	-2.67
420	26.6642	8.33	-2.33	-4.33	-1.33	-4.33	-3.33	-0.33	1.67	0.67	-1.33	-1.33	4.67	-1.33	1.67	0.67	-0.33	5.67	8.67	0.67	2.67	3.67	0.67	2.67	2.67	5.67	0.67	-4.33
427	27.1087	6.0	3.0	3.0	4.0	3.0	1.0	3.0	0.0	3.0	3.0	3.0	3.0	2.0	7.0	3.0	0.0	2.0	4.0	1.0	11.0	6.0	6.0	-2.0	1.0	2.0	4.0	4.0
434	27.5532	6.67	0.33	10.33	-2.67	-0.67	3.33	6.33	-0.67	0.33	3.33	-2.67	3.33	2.33	-1.67	4.33	2.33	3.33	2.33	5.33	6.33	-2.67	6.33	0.33	5.33	0.33	5.33	3.33
441	27.9977	5.67	-1.67	4.33	0.33	3.33	-3.67	5.33	2.33	2.33	0.33	5.33	-1.67	7.33	1.33	2.33	3.33	-0.67	-2.67	-2.67	6.33	0.33	5.33	4.33	3.33	9.33	3.33	5.33
448	28.4422	9.67	0.33	-2.67	-3.67	-3.67	-4.67	-0.67	-2.67	2.33	-0.67	-5.67	-0.67	-3.67	-1.67	0.33	-2.67	-2.67	-4.67	-5.67	-2.67	-0.67	0.33	2.33	-3.67	-4.67	-3.67	4.33
455	28.8866	5.0	5.0	4.0	2.0	-2.0	1.0	-1.0	2.0	1.0	7.0	1.0	4.0	0.0	4.0	1.0	-3.0	0.0	0.0	4.0	4.0	7.0	6.0	4.0	-1.0	2.0	0.0	6.0
462	29.3309	5.67	0.33	1.33	4.33	2.33	1.33	-0.67	1.33	3.33	2.33	3.33	2.33	3.33	8.33	6.33	4.33	4.33	7.33	0.33	4.33	7.33	4.33	1.33	5.33	0.33	-1.67	6.33
469	29.7753	3.33	6.67	3.67	2.67	1.67	0.67	5.67	0.67	3.67	4.67	-1.33	9.67	-1.33	4.67	6.67	3.67	4.67	3.67	5.67	5.67	4.67	2.67	8.67	5.67	-0.33	3.67	4.67
476	30.2196	8.0	-3.0	-5.0	-2.0	3.0	-1.0	1.0	0.0	-2.0	2.0	-2.0	8.0	-2.0	-3.0	1.0	-4.0	-5.0	2.0	-2.0	0.0	1.0	-2.0	1.0	3.0	-3.0	2.0	1.0
483	30.6639	5.67	0.33	2.33	0.33	0.33	0.33	-0.67	-1.67	-0.67	0.33	-1.67	-2.67	6.33	1.33	-1.67	1.33	3.33	3.33	5.33	-0.67	-1.67	-2.67	1.33	2.33	3.33	6.33	3.33
490	31.1082	6.67	4.33	3.33	1.33	0.33	-2.67	-1.67	6.33	2.33	1.33	1.33	0.33	2.33	-4.67	1.33	-1.67	-3.67	0.33	4.33	-2.67	2.33	-1.67	5.33	2.33	2.33	5.33	8.33
497	31.5525	4.33	6.67	3.67	1.67	2.67	5.67	4.67	0.67	2.67	3.67	3.67	1.67	2.67	1.67	-1.33	-1.33	2.67	5.67	1.67	1.67	1.67	2.67	5.67	4.67	2.67	4.67	2.67
504	31.9967	5.67	5.33	4.33	-3.67	-1.67	-1.67	-1.67	-0.67	0.33	0.33	2.33	0.33	-0.67	0.33	-1.67	-2.67	2.33	-2.67	1.33	-0.67	-2.67	0.33	6.33	-3.67	-0.67	2.33	5.33
511	32.4409	4.33	7.67	0.67	4.67	9.67	-0.33	3.67	2.67	-0.33	2.67	-1.33	2.67	-0.33	1.67	-1.33	-1.33	3.67	8.67	-0.33	-0.33	2.67	1.67	1.67	1.67	0.67	2.67	0.67
518	32.8851	4.0	4.0	0.0	0.0	0.0	1.0	2.0	3.0	3.0	2.0	3.0	0.0	2.0	4.0	1.0	3.0	5.0	0.0	1.0	4.0	1.0	1.0	0.0	-1.0	6.0	-1.0	4.0
525	33.3293	6.67	-4.67	-1.67	5.33	-2.67	-4.67	3.33	-0.67	1.33	0.33	0.33	-0.67	0.33	-0.67	-2.67	-3.67	0.33	4.33	0.33	-0.67	3.33	-1.67	-1.67	-3.67	-0.67	-0.67	3.33
532	33.7735	4.0	1.0	1.0	2.0	1.0	-1.0	-3.0	-1.0	3.0	-1.0	4.0	-2.0	4.0	2.0	0.0	1.0	1.0	-1.0	3.0	6.0	1.0	4.0	0.0	2.0	2.0	4.0	-2.0
539	34.2177	4.33	-2.33	3.67	1.67	5.67	1.67	0.67	2.67	3.67	0.67	3.67	0.67	0.67	2.67	5.67	2.67	3.67	3.67	1.67	2.67	0.67	-1.33	2.67	2.67	3.67	7.67	8.67
546	34.6618	6.33	1.67	1.67	2.67	-0.33	-0.33	3.67	-0.33	-1.33	2.67	-1.33	-0.33	-2.33	-1.33	-1.33	1.67	2.67	-0.33	-1.33	-0.33	0.67	0.67	-2.33	-6.33	3.67	1.67	-0.33
553	35.106	5.67	2.33	-3.67	-4.67	-1.67	-1.67	-3.67	0.33	-0.67	-0.67	-1.67	0.33	0.33	-2.67	-2.67	2.33	0.33	0.33	2.33	0.33	1.33	0.33	-0.67	-0.67	9.33	-0.67	0.33
560	35.5501	4.33	3.67	-0.33	2.67	-0.33	2.67	-0.33	2.67	3.67	-0.33	2.67	-0.33	0.67	-0.33	3.67	5.67	2.67	-1.33	7.67	1.67	-1.33	2.67	-0.33	0.67	1.67	6.67	0.67
567	35.9943	3.33	-1.33	-1.33	-1.33	-2.33	-0.33	4.67	3.67	3.67	2.67	6.67	2.67	2.67	2.67	2.67	2.67	4.67	6.67	-1.33	3.67	4.67	0.67	2.67	2.67	9.67	3.67	3.67
574	36.4384	4.67	-0.67	-1.67	4.33	1.33	-1.67	2.33	-2.67	2.33	0.33	0.33	2.33	-0.67	6.33	-1.67	-2.67	-2.67	1.33	3.33	-0.67	0.33	3.33	0.33	6.33	-2.67	1.33	2.33
581	36.8825	3.67	3.33	2.33	3.33	-0.67	5.33	2.33	0.33	-2.67	5.33	1.33	-0.67	0.33	2.33	3.33	2.33	4.33	2.33	2.33	-0.67	-0.67	1.33	1.33	1.33	4.33	2.33	4.33
588	37.3267	3.67	1.33	4.33	0.33	4.33	4.33	2.33	1.33	3.33	-1.67	0.33	1.33	2.33	2.33	3.33	-1.67	-0.67	6.33	-1.67	0.33	1.33	1.33	3.33	2.33	1.33	0.33	-1.67
595	37.7708	7.0	-3.0	-2.0	-5.0	-1.0	-2.0	1.0	2.0	4.0	-1.0	-1.0	-2.0	-1.0	-2.0	-3.0	-2.0	-5.0	-2.0	2.0	-3.0	11.0	-2.0	-2.0	-2.0	0.0	1.0	-1.0
602	38.215	5.0	0.0	0.0	4.0	2.0	4.0	5.0	1.0	-2.0	-1.0	-3.0	-2.0	0.0	1.0	-2.0	0.0	0.0	-3.0	0.0	0.0	2.0	-3.0	0.0	-4.0	3.0	0.0	-1.0
609	38.6591	6.67	-0.67	1.33	-4.67	-1.67	0.33	1.33	2.33	-2.67	1.33	-0.67	0.33	-1.67	-1.67	-1.67	1.33	-3.67	-4.67	0.33	-2.67	0.33	2.33	-2.67	4.33	1.33	-1.67	0.33
616	39.1033	3.0	0.0	5.0	1.0	-1.0	0.0	2.0	1.0	4.0	3.0	1.0	4.0	1.0	5.0	1.0	8.0	2.0	2.0	4.0	4.0	3.0	7.0	4.0	5.0	3.0	2.0	3.0
623	39.5474	5.0	-2.0	2.0	0.0	4.0	3.0	-2.0	-2.0	-1.0	7.0	2.0	4.0	-2.0	2.0	2.0	0.0	2.0	0.0	1.0	2.0	4.0	1.0	3.0	-1.0	5.0	0.0	2.0
630	39.9916	5.33	1.67	-0.33	0.67	-2.33	-1.33	0.67	8.67	2.67	0.67	-2.33	1.67	0.67	3.67	-1.33	1.67	-2.33	-0.33	1.67	0.67	2.67	3.67	-1.33	-1.33	-2.33	0.67	-0.33
637	40.4358	7.0	-2.0	-3.0	-5.0	-1.0	-2.0	-2.0	0.0	-6.0	-4.0	-1.0	5.0	-1.0	-4.0	-3.0	-1.0	-2.0	-2.0	-1.0	1.0	-2.0	-3.0	1.0	-3.0	0.0	-2.0	2.0
644	40.88	4.33	-0.33	-0.33	0.67	1.67	5.67	3.67	2.67	-1.33	-0.33	1.67	1.67	9.67	5.67	-0.33	2.67	1.67	-1.33	0.67	3.67	5.67	6.67	0.67	0.67	1.67	0.67	1.67
651	41.3243	6.67	-3.67	-2.67	-2.67	-0.67	-1.67	-1.67	-0.67	-3.67	-2.67	2.33	5.33	-3.67	-1.67	4.33	-2.67	3.33	-2.67	2.33	1.33	-1.67	0.33	-1.67	-1.67	0.33	-0.67	-1.67
658	41.7685	4.0	2.0	4.0	2.0	1.0	3.0	0.0	1.0	4.0	1.0	5.0	2.0	1.0	0.0	3.0	-1.0	-1.0	-1.0	6.0	1.0	6.0	2.0	2.0	1.0	3.0	3.0	7.0
665	42.2128	6.33	-0.33	-1.33	3.67	-5.33	-6.33	-3.33	-2.33	-3.33	0.67	-3.33	-4.33	0.67	-4.33	-0.33	0.67	-2.33	-2.33	-1.33	-0.33	2.67	5.67	-1.33	4.67	-1.33	0.67	-0.33
672	42.6571	6.67	-3.67	-0.67	-1.67	-3.67	-1.67	1.33	-1.67	3.33	0.33	5.33	2.33	-2.67	4.33	2.33	-2.67	2.33	-1.67	-1.67	-2.67	6.33	1.33	-1.67	3.33	0.33	-2.67	2.33
679	43.1014	6.67	0.33	0.33	-3.67	3.33	1.33	-3.67	-2.67	-1.67	0.33	-1.67	2.33	0.33	1.33	0.33	0.33	0.33	-0.67	-1.67	3.33	-1.67	-0.67	-0.67	-0.67	-2.67	7.33	-2.67
686	43.5458	6.67	0.33	-0.67	3.33	-3.67	0.33	-4.67	1.33	-2.67	1.33	3.33	-0.67	0.33	1.33	-1.67	-2.67	-3.67	0.33	-0.67	-0.67	-1.67	-3.67	-0.67	-1.67	2.33	-0.67	-2.67
693	43.9901	5.33	5.67	0.67	0.67	1.67	1.67	-1.33	-0.33	0.67	0.67	-1.33	-2.33	-1.33	-0.33	1.67	1.67	0.67	2.67	-0.33	1.67	0.67	1.67	3.67	0.67	0.67	-1.33	0.67
700	44.4345	7.67	-4.67	-2.67	1.33	0.33	-1.67	-2.67	3.33	-5.67	-2.67	7.33	1.33	-3.67	0.33	-3.67	-3.67	4.33	-3.67	0.33	2.33	6.33	-3.67	-2.67	-0.67	-6.67	-3.67	-3.67
707	44.879	7.0	-3.0	4.0	-1.0	-2.0	2.0	-2.0	2.0	-4.0	-3.0	0.0	8.0	1.0	-3.0	-4.0	0.0	4.0	1.0	1.0	-1.0	-3.0	-2.0	-1.0	-1.0	-1.0	0.0	1.0
714	45.3235	5.33	2.67	2.67	2.67	-0.33	12.67	2.67	0.67	0.67	-1.33	3.67	1.67	1.67	-2.33	2.67	3.67	4.67	1.67	0.67	0.67	1.67	-1.33	-0.33	1.67	1.67	7.67	8.67
721	45.768	6.33	-1.33	1.67	1.67	5.67	3.67	-0.33	-0.33	0.67	0.67	-2.33	3.67	-2.33	-0.33	-3.33	-3.33	0.67	-2.33	1.67	1.67	-3.33	0.67	-1.33	6.67	-3.33	-2.33	-0.33
728	46.2125	7.67	1.33	-2.67	-0.67	4.33	4.33	-4.67	-0.67	-1.67	0.33	-1.67	2.33	0.33	1.33	-0.67	1.33	0.33	0.33	-1.67	0.33	-1.67	-0.67	-2.67	-2.67	1.33	3.33	1.33
735	46.6571	6.0	2.0	2.0	7.0	-3.0	3.0	-1.0	-1.0	4.0	0.0	2.0	2.0	-1.0	2.0	3.0	-1.0	0.0	6.0	-1.0	-1.0	5.0	-2.0	8.0	5.0	1.0	3.0	0.0
742	47.1017	7.67	-2.67	-3.67	2.33	-2.67	1.33	6.33	-0.67	-3.67	0.33	3.33	-1.67	-1.67	-1.67	-0.67	-2.67	2.33	4.33	1.33	-0.67	-2.67	1.33	-2.67	0.33	3.33	-2.67	-4.67
749	47.5464	9.67	-5.67	6.33	2.33	-3.67	0.33	-1.67	-2.67	-1.67	4.33	3.33	1.33	-1.67	-5.67	0.33	-3.67	-2.67	1.33	2.33	-2.67	5.33	-5.67	0.33	-2.67	3.33	-4.67	-6.67
756	47.9911	7.0	-2.0	1.0	-3.0	0.0	1.0	-1.0	-1.0	3.0	7.0	-1.0	1.0	-3.0	0.0	2.0	0.0	-3.0	-1.0	3.0	7.0	0.0	0.0	3.0	3.0	3.0	4.0	4.0
763	48.4358	5.33	0.67	6.67	5.67	0.67	2.67	2.67	0.67	6.67	3.67	-0.33	3.67	4.67	3.67	2.67	2.67	1.67	2.67	-2.33	0.67	2.67	-1.33	4.67	1.67	2.67	6.67	4.67
770	48.8806	6.67	4.33	2.33	-0.67	2.33	4.33	3.33	-0.67	-1.67	9.33	4.33	-1.67	4.33	2.33	-2.67	2.33	-0.67	4.33	-1.67	1.33	3.33	7.33	4.33	1.33	1.33	3.33	2.33
777	49.3255	11.0	-2.0	-5.0	-5.0	0.0	-4.0	-3.0	-1.0	-2.0	-5.0	-2.0	-3.0	-6.0	-1.0	-5.0	-3.0	-6.0	-6.0	-6.0	-2.0	-1.0	5.0	-5.0	-1.0	1.0	1.0	-2.0
784	49.7704	6.33	2.67	9.67	3.67	3.67	-1.33	3.67	-0.33	0.67	-1.33	7.67	-3.33	4.67	2.67	0.67	-0.33	5.67	3.67	8.67	0.67	3.67	6.67	-1.33	-2.33	3.67	6.67	7.67
791	50.2153	8.0	-2.0	-1.0	-5.0	6.0	1.0	0.0	3.0	5.0	6.0	-3.0	1.0	5.0	8.0	-1.0	4.0	0.0	3.0	3.0	1.0	0.0	2.0	5.0	5.0	5.0	11.0	2.0
798	50.6603	7.67	9.33	2.33	1.33	-0.67	0.33	4.33	1.33	2.33	6.33	0.33	3.33	11.33	9.33	7.33	1.33	7.33	13.33	8.33	13.33	5.33	7.33	11.33	4.33	5.33	5.33	9.33
805	51.1054	8.67	-1.67	-0.67	2.33	0.33	-3.67	1.33	5.33	0.33	-2.67	5.33	3.33	10.33	12.33	14.33	31.33	22.33	24.33	29.33	10.33	27.33	16.33	25.33	27.33	9.33	17.33	20.33
812	51.5505	10.33	11.67	-3.33	-4.33	-2.33	-0.33	6.67	-0.33	-0.33	-2.33	3.67	0.67	12.67	26.67	20.67	27.67	16.67	34.67	34.67	41.67	27.67	29.67	18.67	21.67	36.67	28.67	20.67
819	51.9957	8.33	6.67	3.67	2.67	6.67	-0.33	2.67	1.67	-3.33	3.67	-1.33	-1.33	11.67	19.67	25.67	26.67	13.67	31.67	28.67	22.67	24.67	21.67	18.67	21.67	18.67	25.67	16.67
826	52.4409	8.0	-3.0	0.0	7.0	3.0	2.0	4.0	1.0	-2.0	-3.0	1.0	1.0	9.0	4.0	7.0	11.0	7.0	9.0	9.0	14.0	10.0	9.0	15.0	5.0	11.0	8.0	7.0
833	52.8862	9.67	-2.67	3.33	1.33	-0.67	-1.67	-0.67	-0.67	-1.67	-0.67	2.33	-5.67	1.33	1.33	7.33	1.33	6.33	-4.67	8.33	2.33	0.33	0.33	3.33	4.33	9.33	6.33	-2.67
840	53.3316	8.67	7.33	4.33	2.33	-0.67	2.33	0.33	5.33	-0.67	0.33	-2.67	3.33	1.33	3.33	6.33	7.33	7.33	7.33	3.33	-3.67	-2.67	3.33	7.33	0.33	-0.67	10.33	5.33
847	53.7771	7.0	2.0	1.0	4.0	2.0	2.0	0.0	9.0	3.0	4.0	1.0	4.0	10.0	11.0	8.0	4.0	4.0	3.0	6.0	1.0	4.0	2.0	-4.0	5.0	7.0	2.0	5.0
854	54.2226	8.67	-0.67	5.33	1.33	10.33	3.33	0.33	-1.67	2.33	1.33	1.33	2.33	2.33	6.33	3.33	2.33	-2.67	1.33	0.33	3.33	-0.67	1.33	5.33	6.33	6.33	1.33	12.33
861	54.6681	9.0	1.0	-1.0	3.0	1.0	2.0	2.0	8.0	8.0	11.0	5.0	0.0	9.0	9.0	2.0	3.0	3.0	0.0	2.0	2.0	1.0	5.0	1.0	-2.0	4.0	3.0	-3.0
868	55.1138	9.67	-1.67	4.33	2.33	5.33	6.33	2.33	2.33	3.33	0.33	-0.67	5.33	1.33	2.33	-1.67	1.33	10.33	5.33	2.33	-1.67	8.33	3.33	5.33	3.33	-1.67	5.33	1.33
875	55.5595	10.67	2.33	2.33	0.33	1.33	-0.67	-0.67	3.33	1.33	5.33	2.33	5.33	-0.67	-3.67	-0.67	-0.67	-3.67	-2.67	-0.67	0.33	1.33	0.33	0.33	2.33	1.33	5.33	4.33
882	56.0053	8.67	-2.67	4.33	10.33	-1.67	5.33	4.33	1.33	2.33	3.33	0.33	2.33	2.33	3.33	7.33	8.33	3.33	3.33	-2.67	12.33	-4.67	5.33	2.33	-1.67	2.33	1.33	10.33
889	56.4512	12.67	-7.67	0.33	1.33	5.33	-0.67	-2.67	2.33	-6.67	-6.67	-0.67	-0.67	5.33	0.33	-2.67	3.33	1.33	-1.67	-2.67	-6.67	-0.67	-1.67	3.33	-5.67	-3.67	1.33	-4.67
896	56.8972	5.67	6.33	4.33	5.33	9.33	10.33	4.33	2.33	7.33	4.33	7.33	5.33	5.33	3.33	5.33	10.33	6.33	11.33	7.33	10.33	8.33	8.33	2.33	3.33	1.33	-0.67	9.33
903	57.3432	11.67	1.33	7.33	2.33	2.33	3.33	-1.67	-2.67	-0.67	-0.67	-1.67	2.33	0.33	2.33	7.33	-2.67	-0.67	6.33	2.33	0.33	7.33	4.33	0.33	2.33	-3.67	-3.67	4.33
910	57.7893	12.0	-1.0	8.0	5.0	-3.0	4.0	5.0	6.0	8.0	-1.0	1.0	3.0	2.0	3.0	12.0	4.0	-3.0	4.0	0.0	8.0	3.0	0.0	7.0	6.0	3.0	2.0	5.0
917	58.2355	7.0	0.0	12.0	7.0	11.0	8.0	7.0	9.0	11.0	16.0	9.0	7.0	14.0	8.0	7.0	6.0	13.0	13.0	6.0	10.0	6.0	7.0	11.0	6.0	4.0	10.0	11.0
924	58.6818	12.33	-3.33	10.67	-0.33	7.67	-1.33	-0.33	-3.33	4.67	-1.33	14.67	3.67	1.67	-0.33	-0.33	4.67	-0.33	0.67	7.67	3.67	5.67	0.67	-4.33	4.67	3.67	-1.33	1.67
931	59.1282	12.33	5.67	5.67	12.67	3.67	17.67	5.67	5.67	4.67	15.67	0.67	12.67	4.67	2.67	11.67	5.67	4.67	5.67	8.67	15.67	4.67	-0.33	3.67	10.67	-2.33	8.67	3.67
938	59.5747	12.0	1.0	10.0	8.0	5.0	9.0	4.0	7.0	3.0	8.0	-2.0	2.0	5.0	4.0	8.0	5.0	0.0	2.0	9.0	6.0	9.0	14.0	6.0	3.0	1.0	4.0	7.0
945	60.0212	10.0	-1.0	0.0	0.0	4.0	9.0	4.0	16.0	4.0	4.0	7.0	6.0	0.0	1.0	4.0	6.0	6.0	1.0	8.0	-3.0	11.0	0.0	5.0	2.0	3.0	-2.0	10.0
952	60.4679	10.33	2.67	-0.33	9.67	2.67	2.67	8.67	6.67	-2.33	2.67	12.67	13.67	0.67	8.67	0.67	-1.33	3.67	3.67	3.67	3.67	4.67	3.67	3.67	-0.33	-3.33	7.67	-3.33
959	60.9146	9.33	-2.33	0.67	-0.33	-0.33	-0.33	4.67	4.67	4.67	7.67	4.67	2.67	8.67	1.67	-2.33	9.67	9.67	0.67	-0.33	4.67	-0.33	-1.33	5.67	3.67	-0.33	-0.33	4.67
966	61.3615	10.0	3.0	12.0	0.0	4.0	7.0	5.0	4.0	7.0	4.0	3.0	4.0	1.0	2.0	0.0	5.0	5.0	3.0	-3.0	8.0	5.0	3.0	1.0	6.0	2.0	2.0	1.0
973	61.8084	7.0	3.0	17.0	16.0	10.0	8.0	7.0	10.0	14.0	3.0	3.0	8.0	6.0	3.0	11.0	7.0	3.0	4.0	6.0	2.0	3.0	11.0	1.0	-2.0	15.0	6.0	12.0
980	62.2555	11.33	-0.33	3.67	11.67	11.67	4.67	-1.33	-2.33	4.67	1.67	2.67	0.67	8.67	-1.33	4.67	4.67	5.67	5.67	-3.33	-4.33	4.67	-5.33	4.67	-1.33	2.67	1.67	9.67
987	62.7026	9.0	-1.0	7.0	9.0	14.0	7.0	2.0	11.0	9.0	10.0	13.0	2.0	5.0	2.0	-1.0	5.0	4.0	8.0	15.0	13.0	-1.0	10.0	0.0	7.0	5.0	1.0	4.0
994	63.1499	8.33	1.67	7.67	8.67	9.67	2.67	4.67	7.67	2.67	17.67	3.67	2.67	3.67	0.67	5.67	9.67	3.67	4.67	7.67	7.67	2.67	11.67	11.67	10.67	5.67	5.67	4.67
1001	63.5972	7.67	3.33	3.33	7.33	5.33	7.33	15.33	4.33	9.33	5.33	13.33	6.33	7.33	6.33	7.33	9.33	4.33	7.33	7.33	2.33	9.33	7.33	7.33	3.33	6.33	5.33	-1.67
1008	64.0447	10.67	5.33	3.33	10.33	11.33	11.33	1.33	8.33	1.33	5.33	2.33	9.33	0.33	-0.67	11.33	6.33	0.33	5.33	8.33	5.33	-2.67	5.33	-0.67	10.33	-2.67	6.33	8.33
1015	64.4923	8.67	6.33	11.33	22.33	7.33	11.33	10.33	4.33	12.33	14.33	5.33	9.33	4.33	15.33	5.33	8.33	10.33	2.33	11.33	11.33	11.33	-1.67	13.33	1.33	7.33	3.33	3.33
1022	64.94	10.0	6.0	20.0	18.0	18.0	18.0	23.0	17.0	19.0	13.0	11.0	22.0	12.0	12.0	12.0	12.0	1.0	2.0	10.0	10.0	8.0	2.0	15.0	13.0	7.0	6.0	17.0
1029	65.3878	9.0	14.0	37.0	32.0	43.0	27.0	37.0	33.0	36.0	42.0	22.0	35.0	18.0	24.0	18.0	20.0	17.0	13.0	15.0	20.0	12.0	25.0	17.0	18.0	18.0	21.0	13.0
1036	65.8357	6.33	14.67	42.67	43.67	44.67	38.67	48.67	44.67	37.67	39.67	32.67	31.67	27.67	35.67	28.67	26.67	22.67	27.67	21.67	21.67	18.67	19.67	27.67	27.67	26.67	24.67	29.67
1043	66.2837	11.0	12.0	26.0	29.0	37.0	28.0	28.0	41.0	25.0	27.0	31.0	19.0	25.0	15.0	24.0	16.0	8.0	9.0	21.0	9.0	13.0	7.0	10.0	19.0	13.0	14.0	13.0
1050	66.7319	8.0	8.0	16.0	22.0	18.0	22.0	17.0	11.0	25.0	13.0	21.0	16.0	9.0	12.0	14.0	11.0	11.0	16.0	8.0	9.0	5.0	2.0	9.0	8.0	23.0	13.0	15.0
1057	67.1801	15.33	1.67	-3.33	8.67	7.67	4.67	0.67	-1.33	5.67	0.67	5.67	3.67	2.67	6.67	4.67	9.67	12.67	-0.33	-2.33	3.67	2.67	1.67	2.67	-3.33	0.67	10.67	0.67
1064	67.6285	12.33	-3.33	12.67	9.67	15.67	6.67	8.67	3.67	7.67	-1.33	9.67	4.67	2.67	9.67	5.67	8.67	-2.33	6.67	-2.33	12.67	11.67	5.67	5.67	1.67	2.67	0.67	6.67
1071	68.077	12.67	-2.67	5.33	0.33	8.33	8.33	5.33	2.33	7.33	6.33	6.33	3.33	0.33	-2.67	-2.67	2.33	-2.67	-1.67	5.33	3.33	2.33	4.33	2.33	-2.67	1.33	3.33	1.33
1078	68.5257	8.0	7.0	13.0	11.0	2.0	7.0	6.0	8.0	11.0	10.0	17.0	10.0	10.0	10.0	6.0	13.0	11.0	14.0	7.0	13.0	7.0	6.0	4.0	9.0	3.0	8.0	8.0
1085	68.9744	13.67	2.33	2.33	4.33	3.33	7.33	0.33	-3.67	8.33	8.33	-1.67	3.33	10.33	10.33	4.33	-3.67	0.33	-0.67	5.33	1.33	7.33	3.33	7.33	0.33	-1.67	12.33	9.33
1092	69.4233	7.67	-1.67	8.33	9.33	13.33	6.33	9.33	14.33	14.33	9.33	10.33	9.33	10.33	18.33	12.33	11.33	8.33	13.33	8.33	7.33	11.33	12.33	12.33	14.33	11.33	7.33	4.33
1099	69.8724	9.67	2.33	6.33	6.33	3.33	7.33	-0.67	7.33	2.33	4.33	14.33	2.33	8.33	4.33	11.33	8.33	10.33	4.33	0.33	2.33	7.33	3.33	12.33	1.33	5.33	9.33	6.33
1106	70.3215	11.0	4.0	6.0	4.0	4.0	6.0	10.0	6.0	0.0	-1.0	2.0	5.0	7.0	1.0	5.0	9.0	3.0	4.0	3.0	0.0	4.0	4.0	10.0	-2.0	9.0	8.0	5.0
1113	70.7708	12.33	1.67	-0.33	4.67	5.67	0.67	0.67	3.67	3.67	4.67	3.67	3.67	3.67	1.67	13.67	1.67	1.67	11.67	13.67	-2.33	0.67	5.67	4.67	1.67	-4.33	3.67	7.67
1120	71.2202	11.33	-1.33	8.67	5.67	11.67	5.67	3.67	0.67	0.67	9.67	9.67	4.67	4.67	13.67	15.67	15.67	6.67	-0.33	8.67	0.67	0.67	6.67	5.67	5.67	4.67	6.67	4.67
1127	71.6698	10.33	1.67	4.67	2.67	8.67	12.67	10.67	11.67	6.67	7.67	11.67	6.67	11.67	8.67	4.67	8.67	4.67	16.67	5.67	7.67	3.67	4.67	6.67	1.67	4.67	1.67	1.67
1134	72.1195	13.0	-2.0	11.0	6.0	-1.0	1.0	6.0	7.0	2.0	5.0	14.0	5.0	12.0	5.0	3.0	0.0	6.0	1.0	-2.0	-1.0	3.0	8.0	-3.0	16.0	7.0	5.0	-1.0
1141	72.5694	20.33	2.67	-1.33	-3.33	2.67	8.67	5.67	-0.33	2.67	-3.33	4.67	6.67	-3.33	0.67	12.67	-2.33	2.67	2.67	-1.33	4.67	13.67	1.67	-1.33	4.67	7.67	5.67	4.67
1148	73.0193	22.0	3.0	4.0	18.0	11.0	11.0	19.0	10.0	13.0	3.0	24.0	3.0	2.0	5.0	13.0	7.0	17.0	5.0	10.0	17.0	6.0	14.0	23.0	11.0	13.0	8.0	12.0
1155	73.4695	16.33	6.67	3.67	10.67	17.67	18.67	-0.33	8.67	3.67	8.67	11.67	16.67	7.67	10.67	-0.33	3.67	13.67	0.67	8.67	7.67	7.67	17.67	10.67	14.67	7.67	9.67	13.67
1162	73.9198	12.67	5.33	2.33	11.33	0.33	11.33	0.33	0.33	9.33	3.33	5.33	4.33	4.33	7.33	10.33	10.33	8.33	10.33	0.33	3.33	9.33	10.33	10.33	1.33	8.33	5.33	10.33
1169	74.3702	11.0	9.0	12.0	14.0	5.0	11.0	3.0	8.0	7.0	1.0	8.0	12.0	7.0	5.0	7.0	10.0	5.0	6.0	6.0	2.0	9.0	10.0	4.0	5.0	14.0	-1.0	13.0
1176	74.8208	23.67	-2.67	8.33	11.33	14.33	9.33	20.33	8.33	7.33	13.33	-4.67	4.33	-0.67	12.33	16.33	6.33	2.33	7.33	12.33	15.33	10.33	0.33	12.33	9.33	-2.67	16.33	1.33
1183	75.2715	37.67	-9.67	5.33	8.33	18.33	14.33	8.33	15.33	15.33	2.33	6.33	7.33	-5.67	4.33	8.33	20.33	17.33	0.33	9.33	19.33	11.33	20.33	19.33	-1.67	12.33	13.33	11.33
1190	75.7224	25.67	-0.67	4.33	-9.67	1.33	-6.67	7.33	3.33	2.33	5.33	-0.67	-1.67	3.33	1.33	-2.67	19.33	-2.67	7.33	-5.67	9.33	5.33	7.33	12.33	13.33	7.33	1.33	8.33
1197	76.1734	10.33	9.67	10.67	7.67	11.67	14.67	7.67	10.67	9.67	3.67	7.67	9.67	2.67	6.67	4.67	3.67	10.67	8.67	16.67	9.67	13.67	16.67	14.67	8.67	10.67	9.67	4.67
1204	76.6246	12.67	6.33	-0.67	4.33	6.33	4.33	2.33	8.33	0.33	0.33	2.33	5.33	4.33	3.33	16.33	3.33	7.33	1.33	2.33	6.33	6.33	-1.67	7.33	15.33	1.33	4.33	8.33
1211	77.076	10.67	0.33	13.33	8.33	8.33	15.33	11.33	4.33	5.33	6.33	10.33	5.33	3.33	8.33	8.33	8.33	11.33	0.33	4.33	4.33	8.33	12.33	7.33	15.33	3.33	8.33	8.33
1218	77.5275	10.67	-0.67	10.33	1.33	7.33	9.33	9.33	16.33	2.33	6.33	13.33	14.33	6.33	4.33	3.33	12.33	4.33	5.33	6.33	10.33	7.33	1.33	8.33	2.33	3.33	5.33	7.33
1225	77.9792	13.67	1.33	10.33	-0.67	9.33	6.33	1.33	5.33	9.33	4.33	0.33	24.33	-0.67	12.33	3.33	4.33	9.33	4.33	2.33	8.33	8.33	9.33	-0.67	10.33	6.33	10.33	8.33
1232	78.431	8.0	8.0	4.0	14.0	12.0	16.0	12.0	10.0	11.0	10.0	13.0	17.0	3.0	17.0	12.0	9.0	17.0	12.0	11.0	10.0	11.0	21.0	10.0	12.0	2.0	5.0	18.0
1239	78.883	13.67	-6.67	9.33	11.33	2.33	9.33	8.33	3.33	5.33	6.33	4.33	7.33	9.33	9.33	7.33	6.33	9.33	3.33	21.33	4.33	2.33	-0.67	7.33	12.33	7.33	1.33	7.33
1246	79.3352	14.33	-1.33	4.67	-2.33	0.67	-3.33	6.67	9.67	2.67	5.67	7.67	7.67	2.67	6.67	5.67	1.67	6.67	0.67	-1.33	3.67	2.67	8.67	4.67	2.67	-4.33	7.67	2.67
1253	79.7876	14.0	-2.0	10.0	10.0	5.0	4.0	8.0	9.0	12.0	-2.0	6.0	5.0	3.0	7.0	4.0	8.0	8.0	3.0	10.0	9.0	8.0	6.0	7.0	2.0	8.0	12.0	12.0
1260	80.2401	14.0	-4.0	5.0	1.0	13.0	8.0	9.0	12.0	15.0	10.0	7.0	1.0	5.0	3.0	12.0	10.0	8.0	5.0	1.0	1.0	8.0	6.0	3.0	5.0	6.0	5.0	2.0
1267	80.6928	15.0	0.0	10.0	9.0	4.0	10.0	0.0	8.0	8.0	13.0	11.0	10.0	2.0	10.0	8.0	12.0	5.0	11.0	7.0	16.0	5.0	8.0	6.0	10.0	10.0	4.0	15.0
1274	81.1456	16.0	2.0	8.0	9.0	9.0	8.0	9.0	8.0	7.0	11.0	-1.0	10.0	13.0	12.0	12.0	12.0	5.0	20.0	8.0	12.0	14.0	21.0	10.0	4.0	19.0	21.0	14.0
1281	81.5987	15.0	4.0	13.0	14.0	17.0	15.0	6.0	2.0	19.0	5.0	22.0	11.0	17.0	14.0	10.0	17.0	16.0	23.0	9.0	15.0	15.0	20.0	20.0	16.0	13.0	13.0	17.0
1288	82.0519	16.33	6.67	9.67	20.67	27.67	14.67	23.67	10.67	24.67	27.67	27.67	23.67	15.67	14.67	13.67	15.67	22.67	9.67	31.67	22.67	18.67	27.67	23.67	18.67	18.67	6.67	11.67
1295	82.5053	17.33	27.67	44.67	50.67	48.67	27.67	45.67	43.67	47.67	32.67	41.67	46.67	38.67	23.67	39.67	19.67	15.67	26.67	17.67	22.67	34.67	32.67	27.67	38.67	29.67	28.67	26.67
1302	82.9589	17.67	49.33	145.33	108.33	103.33	106.33	95.33	103.33	99.33	95.33	91.33	97.33	81.33	73.33	55.33	45.33	52.33	55.33	35.33	59.33	47.33	40.33	50.33	51.33	49.33	38.33	33.33
1309	83.4127	16.67	91.33	223.33	196.33	198.33	206.33	171.33	176.33	196.33	162.33	175.33	160.33	203.33	128.33	96.33	91.33	94.33	81.33	86.33	96.33	86.33	87.33	88.33	88.33	86.33	67.33	90.33
1316	83.8666	14.67	139.33	292.33	272.33	283.33	246.33	234.33	223.33	230.33	233.33	216.33	201.33	172.33	138.33	153.33	131.33	134.33	116.33	108.33	95.33	115.33	110.33	100.33	121.33	111.33	103.33	91.33
1323	84.3207	22.0	116.0	275.0	243.0	218.0	179.0	187.0	208.0	157.0	161.0	176.0	159.0	174.0	117.0	97.0	114.0	97.0	98.0	102.0	87.0	115.0	88.0	99.0	89.0	92.0	76.0	99.0
1330	84.7751	23.0	54.0	139.0	97.0	118.0	104.0	82.0	73.0	76.0	86.0	77.0	88.0	79.0	71.0	54.0	52.0	40.0	55.0	58.0	41.0	43.0	56.0	47.0	45.0	37.0	61.0	39.0
1337	85.2296	31.33	18.67	46.67	56.67	32.67	22.67	34.67	21.67	25.67	23.67	22.67	18.67	23.67	30.67	15.67	20.67	17.67	15.67	17.67	16.67	10.67	20.67	19.67	20.67	21.67	11.67	11.67
1344	85.6843	22.33	5.67	36.67	18.67	16.67	21.67	10.67	16.67	14.67	7.67	23.67	18.67	22.67	16.67	14.67	4.67	13.67	-2.33	18.67	14.67	16.67	17.67	18.67	24.67	12.67	8.67	10.67
1351	86.1392	20.0	8.0	5.0	19.0	15.0	4.0	-2.0	7.0	7.0	3.0	4.0	5.0	14.0	3.0	1.0	10.0	10.0	15.0	12.0	13.0	12.0	16.0	16.0	7.0	12.0	12.0	12.0
1358	86.5943	15.33	3.67	9.67	2.67	7.67	16.67	5.67	14.67	10.67	2.67	15.67	9.67	15.67	13.67	8.67	19.67	3.67	21.67	5.67	3.67	26.67	28.67	16.67	16.67	13.67	0.67	14.67
1365	87.0496	15.67	13.33	12.33	8.33	20.33	10.33	8.33	14.33	16.33	6.33	9.33	10.33	26.33	8.33	20.33	16.33	7.33	21.33	11.33	15.33	11.33	12.33	7.33	14.33	15.33	8.33	17.33
1372	87.5051	24.33	9.67	3.67	4.67	18.67	4.67	18.67	3.67	1.67	7.67	1.67	4.67	5.67	4.67	1.67	4.67	-0.33	15.67	8.67	7.67	5.67	13.67	5.67	7.67	14.67	1.67	5.67
1379	87.9608	24.0	-2.0	10.0	15.0	2.0	3.0	7.0	11.0	12.0	12.0	2.0	5.0	4.0	15.0	12.0	-2.0	0.0	-1.0	19.0	21.0	1.0	15.0	6.0	5.0	5.0	8.0	14.0
1386	88.4167	20.0	6.0	13.0	3.0	18.0	5.0	1.0	7.0	4.0	10.0	8.0	15.0	12.0	16.0	8.0	6.0	15.0	3.0	17.0	11.0	10.0	11.0	13.0	10.0	18.0	17.0	12.0
1393	88.8728	19.33	9.67	15.67	5.67	9.67	18.67	9.67	-0.33	21.67	7.67	10.67	9.67	10.67	11.67	10.67	13.67	7.67	5.67	17.67	9.67	15.67	11.67	5.67	3.67	6.67	2.67	19.67
1400	89.3291	21.0	8.0	4.0	4.0	6.0	6.0	14.0	4.0	11.0	11.0	2.0	1.0	18.0	10.0	-3.0	13.0	13.0	16.0	4.0	10.0	13.0	12.0	10.0	8.0	8.0	5.0	9.0
1407	89.7857	23.33	-3.33	5.67	7.67	-1.33	24.67	8.67	14.67	4.67	7.67	5.67	9.67	8.67	5.67	-2.33	8.67	-0.33	9.67	7.67	8.67	1.67	14.67	6.67	11.67	11.67	9.67	7.67
1414	90.2424	23.67	-2.67	8.33	4.33	-2.67	7.33	10.33	2.33	5.33	3.33	3.33	6.33	4.33	5.33	9.33	10.33	13.33	7.33	6.33	-0.67	11.33	9.33	14.33	12.33	6.33	1.33	-0.67
1421	90.6993	21.67	1.33	5.33	9.33	5.33	8.33	3.33	10.33	14.33	4.33	14.33	3.33	3.33	15.33	15.33	7.33	10.33	10.33	9.33	3.33	3.33	17.33	1.33	7.33	16.33	11.33	10.33
1428	91.1565	27.67	-1.67	-2.67	-3.67	3.33	-6.67	4.33	-4.67	4.33	-3.67	16.33	-0.67	-14.67	12.33	16.33	16.33	9.33	4.33	10.33	1.33	3.33	-1.67	4.33	-1.67	-1.67	-0.67	4.33
1435	91.6139	23.0	7.0	10.0	0.0	3.0	2.0	11.0	13.0	7.0	11.0	-5.0	-2.0	5.0	5.0	1.0	5.0	7.0	6.0	7.0	6.0	6.0	17.0	14.0	5.0	18.0	18.0	3.0
1442	92.0715	19.67	6.33	14.33	7.33	13.33	15.33	13.33	8.33	8.33	14.33	11.33	7.33	21.33	22.33	15.33	13.33	18.33	18.33	11.33	5.33	23.33	16.33	11.33	8.33	11.33	17.33	7.33
1449	92.5293	23.67	-3.67	1.33	9.33	9.33	7.33	10.33	0.33	16.33	7.33	14.33	17.33	5.33	10.33	3.33	11.33	11.33	4.33	11.33	2.33	7.33	-2.67	18.33	17.33	15.33	12.33	22.33
1456	92.9873	18.33	4.67	15.67	17.67	11.67	11.67	21.67	2.67	12.67	2.67	13.67	8.67	15.67	16.67	20.67	12.67	16.67	17.67	15.67	18.67	6.67	13.67	15.67	17.67	16.67	14.67	20.67
1463	93.4456	27.0	4.0	5.0	1.0	-1.0	-3.0	6.0	3.0	3.0	7.0	5.0	-5.0	-3.0	8.0	3.0	12.0	-3.0	-2.0	11.0	2.0	1.0	6.0	8.0	-3.0	1.0	0.0	19.0
1470	93.904	25.67	-3.67	-3.67	-2.67	-4.67	6.33	12.33	11.33	4.33	10.33	-1.67	3.33	0.33	9.33	7.33	10.33	12.33	-2.67	14.33	4.33	5.33	7.33	5.33	0.33	5.33	3.33	10.33
1477	94.3628	26.33	7.67	7.67	8.67	-1.33	11.67	4.67	8.67	5.67	-7.33	5.67	5.67	9.67	2.67	12.67	2.67	-0.33	4.67	10.67	1.67	7.67	6.67	13.67	5.67	7.67	8.67	5.67
1484	94.8217	29.67	-7.67	0.33	-2.67	1.33	5.33	0.33	4.33	1.33	9.33	6.33	1.33	6.33	5.33	3.33	-2.67	14.33	11.33	-5.67	-3.67	8.33	7.33	-7.67	5.33	3.33	8.33	8.33
1491	95.2808	28.33	7.67	2.67	7.67	1.67	4.67	15.67	2.67	2.67	-0.33	7.67	8.67	-2.33	19.67	-1.33	5.67	5.67	1.67	1.67	8.67	13.67	9.67	10.67	6.67	8.67	9.67	-3.33
1498	95.7402	25.0	7.0	12.0	2.0	18.0	5.0	11.0	13.0	16.0	10.0	0.0	16.0	12.0	12.0	20.0	31.0	16.0	9.0	19.0	9.0	28.0	28.0	5.0	11.0	19.0	24.0	21.0
1505	96.1999	30.0	1.0	6.0	3.0	14.0	-1.0	0.0	0.0	-1.0	4.0	-1.0	1.0	14.0	18.0	12.0	19.0	21.0	12.0	17.0	14.0	20.0	21.0	12.0	11.0	5.0	25.0	9.0
1512	96.6597	30.67	-0.67	11.33	12.33	1.33	7.33	3.33	-4.67	-2.67	3.33	2.33	10.33	2.33	15.33	11.33	22.33	25.33	20.33	26.33	36.33	24.33	28.33	23.33	31.33	10.33	28.33	19.33
1519	97.1198	25.0	3.0	0.0	5.0	14.0	-3.0	12.0	6.0	4.0	11.0	25.0	10.0	19.0	40.0	22.0	25.0	27.0	34.0	45.0	36.0	53.0	32.0	32.0	24.0	39.0	40.0	29.0
1526	97.5802	31.0	3.0	2.0	-2.0	2.0	-3.0	0.0	11.0	8.0	5.0	10.0	3.0	20.0	17.0	20.0	12.0	25.0	25.0	19.0	34.0	30.0	18.0	22.0	33.0	20.0	32.0	18.0
1533	98.0407	27.33	6.67	5.67	2.67	3.67	3.67	5.67	7.67	-0.33	7.67	9.67	17.67	4.67	18.67	16.67	21.67	14.67	24.67	20.67	19.67	16.67	16.67	26.67	15.67	17.67	23.67	25.67
1540	98.5016	31.33	-10.33	11.67	-1.33	4.67	-3.33	-9.33	7.67	-3.33	-5.33	2.67	6.67	-10.33	9.67	16.67	19.67	8.67	0.67	10.67	22.67	4.67	4.67	7.67	23.67	11.67	7.67	6.67
1547	98.9626	31.0	3.0	6.0	5.0	14.0	2.0	-4.0	3.0	2.0	-6.0	6.0	15.0	5.0	0.0	12.0	8.0	10.0	8.0	15.0	13.0	11.0	19.0	6.0	17.0	1.0	8.0	-2.0
1554	99.4239	31.67	-2.67	7.33	2.33	1.33	1.33	4.33	4.33	-3.67	-3.67	-4.67	0.33	-8.67	5.33	0.33	1.33	11.33	0.33	4.33	8.33	1.33	-6.67	10.33	-0.67	-3.67	-0.67	12.33
1561	99.8855	28.33	-0.33	3.67	3.67	13.67	-1.33	3.67	10.67	4.67	2.67	6.67	-6.33	3.67	4.67	9.67	3.67	0.67	1.67	8.67	12.67	5.67	6.67	5.67	11.67	6.67	24.67	6.67
1568	100.347	26.0	5.0	14.0	3.0	9.0	2.0	6.0	5.0	14.0	2.0	13.0	2.0	-4.0	-2.0	12.0	10.0	9.0	4.0	4.0	-2.0	7.0	14.0	12.0	9.0	5.0	16.0	4.0
1575	100.809	28.0	10.0	-1.0	6.0	-1.0	0.0	9.0	7.0	3.0	6.0	1.0	-2.0	7.0	10.0	7.0	6.0	2.0	1.0	10.0	9.0	10.0	4.0	1.0	19.0	6.0	14.0	19.0
1582	101.272	30.0	1.0	-7.0	0.0	4.0	3.0	7.0	1.0	-4.0	4.0	1.0	-2.0	9.0	5.0	6.0	2.0	21.0	7.0	-2.0	-5.0	4.0	-1.0	4.0	4.0	-4.0	3.0	1.0
1589	101.734	31.67	-7.67	2.33	5.33	12.33	17.33	6.33	8.33	11.33	8.33	2.33	9.33	-6.67	-0.67	10.33	1.33	19.33	2.33	1.33	-0.67	-0.67	6.33	10.33	8.33	3.33	2.33	2.33
1596	102.197	31.67	2.33	0.33	7.33	-2.67	6.33	23.33	5.33	8.33	5.33	19.33	5.33	0.33	-2.67	4.33	15.33	7.33	1.33	10.33	-1.67	-5.67	16.33	4.33	12.33	-1.67	2.33	8.33
1603	102.66	27.67	0.33	14.33	13.33	6.33	15.33	25.33	26.33	8.33	13.33	17.33	21.33	6.33	8.33	7.33	11.33	5.33	11.33	12.33	3.33	11.33	4.33	19.33	6.33	14.33	17.33	14.33
1610	103.123	27.0	8.0	22.0	6.0	10.0	20.0	13.0	17.0	0.0	15.0	21.0	-1.0	6.0	9.0	17.0	12.0	6.0	9.0	6.0	10.0	16.0	20.0	7.0	8.0	24.0	18.0	5.0
1617	103.587	29.67	-7.67	8.33	1.33	15.33	3.33	1.33	6.33	-2.67	3.33	6.33	11.33	5.33	5.33	10.33	9.33	-1.67	2.33	10.33	-0.67	7.33	18.33	-0.67	12.33	6.33	7.33	-2.67
1624	104.051	27.0	6.0	22.0	5.0	18.0	11.0	10.0	-3.0	-2.0	7.0	4.0	6.0	3.0	1.0	3.0	5.0	18.0	11.0	3.0	8.0	-6.0	-3.0	10.0	-2.0	-1.0	5.0	-2.0
1631	104.515	22.0	11.0	-6.0	13.0	13.0	3.0	2.0	-4.0	11.0	18.0	11.0	6.0	20.0	3.0	7.0	9.0	7.0	3.0	9.0	10.0	16.0	10.0	9.0	10.0	5.0	11.0	11.0
1638	104.979	26.33	-2.33	1.67	1.67	-5.33	15.67	7.67	6.67	-2.33	6.67	-3.33	-5.33	-4.33	-0.33	2.67	-3.33	1.67	0.67	-0.33	0.67	3.67	-4.33	-2.33	1.67	8.67	7.67	1.67
1645	105.444	21.0	7.0	8.0	7.0	15.0	7.0	4.0	12.0	2.0	7.0	6.0	10.0	7.0	12.0	9.0	3.0	10.0	-2.0	15.0	13.0	14.0	10.0	6.0	8.0	12.0	8.0	5.0
1652	105.909	23.0	0.0	-1.0	5.0	-1.0	-6.0	4.0	6.0	0.0	-7.0	6.0	2.0	19.0	8.0	12.0	-6.0	5.0	5.0	1.0	10.0	8.0	5.0	6.0	11.0	9.0	3.0	8.0
1659	106.374	23.33	-0.33	13.67	3.67	8.67	1.67	12.67	-4.33	-2.33	17.67	3.67	2.67	3.67	6.67	9.67	-5.33	17.67	7.67	10.67	-5.33	7.67	6.67	6.67	11.67	11.67	7.67	1.67
1666	106.84	21.67	0.33	6.33	4.33	8.33	1.33	2.33	4.33	-1.67	6.33	-0.67	-1.67	1.33	7.33	-1.67	-0.67	-1.67	8.33	5.33	15.33	11.33	10.33	3.33	11.33	0.33	10.33	3.33
1673	107.305	24.67	-1.67	-1.67	3.33	-4.67	-5.67	-0.67	3.33	1.33	8.33	6.33	4.33	1.33	6.33	2.33	16.33	-0.67	5.33	3.33	-1.67	4.33	2.33	6.33	1.33	2.33	-1.67	1.33
1680	107.771	21.0	-4.0	7.0	0.0	11.0	-6.0	6.0	12.0	4.0	-4.0	23.0	-2.0	2.0	-1.0	4.0	11.0	2.0	14.0	12.0	3.0	12.0	10.0	11.0	0.0	7.0	7.0	0.0
1687	108.238	27.0	3.0	-2.0	-8.0	3.0	-2.0	-5.0	-7.0	2.0	1.0	-2.0	-10.0	9.0	1.0	3.0	-5.0	-11.0	-2.0	-10.0	9.0	-1.0	1.0	0.0	5.0	-2.0	-1.0	2.0
1694	108.704	20.33	3.67	9.67	6.67	0.67	11.67	-0.33	1.67	6.67	0.67	5.67	8.67	9.67	-0.33	9.67	-3.33	-1.33	5.67	2.67	4.67	4.67	-6.33	6.67	2.67	5.67	-1.33	1.67
1701	109.171	20.67	4.33	-6.67	8.33	5.33	3.33	5.33	2.33	0.33	2.33	5.33	2.33	4.33	-3.67	5.33	-1.67	5.33	-3.67	5.33	12.33	-6.67	1.33	6.33	9.33	4.33	12.33	-0.67
1708	109.638	20.67	-1.67	5.33	3.33	16.33	-1.67	5.33	3.33	5.33	6.33	9.33	-2.67	-6.67	-1.67	8.33	11.33	4.33	3.33	4.33	-0.67	1.33	-1.67	5.33	0.33	19.33	4.33	3.33
1715	110.106	20.0	2.0	9.0	-2.0	4.0	9.0	-1.0	9.0	14.0	-2.0	7.0	6.0	5.0	2.0	-1.0	8.0	5.0	8.0	-4.0	9.0	9.0	10.0	0.0	6.0	8.0	3.0	8.0
1722	110.574	22.0	-1.0	-6.0	1.0	-2.0	4.0	6.0	0.0	0.0	5.0	4.0	-7.0	7.0	-2.0	-7.0	-3.0	3.0	-2.0	4.0	9.0	-5.0	0.0	-2.0	5.0	6.0	6.0	9.0
1729	111.042	20.0	1.0	9.0	10.0	5.0	8.0	3.0	6.0	3.0	2.0	11.0	7.0	9.0	8.0	1.0	7.0	4.0	13.0	10.0	-7.0	5.0	9.0	8.0	2.0	5.0	4.0	9.0
1736	111.51	19.0	7.0	13.0	14.0	9.0	4.0	10.0	0.0	2.0	9.0	12.0	5.0	4.0	4.0	5.0	4.0	9.0	7.0	5.0	-3.0	5.0	3.0	3.0	4.0	3.0	3.0	-3.0
1743	111.979	23.0	-4.0	6.0	5.0	10.0	-4.0	11.0	7.0	2.0	3.0	9.0	3.0	3.0	-1.0	10.0	0.0	1.0	6.0	0.0	9.0	10.0	3.0	1.0	7.0	-3.0	14.0	15.0
1750	112.447	17.67	9.33	13.33	11.33	21.33	13.33	7.33	10.33	6.33	6.33	21.33	12.33	10.33	8.33	9.33	5.33	-1.67	7.33	6.33	3.33	26.33	3.33	3.33	7.33	2.33	12.33	9.33
1757	112.917	17.33	-3.33	16.67	11.67	6.67	25.67	25.67	11.67	12.67	2.67	8.67	16.67	6.67	3.67	15.67	12.67	11.67	2.67	2.67	10.67	2.67	2.67	3.67	4.67	1.67	7.67	5.67
1764	113.386	18.33	7.67	8.67	18.67	6.67	0.67	15.67	10.67	2.67	7.67	0.67	2.67	5.67	-2.33	7.67	3.67	4.67	-3.33	6.67	0.67	11.67	1.67	2.67	10.67	17.67	6.67	-2.33
1771	113.856	19.0	-1.0	-2.0	2.0	11.0	9.0	-7.0	1.0	-4.0	7.0	-3.0	3.0	-1.0	-3.0	3.0	-6.0	4.0	3.0	0.0	2.0	-1.0	1.0	6.0	-5.0	-6.0	4.0	6.0
1778	114.326	16.33	3.67	4.67	4.67	-4.33	4.67	4.67	2.67	4.67	-1.33	-7.33	-1.33	2.67	2.67	1.67	0.67	1.67	0.67	6.67	1.67	7.67	6.67	11.67	0.67	3.67	4.67	12.67
1785	114.796	19.67	-0.67	-3.67	2.33	-0.67	3.33	-0.67	-3.67	0.33	-7.67	-2.67	-2.67	-4.67	5.33	-0.67	1.33	12.33	2.33	8.33	1.33	-4.67	-3.67	7.33	-0.67	1.33	5.33	2.33
1792	115.267	13.67	-0.67	-1.67	9.33	3.33	6.33	16.33	6.33	5.33	5.33	0.33	3.33	6.33	6.33	4.33	9.33	9.33	0.33	0.33	-0.67	12.33	5.33	8.33	2.33	1.33	10.33	4.33
1799	115.738	17.33	2.67	4.67	-3.33	1.67	-0.33	1.67	-7.33	-4.33	3.67	-6.33	0.67	7.67	-10.33	-1.33	4.67	4.67	0.67	1.67	0.67	4.67	0.67	4.67	4.67	4.67	1.67	1.67
1806	116.209	20.67	-8.67	-8.67	2.33	-2.67	-0.67	-9.67	5.33	-7.67	-5.67	-10.67	-8.67	1.33	-4.67	-3.67	-9.67	4.33	-2.67	-1.67	-0.67	-5.67	-0.67	-0.67	-6.67	-1.67	-2.67	-4.67
1813	116.681	13.67	4.33	-1.67	2.33	2.33	9.33	5.33	8.33	6.33	4.33	0.33	10.33	6.33	7.33	3.33	1.33	9.33	7.33	4.33	-0.67	-0.67	5.33	0.33	3.33	8.33	1.33	2.33
1820	117.153	14.33	0.67	-1.33	-0.33	2.67	-7.33	7.67	1.67	2.67	9.67	4.67	7.67	1.67	8.67	-0.33	-0.33	-0.33	-1.33	9.67	3.67	8.67	1.67	0.67	12.67	4.67	3.67	-0.33
1827	117.625	10.33	9.67	-1.33	6.67	-1.33	5.67	7.67	4.67	10.67	9.67	4.67	8.67	-2.33	0.67	2.67	2.67	4.67	12.67	-0.33	3.67	9.67	6.67	6.67	10.67	6.67	4.67	5.67
1834	118.098	13.67	2.33	8.33	-0.67	-2.67	-1.67	-3.67	1.33	6.33	4.33	-0.67	-4.67	-6.67	-2.67	-3.67	-4.67	7.33	1.33	3.33	1.33	6.33	-0.67	5.33	13.33	5.33	4.33	4.33
1841	118.571	14.33	6.67	-3.33	11.67	-3.33	2.67	-3.33	-1.33	7.67	1.67	2.67	-1.33	2.67	1.67	0.67	3.67	-1.33	-1.33	1.67	1.67	-1.33	2.67	7.67	2.67	-5.33	-6.33	3.67
1848	119.044	15.0	1.0	-2.0	1.0	3.0	2.0	-3.0	7.0	-3.0	4.0	11.0	1.0	0.0	8.0	-6.0	-3.0	-3.0	1.0	4.0	3.0	4.0	0.0	21.0	-1.0	0.0	-3.0	-6.0
1855	119.518	12.0	2.0	-3.0	1.0	3.0	-2.0	7.0	3.0	-1.0	0.0	7.0	5.0	-3.0	-3.0	-1.0	7.0	-2.0	0.0	-1.0	6.0	0.0	2.0	-2.0	-1.0	3.0	-1.0	3.0
1862	119.991	13.0	3.0	2.0	0.0	3.0	3.0	0.0	-4.0	-4.0	2.0	2.0	1.0	-3.0	7.0	-3.0	5.0	1.0	1.0	1.0	-4.0	3.0	1.0	7.0	0.0	5.0	-1.0	1.0
1869	120.466	12.67	-1.67	7.33	4.33	-3.67	-0.67	-0.67	11.33	-2.67	3.33	-2.67	0.33	5.33	5.33	1.33	7.33	5.33	2.33	0.33	3.33	8.33	8.33	-2.67	-0.67	-0.67	2.33	5.33
1876	120.94	14.67	-4.67	-7.67	8.33	-2.67	5.33	-4.67	-0.67	5.33	-4.67	1.33	-4.67	-4.67	-7.67	2.33	-3.67	-3.67	-3.67	2.33	3.33	-6.67	-5.67	-1.67	-2.67	5.33	0.33	0.33
1883	121.415	9.0	7.0	4.0	3.0	10.0	4.0	9.0	5.0	3.0	10.0	4.0	13.0	-1.0	4.0	5.0	13.0	10.0	1.0	-1.0	1.0	13.0	10.0	11.0	11.0	0.0	6.0	3.0
1890	121.89	13.0	-3.0	-3.0	1.0	9.0	4.0	6.0	6.0	5.0	5.0	-2.0	2.0	-2.0	3.0	4.0	0.0	-3.0	2.0	-1.0	2.0	0.0	-6.0	0.0	3.0	0.0	2.0	3.0
1897	122.366	13.0	4.0	6.0	-2.0	-5.0	3.0	5.0	5.0	0.0	1.0	4.0	-1.0	1.0	4.0	-1.0	4.0	6.0	-2.0	-1.0	2.0	-1.0	6.0	1.0	10.0	2.0	2.0	4.0
1904	122.841	9.67	1.33	12.33	7.33	0.33	8.33	9.33	3.33	9.33	1.33	9.33	6.33	6.33	14.33	-1.67	6.33	10.33	0.33	6.33	1.33	5.33	10.33	2.33	5.33	6.33	8.33	-3.67
1911	123.318	14.67	-5.67	2.33	0.33	1.33	2.33	1.33	4.33	-1.67	3.33	-1.67	5.33	8.33	5.33	11.33	-7.67	-1.67	3.33	1.33	3.33	-7.67	-3.67	1.33	-1.67	-4.67	-4.67	3.33
1918	123.794	10.33	4.67	5.67	-3.33	15.67	8.67	4.67	11.67	4.67	4.67	0.67	2.67	9.67	3.67	7.67	3.67	6.67	9.67	5.67	4.67	5.67	9.67	2.67	5.67	3.67	3.67	1.67
1925	124.271	12.33	0.67	-3.33	1.67	-3.33	2.67	0.67	0.67	-2.33	2.67	5.67	3.67	-1.33	0.67	-2.33	0.67	5.67	1.67	0.67	-2.33	-1.33	-2.33	-2.33	2.67	5.67	3.67	-6.33
1932	124.748	10.33	-1.33	0.67	4.67	3.67	1.67	1.67	1.67	1.67	4.67	-0.33	-0.33	7.67	-4.33	6.67	4.67	0.67	0.67	6.67	1.67	1.67	1.67	-0.33	4.67	8.67	1.67	2.67
1939	125.226	13.0	-1.0	-8.0	-1.0	-8.0	-5.0	4.0	2.0	2.0	-1.0	0.0	-3.0	1.0	-5.0	2.0	-3.0	3.0	0.0	-2.0	-1.0	0.0	1.0	3.0	-2.0	-5.0	-4.0	-2.0
1946	125.704	9.67	1.33	-0.67	2.33	-0.67	-5.67	0.33	1.33	4.33	8.33	5.33	-0.67	-3.67	-0.67	4.33	4.33	7.33	-1.67	-2.67	2.33	1.33	-2.67	2.33	-3.67	5.33	6.33	0.33
1953	126.182	8.67	3.33	-1.67	-2.67	-5.67	3.33	3.33	-1.67	6.33	-0.67	0.33	6.33	9.33	1.33	0.33	-0.67	-0.67	0.33	6.33	1.33	1.33	4.33	0.33	3.33	-0.67	1.33	1.33
1960	126.66	7.33	0.67	-0.33	-0.33	5.67	-0.33	4.67	6.67	7.67	4.67	4.67	5.67	4.67	1.67	0.67	0.67	5.67	5.67	3.67	2.67	4.67	-1.33	2.67	5.67	6.67	-4.33	5.67
1967	127.139	12.33	2.67	5.67	-7.33	-4.33	-0.33	-1.33	-2.33	-0.33	-5.33	-0.33	-2.33	0.67	-0.33	1.67	-4.33	-2.33	0.67	2.67	2.67	-2.33	1.67	-3.33	-4.33	-2.33	-0.33	3.67
1974	127.619	11.67	-6.67	-5.67	-2.67	-0.67	-3.67	-0.67	-5.67	0.33	-4.67	-2.67	-0.67	3.33	2.33	-2.67	-1.67	0.33	-1.67	2.33	3.33	-0.67	-0.67	3.33	-3.67	1.33	-2.67	0.33
1981	128.098	9.33	-1.33	2.67	-0.33	-0.33	3.67	4.67	3.67	0.67	6.67	1.67	-0.33	1.67	4.67	2.67	0.67	-0.33	0.67	1.67	2.67	0.67	0.67	2.67	4.67	-5.33	1.67	1.67
1988	128.578	8.33	2.67	0.67	1.67	4.67	0.67	-1.33	2.67	1.67	-0.33	5.67	1.67	-2.33	0.67	2.67	0.67	0.67	3.67	-2.33	2.67	0.67	1.67	-0.33	-3.33	7.67	5.67	5.67
1995	129.059	10.33	-5.33	3.67	-1.33	-1.33	0.67	-5.33	-5.33	-1.33	-3.33	-1.33	4.67	-2.33	2.67	-0.33	-3.33	-0.33	-3.33	-5.33	-5.33	-0.33	-0.33	-0.33	-2.33	-2.33	4.67	-3.33
2002	129.539	8.0	0.0	0.0	4.0	-3.0	0.0	0.0	3.0	2.0	3.0	-4.0	2.0	8.0	7.0	-3.0	3.0	-1.0	0.0	-1.0	4.0	0.0	4.0	3.0	1.0	-1.0	1.0	2.0
2009	130.02	9.33	-1.33	-0.33	0.67	-1.33	-0.33	1.67	-2.33	-0.33	-1.33	-1.33	-3.33	-1.33	1.67	-0.33	-5.33	-5.33	4.67	-1.33	-3.33	-0.33	-4.33	2.67	0.67	6.67	0.67	-3.33
2016	130.502	9.33	-1.33	-0.33	1.67	-0.33	-3.33	-2.33	-0.33	-0.33	-2.33	3.67	-0.33	-0.33	2.67	3.67	1.67	-0.33	0.67	-1.33	2.67	3.67	7.67	-3.33	-2.33	1.67	4.67	2.67
2023	130.984	9.33	0.67	1.67	-0.33	-1.33	-0.33	-2.33	4.67	0.67	4.67	-1.33	-2.33	5.67	-2.33	2.67	-2.33	-4.33	-2.33	-2.33	2.67	4.67	-3.33	-3.33	-0.33	0.67	-3.33	-3.33
2030	131.466	9.0	-3.0	-4.0	0.0	5.0	-2.0	2.0	-4.0	1.0	2.0	-5.0	-3.0	-3.0	-5.0	0.0	0.0	2.0	2.0	2.0	3.0	-5.0	1.0	-1.0	3.0	6.0	-1.0	3.0
2037	131.948	7.33	3.67	7.67	1.67	-1.33	3.67	2.67	-4.33	3.67	-3.33	-1.33	4.67	5.67	5.67	-0.33	2.67	-0.33	-2.33	2.67	-2.33	-1.33	0.67	3.67	-1.33	-1.33	0.67	2.67
2044	132.431	10.0	-2.0	0.0	-2.0	-2.0	0.0	0.0	-3.0	-4.0	0.0	-3.0	-7.0	-2.0	-3.0	-3.0	-1.0	-2.0	2.0	3.0	5.0	4.0	-5.0	-1.0	1.0	-7.0	-3.0	3.0
2047	132.638	11.67	-6.67	-7.67	-2.67	-3.67	-2.67	-2.67	1.33	-4.67	-1.67	-1.67	-3.67	-4.67	-3.67	-5.67	-0.67	-5.67	-8.67	-4.67	-4.67	-4.67	-3.67	-5.67	0.33	0.33	-6.67	-1.67