File: EDX Back Ups and Old Files/EDX Processed Data/.ipynb_checkpoints/High pH SF 60C 6d-checkpoint.txt
Name: High pH SF 60C 6d
Number of Scans: 29
Positions: [-13.0, -12.75, -12.5, -12.25, -12.0, -11.75, -11.5, -11.25, -11.0, -10.75, -10.5, -10.25, -10.0, -9.75, -9.5, -9.25, -9.0, -8.75, -8.5, -8.25, -8.0, -7.75, -7.5, -7.25, -7.0, -6.75, -6.5, -6.25, -6.0]
Points per Scan: 2048
Sample Edge: 3
Scans Off Sample: [0, 1, 2]
Conversion Features: [(275, 17444.3), (309, 19608.3), (913, 57981.7), (934, 59318.24), (1058, 67244.3)]
Degree of Fit: 3
Fit Coeffecients: [ 8.59183e-07 -0.001482  64.3003 -144.207]
pH: High
Steel Fiber: True
Aging Temp.: 60
Aging Atm.: 100% CO2
Aging Humidity: None
Aging Time: 6

*********
#Bins	Energy [keV]	Avg. Background	-12.25 [mm]	-12.0 [mm]	-11.75 [mm]	-11.5 [mm]	-11.25 [mm]	-11.0 [mm]	-10.75 [mm]	-10.5 [mm]	-10.25 [mm]	-10.0 [mm]	-9.75 [mm]	-9.5 [mm]	-9.25 [mm]	-9.0 [mm]	-8.75 [mm]	-8.5 [mm]	-8.25 [mm]	-8.0 [mm]	-7.75 [mm]	-7.5 [mm]	-7.25 [mm]	-7.0 [mm]	-6.75 [mm]	-6.5 [mm]	-6.25 [mm]	-6.0 [mm]
0	-0.144207	0.0	0.0	0.0	0.0	0.0	0.0	0.0	0.0	0.0	0.0	0.0	0.0	0.0	0.0	0.0	0.0	0.0	0.0	0.0	0.0	0.0	0.0	0.0	0.0	0.0	0.0	0.0
7	0.305823	1875.33	46.67	-46.33	-65.33	-127.33	-73.33	38.67	-89.33	10.67	-28.33	-71.33	-44.33	-48.33	-84.33	-59.33	-66.33	-131.33	-124.33	30.67	-12.33	-99.33	-97.33	-63.33	-0.33	-81.33	-34.33	-82.33
14	0.75571	1056.67	-55.67	-6.67	-34.67	8.33	-42.67	65.33	67.33	23.33	25.33	-24.67	62.33	-13.67	55.33	3.33	-6.67	-74.67	29.33	54.33	26.33	0.33	-26.67	-34.67	57.33	-24.67	-5.67	-34.67
21	1.20545	237.67	21.33	-11.67	-6.67	-1.67	0.33	-7.67	28.33	15.33	-10.67	1.33	10.33	33.33	37.33	13.33	-17.67	-5.67	-25.67	4.33	5.33	25.33	-17.67	-16.67	12.33	9.33	3.33	10.33
28	1.65506	39.67	-4.67	6.33	-3.67	-1.67	-6.67	-18.67	9.33	3.33	-18.67	-2.67	-4.67	12.33	-2.67	-14.67	-3.67	-17.67	6.33	9.33	1.33	2.33	-12.67	4.33	1.33	3.33	0.33	-3.67
35	2.10453	6.0	-5.0	-5.0	-3.0	-4.0	-5.0	-2.0	-3.0	-3.0	-1.0	-4.0	-1.0	-3.0	-1.0	-4.0	-4.0	2.0	-1.0	5.0	-3.0	-1.0	2.0	3.0	-3.0	-2.0	-2.0	-4.0
42	2.55386	0.67	0.33	3.33	-0.67	-0.67	-0.67	0.33	0.33	-0.67	0.33	-0.67	1.33	0.33	0.33	1.33	0.33	-0.67	-0.67	-0.67	0.33	0.33	-0.67	0.33	-0.67	-0.67	0.33	0.33
49	3.00305	0.0	1.0	0.0	0.0	1.0	0.0	0.0	0.0	0.0	1.0	0.0	1.0	0.0	1.0	0.0	0.0	0.0	0.0	0.0	0.0	0.0	0.0	2.0	0.0	1.0	1.0	0.0
56	3.45212	0.0	1.0	0.0	1.0	1.0	0.0	1.0	1.0	0.0	0.0	0.0	0.0	0.0	0.0	0.0	0.0	1.0	0.0	1.0	0.0	0.0	0.0	0.0	0.0	0.0	0.0	1.0
63	3.90105	0.33	-0.33	-0.33	0.67	-0.33	0.67	1.67	-0.33	-0.33	-0.33	-0.33	-0.33	-0.33	0.67	-0.33	-0.33	-0.33	-0.33	-0.33	-0.33	0.67	-0.33	-0.33	-0.33	-0.33	-0.33	-0.33
70	4.34985	0.0	0.0	0.0	0.0	0.0	0.0	2.0	0.0	1.0	0.0	1.0	0.0	0.0	1.0	0.0	0.0	0.0	1.0	0.0	1.0	2.0	0.0	1.0	0.0	0.0	1.0	0.0
77	4.79852	0.0	0.0	0.0	1.0	1.0	0.0	0.0	1.0	1.0	0.0	0.0	1.0	0.0	0.0	1.0	0.0	0.0	0.0	0.0	1.0	2.0	1.0	0.0	3.0	1.0	2.0	0.0
84	5.24707	0.33	0.67	-0.33	-0.33	-0.33	-0.33	0.67	0.67	-0.33	-0.33	-0.33	2.67	-0.33	-0.33	-0.33	-0.33	-0.33	0.67	-0.33	-0.33	0.67	1.67	-0.33	0.67	-0.33	-0.33	-0.33
91	5.6955	1.33	-1.33	-0.33	-0.33	-0.33	-1.33	-1.33	-1.33	-1.33	-0.33	-0.33	-1.33	-0.33	-1.33	-1.33	-1.33	-0.33	-1.33	-1.33	0.67	-1.33	-1.33	-0.33	-1.33	-0.33	-1.33	-0.33
98	6.1438	0.33	-0.33	1.67	-0.33	-0.33	0.67	-0.33	0.67	2.67	0.67	-0.33	-0.33	0.67	-0.33	-0.33	0.67	0.67	1.67	-0.33	0.67	2.67	0.67	0.67	0.67	1.67	-0.33	1.67
105	6.59198	2.0	1.0	2.0	0.0	0.0	2.0	-1.0	-2.0	-1.0	-1.0	-1.0	0.0	0.0	0.0	-1.0	0.0	1.0	-1.0	-2.0	-1.0	-1.0	0.0	0.0	-2.0	-2.0	-1.0	-2.0
112	7.04005	2.0	2.0	0.0	0.0	-1.0	0.0	2.0	1.0	3.0	6.0	4.0	-1.0	-1.0	0.0	2.0	2.0	-1.0	0.0	1.0	0.0	0.0	1.0	1.0	2.0	2.0	0.0	0.0
119	7.48799	2.67	2.33	1.33	3.33	3.33	0.33	-1.67	0.33	1.33	5.33	-0.67	-0.67	3.33	3.33	0.33	5.33	3.33	-2.67	0.33	4.33	-1.67	1.33	3.33	0.33	1.33	1.33	-0.67
126	7.93583	6.33	0.67	-3.33	-1.33	2.67	1.67	-4.33	-3.33	0.67	-3.33	1.67	-0.33	-3.33	-3.33	-0.33	-3.33	0.67	0.67	-0.33	3.67	1.67	-3.33	0.67	-0.33	-1.33	0.67	1.67
133	8.38354	7.67	-2.67	-1.67	-1.67	-2.67	-2.67	1.33	-3.67	2.33	-4.67	0.33	0.33	0.33	2.33	3.33	0.33	0.33	-1.67	-1.67	5.33	1.33	-2.67	-0.67	1.33	-2.67	-1.67	4.33
140	8.83115	8.0	-2.0	2.0	-1.0	-1.0	0.0	-2.0	1.0	-4.0	-3.0	-4.0	2.0	0.0	0.0	0.0	2.0	-2.0	4.0	3.0	-2.0	-1.0	-4.0	2.0	2.0	2.0	3.0	2.0
147	9.27865	9.0	-2.0	5.0	3.0	4.0	8.0	4.0	6.0	-5.0	1.0	2.0	6.0	-3.0	-4.0	2.0	-4.0	-2.0	-2.0	1.0	7.0	5.0	1.0	1.0	-1.0	4.0	-2.0	7.0
154	9.72604	10.67	1.33	-0.67	2.33	-2.67	1.33	-1.67	-1.67	4.33	2.33	-0.67	1.33	3.33	-4.67	1.33	-4.67	-2.67	8.33	1.33	3.33	0.33	3.33	0.33	-1.67	-5.67	4.33	2.33
161	10.1733	9.67	-0.67	0.33	3.33	0.33	-1.67	3.33	4.33	-4.67	-2.67	0.33	-4.67	1.33	-1.67	0.33	1.33	0.33	-0.67	5.33	-2.67	10.33	0.33	-2.67	5.33	3.33	0.33	10.33
168	10.6205	9.33	0.67	6.67	2.67	2.67	3.67	-1.33	5.67	-1.33	-0.33	-0.33	-0.33	-0.33	5.67	-1.33	-4.33	3.67	0.67	1.67	1.67	4.67	0.67	5.67	4.67	-1.33	-1.33	1.67
175	11.0676	10.0	-1.0	3.0	7.0	1.0	-3.0	2.0	-1.0	0.0	1.0	0.0	0.0	0.0	4.0	14.0	-1.0	-5.0	8.0	1.0	8.0	0.0	3.0	1.0	2.0	0.0	9.0	10.0
182	11.5145	7.33	1.67	5.67	-2.33	12.67	7.67	8.67	4.67	12.67	10.67	9.67	2.67	5.67	5.67	0.67	3.67	2.67	5.67	4.67	0.67	2.67	4.67	0.67	5.67	3.67	6.67	9.67
189	11.9614	11.67	-6.67	1.33	1.33	-5.67	-1.67	4.33	2.33	1.33	-0.67	2.33	1.33	-0.67	2.33	-0.67	0.33	-1.67	0.33	1.33	3.33	13.33	10.33	6.33	1.33	0.33	-5.67	5.33
196	12.4082	12.0	-1.0	-3.0	0.0	0.0	5.0	-4.0	2.0	-3.0	2.0	-2.0	-3.0	0.0	2.0	-4.0	1.0	-3.0	0.0	-1.0	8.0	6.0	2.0	-3.0	0.0	2.0	0.0	-4.0
203	12.8549	8.67	-0.67	2.33	-1.67	6.33	-0.67	4.33	-0.67	1.33	1.33	6.33	5.33	12.33	5.33	10.33	4.33	5.33	2.33	5.33	2.33	1.33	1.33	3.33	3.33	2.33	10.33	7.33
210	13.3015	6.67	0.33	1.33	7.33	4.33	4.33	7.33	11.33	-0.67	1.33	4.33	6.33	5.33	8.33	4.33	1.33	6.33	3.33	5.33	6.33	11.33	5.33	9.33	8.33	11.33	9.33	3.33
217	13.748	8.0	1.0	6.0	3.0	1.0	4.0	2.0	2.0	4.0	7.0	1.0	-4.0	3.0	2.0	2.0	1.0	5.0	1.0	14.0	2.0	7.0	11.0	-1.0	2.0	8.0	9.0	10.0
224	14.1944	8.33	2.67	-1.33	3.67	3.67	7.67	0.67	5.67	0.67	2.67	4.67	5.67	4.67	4.67	2.67	5.67	-1.33	4.67	3.67	5.67	-3.33	2.67	-3.33	-0.33	-2.33	3.67	2.67
231	14.6407	8.67	3.33	4.33	3.33	1.33	4.33	7.33	-0.67	3.33	8.33	6.33	-0.67	3.33	3.33	-1.67	0.33	1.33	11.33	6.33	7.33	1.33	6.33	6.33	7.33	2.33	1.33	-0.67
238	15.0869	9.0	-4.0	1.0	2.0	1.0	2.0	10.0	4.0	9.0	-1.0	6.0	-1.0	2.0	5.0	6.0	5.0	3.0	-1.0	-1.0	11.0	1.0	0.0	6.0	1.0	-2.0	1.0	7.0
245	15.5331	13.0	-1.0	3.0	-4.0	-1.0	1.0	1.0	-4.0	0.0	-5.0	3.0	5.0	-2.0	-3.0	-1.0	-1.0	-4.0	-5.0	0.0	4.0	1.0	-3.0	8.0	3.0	-3.0	-4.0	-3.0
252	15.9791	9.33	1.67	-1.33	-1.33	1.67	4.67	-1.33	1.67	-1.33	-1.33	5.67	-1.33	-0.33	-0.33	2.67	3.67	-0.33	4.67	6.67	-4.33	-5.33	-2.33	3.67	-4.33	4.67	7.67	2.67
259	16.4251	14.0	-8.0	-5.0	-1.0	-6.0	-3.0	-4.0	-6.0	-2.0	-7.0	-1.0	-4.0	-3.0	-3.0	2.0	-8.0	0.0	-2.0	1.0	1.0	-7.0	-7.0	-1.0	2.0	3.0	-1.0	-4.0
266	16.871	8.67	3.33	-3.67	7.33	3.33	4.33	0.33	4.33	5.33	1.33	4.33	2.33	7.33	0.33	9.33	6.33	1.33	0.33	1.33	1.33	-2.67	5.33	2.33	3.33	2.33	2.33	3.33
273	17.3168	8.0	2.0	5.0	-1.0	3.0	5.0	3.0	6.0	2.0	-1.0	8.0	5.0	6.0	4.0	4.0	5.0	1.0	0.0	1.0	1.0	-1.0	11.0	3.0	5.0	7.0	3.0	13.0
280	17.7626	7.33	2.67	4.67	0.67	-1.33	4.67	-0.33	9.67	-1.33	7.67	9.67	4.67	5.67	7.67	-0.33	5.67	-1.33	3.67	7.67	3.67	10.67	4.67	1.67	0.67	1.67	5.67	4.67
287	18.2082	7.33	2.67	2.67	10.67	4.67	1.67	2.67	5.67	3.67	1.67	3.67	1.67	2.67	-0.33	1.67	7.67	3.67	6.67	14.67	-2.33	0.67	1.67	5.67	3.67	0.67	4.67	3.67
294	18.6538	13.0	1.0	-2.0	-1.0	-3.0	-2.0	4.0	-3.0	-1.0	-1.0	-2.0	4.0	-3.0	-2.0	-4.0	-3.0	-7.0	0.0	3.0	-6.0	0.0	-2.0	3.0	-3.0	-6.0	0.0	0.0
301	19.0994	10.0	-1.0	1.0	2.0	2.0	6.0	-2.0	2.0	1.0	8.0	3.0	-2.0	-3.0	-3.0	1.0	1.0	1.0	-6.0	5.0	-1.0	2.0	3.0	4.0	3.0	0.0	-1.0	7.0
308	19.5448	10.0	3.0	-3.0	-3.0	-3.0	0.0	2.0	-4.0	1.0	2.0	2.0	1.0	0.0	1.0	-1.0	1.0	6.0	-4.0	1.0	-3.0	5.0	12.0	-1.0	-1.0	5.0	3.0	3.0
315	19.9902	9.33	4.67	4.67	5.67	5.67	-0.33	-0.33	2.67	1.67	-1.33	-1.33	-0.33	-0.33	-0.33	3.67	13.67	2.67	1.67	-2.33	-0.33	1.67	2.67	6.67	0.67	6.67	5.67	5.67
322	20.4355	6.0	7.0	2.0	9.0	2.0	3.0	0.0	9.0	8.0	1.0	2.0	7.0	-1.0	6.0	3.0	3.0	10.0	3.0	4.0	3.0	6.0	9.0	3.0	8.0	7.0	6.0	6.0
329	20.8808	8.67	-0.67	4.33	0.33	1.33	1.33	4.33	-0.67	9.33	1.33	8.33	-1.67	0.33	-0.67	3.33	5.33	1.33	3.33	1.33	9.33	1.33	6.33	7.33	4.33	-0.67	5.33	1.33
336	21.326	10.67	-2.67	5.33	5.33	0.33	-2.67	2.33	3.33	1.33	2.33	-3.67	8.33	-0.67	-1.67	-4.67	-3.67	-2.67	0.33	6.33	-0.67	-1.67	1.33	5.33	0.33	4.33	1.33	3.33
343	21.7711	5.67	6.33	10.33	3.33	9.33	6.33	6.33	2.33	2.33	4.33	7.33	4.33	0.33	4.33	3.33	3.33	7.33	5.33	4.33	7.33	4.33	5.33	-0.67	0.33	9.33	8.33	7.33
350	22.2162	8.67	1.33	0.33	4.33	5.33	6.33	2.33	1.33	-0.67	3.33	-4.67	-3.67	7.33	-0.67	4.33	-2.67	8.33	5.33	-0.67	-0.67	0.33	0.33	1.33	-3.67	9.33	-0.67	2.33
357	22.6612	6.0	4.0	0.0	3.0	4.0	4.0	6.0	-1.0	8.0	8.0	2.0	2.0	2.0	1.0	3.0	9.0	1.0	9.0	7.0	1.0	0.0	9.0	8.0	7.0	9.0	1.0	3.0
364	23.1062	6.67	2.33	0.33	1.33	6.33	5.33	-0.67	-0.67	0.33	1.33	3.33	1.33	-1.67	4.33	5.33	-0.67	3.33	5.33	4.33	3.33	5.33	6.33	4.33	4.33	8.33	7.33	2.33
371	23.5511	6.0	-2.0	2.0	3.0	11.0	7.0	6.0	4.0	7.0	7.0	2.0	4.0	3.0	2.0	4.0	4.0	4.0	5.0	1.0	2.0	2.0	3.0	2.0	4.0	3.0	10.0	4.0
378	23.996	7.33	-0.33	4.67	0.67	-2.33	4.67	1.67	7.67	-2.33	7.67	3.67	0.67	1.67	-1.33	0.67	6.67	3.67	3.67	3.67	2.67	3.67	6.67	1.67	4.67	4.67	3.67	0.67
385	24.4408	9.67	1.33	4.33	0.33	-0.67	3.33	0.33	-1.67	1.33	-3.67	-1.67	2.33	-4.67	-0.67	3.33	-0.67	-6.67	7.33	0.33	6.33	0.33	2.33	2.33	4.33	-0.67	5.33	-2.67
392	24.8855	10.0	-3.0	-7.0	-1.0	2.0	-5.0	-1.0	-1.0	6.0	-2.0	-6.0	-5.0	-3.0	0.0	-2.0	-4.0	3.0	-6.0	-3.0	4.0	0.0	-2.0	-1.0	3.0	-3.0	0.0	6.0
399	25.3303	7.33	1.67	2.67	-2.33	0.67	-2.33	-1.33	-0.33	1.67	5.67	4.67	-1.33	4.67	1.67	5.67	-0.33	3.67	5.67	6.67	4.67	1.67	10.67	-3.33	2.67	1.67	-3.33	0.67
406	25.7749	9.0	0.0	3.0	-5.0	0.0	-1.0	-3.0	-1.0	0.0	2.0	4.0	-2.0	-2.0	2.0	1.0	-4.0	-1.0	-3.0	-4.0	1.0	-3.0	5.0	2.0	-7.0	-2.0	-4.0	1.0
413	26.2196	8.0	2.0	5.0	-3.0	0.0	-1.0	0.0	-3.0	8.0	-1.0	2.0	1.0	2.0	-6.0	0.0	6.0	1.0	4.0	-4.0	-4.0	-4.0	3.0	-1.0	0.0	-1.0	2.0	8.0
420	26.6642	7.33	-1.33	-0.33	-1.33	1.67	3.67	-2.33	-2.33	0.67	0.67	6.67	0.67	1.67	6.67	1.67	-2.33	2.67	5.67	6.67	-0.33	-1.33	0.67	-5.33	-0.33	4.67	-1.33	9.67
427	27.1087	7.67	-1.67	6.33	-0.67	-3.67	7.33	1.33	2.33	2.33	7.33	0.33	6.33	0.33	4.33	-1.67	1.33	7.33	0.33	-2.67	-3.67	1.33	1.33	2.33	2.33	3.33	-1.67	10.33
434	27.5532	7.0	-1.0	1.0	-3.0	3.0	7.0	0.0	4.0	1.0	6.0	-3.0	-1.0	-3.0	2.0	-3.0	2.0	1.0	4.0	-1.0	7.0	-1.0	0.0	0.0	-1.0	1.0	9.0	0.0
441	27.9977	9.67	-3.67	-2.67	-6.67	-4.67	-6.67	-2.67	-2.67	-2.67	-3.67	-3.67	-2.67	-3.67	-4.67	-0.67	-1.67	-1.67	-1.67	2.33	0.33	0.33	2.33	2.33	-2.67	-4.67	-4.67	-8.67
448	28.4422	6.67	7.33	1.33	-0.67	1.33	0.33	1.33	0.33	-1.67	3.33	-1.67	1.33	3.33	2.33	3.33	-1.67	3.33	0.33	-2.67	4.33	-1.67	-1.67	-0.67	-1.67	-1.67	-0.67	0.33
455	28.8866	5.67	0.33	0.33	2.33	1.33	1.33	5.33	-0.67	3.33	-2.67	-1.67	-2.67	0.33	1.33	2.33	-0.67	0.33	0.33	4.33	5.33	3.33	1.33	-3.67	-0.67	3.33	3.33	3.33
462	29.3309	5.67	3.33	0.33	1.33	4.33	2.33	-1.67	-0.67	1.33	0.33	-0.67	2.33	1.33	1.33	2.33	1.33	5.33	3.33	4.33	9.33	1.33	3.33	3.33	0.33	6.33	7.33	2.33
469	29.7753	6.0	-1.0	1.0	4.0	-4.0	4.0	1.0	2.0	4.0	-2.0	7.0	-1.0	2.0	3.0	2.0	1.0	-1.0	-3.0	3.0	-3.0	0.0	3.0	1.0	2.0	1.0	3.0	0.0
476	30.2196	7.0	5.0	6.0	-1.0	-1.0	-2.0	4.0	4.0	-3.0	1.0	3.0	3.0	-4.0	-2.0	-1.0	-1.0	0.0	1.0	2.0	0.0	-1.0	-3.0	-4.0	-4.0	0.0	1.0	0.0
483	30.6639	8.33	-3.33	-6.33	-2.33	2.67	-1.33	-3.33	-4.33	-1.33	-2.33	0.67	-0.33	0.67	-2.33	-3.33	0.67	-0.33	0.67	0.67	0.67	4.67	-2.33	2.67	-3.33	-1.33	4.67	-0.33
490	31.1082	7.67	-3.67	-3.67	-1.67	0.33	-2.67	-2.67	-4.67	3.33	-6.67	-2.67	-3.67	-5.67	5.33	1.33	2.33	-2.67	0.33	-1.67	-0.67	-1.67	0.33	-0.67	-1.67	-3.67	-2.67	0.33
497	31.5525	8.67	-1.67	4.33	-0.67	-3.67	-2.67	-1.67	-5.67	-1.67	-7.67	-1.67	-1.67	-0.67	-6.67	-2.67	-1.67	-0.67	-1.67	-3.67	-4.67	2.33	-3.67	1.33	3.33	-5.67	0.33	0.33
504	31.9967	10.0	-2.0	-2.0	-1.0	-5.0	0.0	-7.0	-6.0	-6.0	-4.0	-3.0	-5.0	0.0	1.0	0.0	-3.0	-3.0	-1.0	-7.0	-3.0	-4.0	-1.0	-8.0	-5.0	-6.0	0.0	-4.0
511	32.4409	4.33	7.67	-2.33	-1.33	1.67	4.67	3.67	-0.33	1.67	-0.33	5.67	3.67	-0.33	6.67	1.67	-2.33	-0.33	2.67	4.67	-0.33	5.67	-0.33	2.67	3.67	4.67	0.67	-1.33
518	32.8851	8.67	-4.67	-1.67	-2.67	-2.67	-2.67	-1.67	-2.67	-5.67	-3.67	0.33	-1.67	-0.67	-1.67	-7.67	-0.67	-1.67	-0.67	-4.67	-3.67	-0.67	-2.67	-2.67	-0.67	-4.67	-2.67	0.33
525	33.3293	5.33	3.67	4.67	-2.33	3.67	-1.33	-1.33	1.67	-0.33	-1.33	1.67	-3.33	-0.33	-0.33	-2.33	-2.33	0.67	-0.33	4.67	-1.33	1.67	-0.33	1.67	-0.33	-2.33	0.67	-1.33
532	33.7735	7.67	-2.67	-0.67	-4.67	-3.67	-1.67	-0.67	-4.67	-1.67	-0.67	-3.67	1.33	-1.67	0.33	-4.67	-2.67	-2.67	-0.67	-1.67	-3.67	-2.67	-3.67	-2.67	3.33	0.33	-1.67	3.33
539	34.2177	4.33	3.67	0.67	-0.33	-0.33	-0.33	-2.33	0.67	1.67	-3.33	-2.33	-2.33	-0.33	2.67	1.67	7.67	0.67	4.67	2.67	2.67	0.67	0.67	7.67	3.67	4.67	1.67	1.67
546	34.6618	5.0	0.0	1.0	-2.0	3.0	2.0	1.0	-2.0	2.0	1.0	0.0	-2.0	5.0	4.0	0.0	3.0	-2.0	1.0	1.0	2.0	5.0	3.0	-2.0	-1.0	3.0	-3.0	1.0
553	35.106	5.0	0.0	5.0	0.0	-1.0	3.0	2.0	5.0	-2.0	3.0	3.0	-1.0	4.0	1.0	1.0	-4.0	2.0	-1.0	2.0	2.0	-1.0	2.0	0.0	4.0	2.0	3.0	1.0
560	35.5501	5.0	3.0	3.0	0.0	0.0	1.0	1.0	-1.0	3.0	2.0	3.0	-1.0	1.0	1.0	-1.0	0.0	-2.0	1.0	0.0	-3.0	3.0	4.0	4.0	0.0	2.0	0.0	-2.0
567	35.9943	4.67	5.33	1.33	2.33	1.33	1.33	0.33	1.33	10.33	7.33	2.33	-2.67	0.33	0.33	-0.67	2.33	-1.67	-1.67	-1.67	1.33	-1.67	3.33	-2.67	0.33	3.33	0.33	-1.67
574	36.4384	4.0	5.0	3.0	-1.0	1.0	0.0	0.0	3.0	5.0	-2.0	2.0	-2.0	-1.0	0.0	0.0	4.0	-1.0	1.0	2.0	3.0	2.0	-2.0	5.0	-2.0	-2.0	5.0	7.0
581	36.8825	6.67	-0.67	-2.67	-2.67	2.33	-2.67	0.33	-4.67	-2.67	-0.67	-2.67	-1.67	-2.67	1.33	0.33	-4.67	1.33	-0.67	0.33	5.33	-3.67	-1.67	-1.67	1.33	0.33	1.33	-2.67
588	37.3267	6.0	-3.0	-1.0	-2.0	-4.0	-2.0	-3.0	-3.0	-2.0	-3.0	1.0	-2.0	-2.0	1.0	-1.0	0.0	-1.0	0.0	-1.0	-1.0	-3.0	-4.0	-3.0	-4.0	2.0	-4.0	1.0
595	37.7708	5.33	0.67	1.67	4.67	1.67	-0.33	-0.33	-1.33	-3.33	5.67	2.67	4.67	1.67	1.67	2.67	-2.33	-1.33	0.67	-0.33	-1.33	5.67	3.67	2.67	-1.33	5.67	2.67	1.67
602	38.215	6.0	3.0	0.0	2.0	-5.0	5.0	-1.0	-1.0	-3.0	-2.0	1.0	1.0	-1.0	-1.0	2.0	2.0	-5.0	-1.0	3.0	7.0	-1.0	-2.0	1.0	0.0	-1.0	-1.0	1.0
609	38.6591	4.0	2.0	0.0	1.0	0.0	2.0	3.0	0.0	6.0	0.0	-1.0	-2.0	1.0	2.0	2.0	4.0	-2.0	2.0	-2.0	2.0	4.0	-1.0	2.0	1.0	-2.0	0.0	4.0
616	39.1033	6.67	-2.67	-2.67	-3.67	-1.67	-1.67	-2.67	-1.67	-0.67	-1.67	1.33	-3.67	-2.67	-3.67	-0.67	3.33	2.33	-2.67	3.33	0.33	-1.67	1.33	-0.67	-2.67	0.33	-2.67	1.33
623	39.5474	6.33	-1.33	-1.33	-5.33	-3.33	-1.33	-2.33	1.67	-4.33	4.67	-1.33	5.67	-2.33	-0.33	-0.33	3.67	2.67	-3.33	-2.33	0.67	-1.33	-2.33	-4.33	-2.33	-1.33	-2.33	2.67
630	39.9916	5.0	3.0	-1.0	-2.0	2.0	5.0	-1.0	7.0	1.0	-3.0	0.0	2.0	3.0	0.0	-2.0	2.0	1.0	0.0	2.0	4.0	2.0	5.0	4.0	1.0	1.0	-1.0	3.0
637	40.4358	6.33	-2.33	-2.33	1.67	-3.33	-1.33	-4.33	0.67	-5.33	-3.33	-2.33	-4.33	-3.33	2.67	-2.33	8.67	-3.33	2.67	-3.33	-1.33	-2.33	2.67	-1.33	-2.33	-4.33	-2.33	-2.33
644	40.88	8.33	-3.33	-0.33	1.67	-2.33	-5.33	-3.33	-5.33	-3.33	-6.33	1.67	-1.33	-3.33	-2.33	-4.33	-1.33	-1.33	-4.33	-5.33	-1.33	-3.33	0.67	0.67	2.67	-5.33	2.67	0.67
651	41.3243	6.33	-0.33	1.67	-1.33	-2.33	-1.33	1.67	-0.33	-4.33	1.67	-1.33	-1.33	3.67	2.67	-0.33	1.67	-3.33	-0.33	-1.33	-0.33	-0.33	1.67	-0.33	-2.33	-1.33	-2.33	-4.33
658	41.7685	5.67	0.33	3.33	1.33	1.33	1.33	-3.67	6.33	-0.67	0.33	3.33	3.33	0.33	2.33	1.33	-3.67	-2.67	4.33	3.33	-0.67	3.33	-0.67	0.33	-0.67	-1.67	2.33	1.33
665	42.2128	7.67	-0.67	-1.67	-1.67	-4.67	3.33	-2.67	-0.67	-6.67	-3.67	-1.67	-1.67	-2.67	-6.67	-2.67	-4.67	-1.67	0.33	0.33	-3.67	-1.67	1.33	4.33	0.33	4.33	0.33	-3.67
672	42.6571	8.0	-3.0	-4.0	-4.0	-1.0	0.0	1.0	-5.0	-4.0	-4.0	-1.0	0.0	1.0	-3.0	-5.0	1.0	-2.0	-3.0	2.0	-4.0	1.0	-3.0	2.0	0.0	-2.0	3.0	-4.0
679	43.1014	7.67	-1.67	-0.67	-0.67	-3.67	-3.67	-1.67	-2.67	5.33	0.33	1.33	-2.67	-2.67	-1.67	-2.67	-5.67	-2.67	-1.67	-0.67	-3.67	-5.67	-1.67	-5.67	-4.67	-4.67	-3.67	1.33
686	43.5458	8.67	-1.67	-1.67	-2.67	-1.67	-3.67	-2.67	-2.67	-0.67	-1.67	-6.67	-1.67	-6.67	-6.67	-3.67	0.33	-1.67	-3.67	-1.67	1.33	1.33	-1.67	-4.67	-5.67	-5.67	-3.67	-1.67
693	43.9901	6.67	1.33	-0.67	0.33	-3.67	-3.67	1.33	-1.67	-0.67	2.33	-0.67	-0.67	0.33	-1.67	-0.67	-1.67	1.33	-3.67	-0.67	0.33	-1.67	-0.67	-4.67	-2.67	-0.67	-2.67	1.33
700	44.4345	10.33	-1.33	-6.33	-4.33	-5.33	-5.33	-2.33	-4.33	-6.33	-6.33	-5.33	-2.33	-1.33	-3.33	-1.33	-7.33	0.67	-4.33	-0.33	-2.33	1.67	-0.33	-3.33	-5.33	-2.33	-5.33	-5.33
707	44.879	7.0	0.0	-4.0	1.0	2.0	-2.0	-2.0	-2.0	-1.0	-1.0	-4.0	1.0	6.0	-2.0	0.0	0.0	0.0	-4.0	2.0	0.0	1.0	3.0	3.0	1.0	-4.0	-2.0	4.0
714	45.3235	11.0	-4.0	0.0	0.0	-2.0	-5.0	-6.0	-4.0	-1.0	-3.0	-3.0	-5.0	-7.0	-5.0	-7.0	-8.0	3.0	-4.0	-2.0	-3.0	-8.0	-3.0	0.0	3.0	-5.0	-5.0	-4.0
721	45.768	7.67	-2.67	-0.67	1.33	-4.67	2.33	2.33	-0.67	1.33	-3.67	-0.67	-4.67	2.33	2.33	-1.67	-2.67	1.33	-2.67	0.33	2.33	-0.67	0.33	-1.67	3.33	5.33	4.33	1.33
728	46.2125	14.67	-4.67	-5.67	-6.67	-9.67	-1.67	-11.67	-8.67	-8.67	-4.67	-7.67	-5.67	-9.67	-4.67	-5.67	-2.67	-8.67	-3.67	-4.67	-7.67	-11.67	-5.67	-8.67	-4.67	-3.67	-6.67	-10.67
735	46.6571	10.0	-1.0	1.0	-5.0	-5.0	-4.0	-4.0	-2.0	-4.0	-2.0	-9.0	-7.0	-1.0	-3.0	-6.0	0.0	-3.0	1.0	-3.0	2.0	-2.0	-4.0	-2.0	-3.0	-5.0	-2.0	-2.0
742	47.1017	13.0	-5.0	-5.0	-8.0	-5.0	-4.0	-1.0	-2.0	-1.0	-7.0	-7.0	-5.0	4.0	-4.0	-10.0	-5.0	1.0	-7.0	-1.0	-9.0	-7.0	-7.0	-7.0	-2.0	-2.0	-7.0	-6.0
749	47.5464	10.0	-1.0	3.0	-5.0	-5.0	2.0	0.0	-5.0	-6.0	-1.0	-7.0	-3.0	-3.0	-2.0	-3.0	-5.0	0.0	-3.0	1.0	0.0	-2.0	-3.0	-6.0	-3.0	0.0	0.0	-8.0
756	47.9911	12.67	-1.67	-0.67	-4.67	-2.67	-8.67	-5.67	-4.67	-7.67	-0.67	-4.67	-5.67	-7.67	-8.67	-3.67	-7.67	-4.67	-3.67	-4.67	-2.67	-2.67	0.33	-5.67	0.33	-6.67	-2.67	-5.67
763	48.4358	7.33	-1.33	0.67	1.67	0.67	-4.33	5.67	4.67	0.67	4.67	-1.33	0.67	2.67	-0.33	3.67	4.67	2.67	3.67	2.67	2.67	0.67	2.67	-0.33	3.67	0.67	-2.33	4.67
770	48.8806	11.0	1.0	-5.0	-2.0	-1.0	2.0	-5.0	-6.0	1.0	-1.0	-5.0	-4.0	4.0	5.0	-2.0	-5.0	-2.0	-2.0	-6.0	-3.0	1.0	0.0	-2.0	-1.0	-5.0	-5.0	-2.0
777	49.3255	13.67	2.33	-6.67	-11.67	-3.67	-4.67	-3.67	-0.67	-2.67	-5.67	-7.67	-7.67	-4.67	-3.67	-9.67	-5.67	-1.67	-4.67	-4.67	0.33	-4.67	-1.67	-9.67	-5.67	-6.67	-4.67	-8.67
784	49.7704	15.33	-6.33	-4.33	-4.33	-8.33	-4.33	-2.33	-4.33	-11.33	-6.33	-0.33	-8.33	0.67	-7.33	-2.33	-3.33	2.67	-2.33	-9.33	-8.33	-10.33	-5.33	-2.33	-6.33	-3.33	-5.33	-8.33
791	50.2153	14.0	-3.0	-7.0	-2.0	-3.0	-5.0	-5.0	-10.0	-1.0	-6.0	-3.0	-6.0	-1.0	-4.0	-2.0	-6.0	0.0	-4.0	3.0	4.0	-1.0	-5.0	-3.0	-5.0	-2.0	-10.0	-3.0
798	50.6603	12.0	2.0	0.0	2.0	-4.0	-6.0	0.0	-2.0	10.0	0.0	0.0	4.0	6.0	4.0	4.0	9.0	9.0	15.0	10.0	1.0	-1.0	4.0	7.0	5.0	6.0	-1.0	-1.0
805	51.1054	12.33	12.67	1.67	-0.33	-6.33	1.67	-4.33	-4.33	8.67	6.67	7.67	10.67	0.67	11.67	10.67	11.67	14.67	6.67	14.67	11.67	7.67	10.67	4.67	14.67	14.67	13.67	12.67
812	51.5505	15.0	-3.0	-3.0	0.0	-2.0	-10.0	-3.0	5.0	2.0	20.0	5.0	16.0	16.0	28.0	24.0	29.0	31.0	39.0	38.0	19.0	13.0	17.0	26.0	30.0	16.0	25.0	30.0
819	51.9957	15.0	-3.0	-1.0	-2.0	-2.0	-4.0	-8.0	-3.0	4.0	4.0	6.0	11.0	13.0	2.0	13.0	18.0	17.0	15.0	28.0	14.0	9.0	13.0	19.0	9.0	12.0	9.0	2.0
826	52.4409	15.33	-0.33	-6.33	-5.33	-8.33	-4.33	-6.33	-4.33	-4.33	1.67	3.67	-1.33	-0.33	0.67	3.67	5.67	4.67	9.67	-1.33	-1.33	3.67	-4.33	-0.33	-0.33	4.67	6.67	5.67
833	52.8862	12.67	1.33	-3.67	-5.67	-2.67	-2.67	1.33	0.33	-2.67	0.33	-0.67	-3.67	-1.67	0.33	1.33	-2.67	-1.67	5.33	1.33	6.33	-1.67	-0.67	-3.67	5.33	-0.67	-2.67	5.33
840	53.3316	16.0	-6.0	-8.0	-1.0	-5.0	-11.0	-3.0	-3.0	-10.0	-2.0	-12.0	6.0	-9.0	-4.0	-10.0	-5.0	-4.0	-5.0	2.0	-4.0	-7.0	-2.0	-6.0	-1.0	-10.0	-5.0	-5.0
847	53.7771	13.67	-0.67	-2.67	-1.67	-5.67	1.33	-3.67	3.33	-6.67	-0.67	-2.67	-1.67	-1.67	0.33	1.33	-1.67	-1.67	2.33	-3.67	-3.67	-6.67	-1.67	-0.67	1.33	0.33	0.33	-1.67
854	54.2226	17.33	-1.33	-4.33	-3.33	-0.33	-6.33	-8.33	-7.33	-2.33	-4.33	-4.33	-2.33	-8.33	-4.33	-9.33	-6.33	-0.33	-4.33	-4.33	-5.33	-6.33	-7.33	-9.33	-2.33	-8.33	-6.33	-4.33
861	54.6681	20.33	-4.33	-7.33	-5.33	-7.33	-7.33	-6.33	-6.33	-7.33	-11.33	-8.33	-13.33	-5.33	-6.33	-5.33	-14.33	-10.33	-9.33	-10.33	-5.33	-6.33	-7.33	-8.33	-1.33	-13.33	-14.33	-4.33
868	55.1138	16.33	4.67	-6.33	-9.33	2.67	-8.33	-3.33	-11.33	-5.33	-10.33	-4.33	-6.33	-11.33	-1.33	-9.33	-5.33	-7.33	-4.33	2.67	-8.33	-3.33	-4.33	-3.33	-7.33	-0.33	-3.33	-6.33
875	55.5595	18.0	-10.0	-3.0	-5.0	3.0	-2.0	-4.0	-8.0	-9.0	-9.0	-11.0	-3.0	-7.0	1.0	0.0	-2.0	-3.0	0.0	0.0	-9.0	-5.0	-5.0	-10.0	-10.0	-10.0	-7.0	-2.0
882	56.0053	15.0	-2.0	-7.0	-3.0	4.0	-3.0	-3.0	7.0	10.0	2.0	-2.0	-2.0	-2.0	-2.0	5.0	-5.0	-2.0	-6.0	4.0	-5.0	-2.0	-1.0	-3.0	1.0	0.0	-9.0	1.0
889	56.4512	14.67	-6.67	4.33	-3.67	-3.67	-9.67	-0.67	-3.67	-1.67	3.33	2.33	-4.67	0.33	0.33	-1.67	-1.67	-8.67	-5.67	-4.67	-0.67	-7.67	-0.67	1.33	4.33	-1.67	3.33	-3.67
896	56.8972	17.0	-1.0	-7.0	4.0	-3.0	-4.0	-6.0	1.0	-1.0	-5.0	-4.0	-3.0	-2.0	-2.0	-5.0	-8.0	-3.0	-5.0	-1.0	-2.0	-8.0	-11.0	-1.0	-3.0	-6.0	-2.0	-1.0
903	57.3432	20.0	-10.0	-6.0	-6.0	2.0	-4.0	-8.0	-11.0	-1.0	-1.0	-5.0	-9.0	-4.0	1.0	-3.0	-8.0	-7.0	-3.0	-5.0	-4.0	-9.0	-5.0	-5.0	-17.0	-1.0	-8.0	-10.0
910	57.7893	20.67	-1.67	-3.67	-5.67	-5.67	-2.67	-4.67	-4.67	-0.67	-6.67	-2.67	-7.67	-3.67	-11.67	-7.67	-3.67	-8.67	-0.67	-8.67	-1.67	-2.67	0.33	-4.67	-6.67	-4.67	-4.67	-3.67
917	58.2355	18.67	-3.67	-1.67	-3.67	-1.67	-2.67	1.33	10.33	2.33	-9.67	1.33	-3.67	-5.67	-0.67	-2.67	-7.67	-2.67	0.33	-4.67	-6.67	-7.67	-10.67	-13.67	1.33	-11.67	-1.67	1.33
924	58.6818	22.33	-12.33	3.67	-6.33	-5.33	-6.33	-11.33	-7.33	-10.33	-8.33	-11.33	-5.33	-8.33	0.67	-10.33	-10.33	-9.33	-3.33	-7.33	-10.33	-5.33	-12.33	-5.33	-6.33	-4.33	4.67	-11.33
931	59.1282	26.67	-14.67	-11.67	-7.67	-13.67	-9.67	-11.67	-10.67	-8.67	-0.67	-10.67	-20.67	-7.67	-13.67	-10.67	-8.67	-8.67	0.33	-14.67	-15.67	-13.67	-12.67	-4.67	-3.67	-8.67	-11.67	-12.67
938	59.5747	20.33	-7.33	-11.33	-1.33	-9.33	-4.33	-11.33	-3.33	5.67	2.67	-3.33	-7.33	-5.33	-11.33	-6.33	5.67	-6.33	-1.33	-9.33	-5.33	-4.33	-3.33	0.67	-1.33	-5.33	-2.33	-2.33
945	60.0212	18.33	-3.33	-1.33	-7.33	-5.33	-6.33	1.67	-1.33	-0.33	-7.33	-2.33	-6.33	-9.33	-4.33	1.67	-5.33	-6.33	-16.33	-10.33	-1.33	-6.33	-0.33	-4.33	-7.33	-1.33	-5.33	-5.33
952	60.4679	14.67	4.33	0.33	1.33	-2.67	2.33	-2.67	-4.67	1.33	0.33	-1.67	-0.67	-4.67	-9.67	1.33	-5.67	-4.67	-4.67	-3.67	1.33	-3.67	2.33	-3.67	1.33	-1.67	-4.67	0.33
959	60.9146	17.33	-3.33	5.67	-1.33	-5.33	-1.33	-5.33	-2.33	2.67	0.67	-5.33	-6.33	0.67	-5.33	-9.33	-9.33	-8.33	-5.33	-7.33	-2.33	-5.33	-3.33	-5.33	-2.33	-5.33	-4.33	-3.33
966	61.3615	18.67	-6.67	-2.67	-2.67	-8.67	3.33	-8.67	3.33	-5.67	-10.67	1.33	-7.67	-5.67	-1.67	-3.67	-10.67	-2.67	3.33	-0.67	-2.67	-10.67	0.33	0.33	-1.67	-5.67	1.33	-13.67
973	61.8084	14.67	-0.67	-6.67	-1.67	6.33	-3.67	-3.67	-2.67	-0.67	-4.67	3.33	-7.67	-1.67	4.33	0.33	-1.67	1.33	1.33	-0.67	-3.67	-0.67	-5.67	-2.67	-2.67	-4.67	-0.67	-0.67
980	62.2555	20.0	3.0	-4.0	-9.0	-3.0	-11.0	-7.0	-5.0	-9.0	-1.0	-3.0	-7.0	-2.0	-8.0	-3.0	-13.0	-1.0	-10.0	-7.0	-4.0	-6.0	-7.0	-9.0	-5.0	-13.0	0.0	-13.0
987	62.7026	23.0	-5.0	-8.0	-12.0	-9.0	-5.0	-4.0	-14.0	-13.0	-8.0	-10.0	-7.0	-8.0	-9.0	-12.0	-5.0	-5.0	-10.0	-9.0	-8.0	-14.0	-9.0	-8.0	-7.0	-10.0	-10.0	-3.0
994	63.1499	16.33	6.67	1.67	-5.33	3.67	0.67	0.67	-4.33	-6.33	5.67	-0.33	-4.33	-6.33	0.67	-4.33	-3.33	-8.33	-5.33	-0.33	0.67	-7.33	-7.33	0.67	-5.33	-8.33	-3.33	2.67
1001	63.5972	18.0	6.0	-8.0	2.0	1.0	3.0	-1.0	-6.0	-4.0	-6.0	-4.0	2.0	-8.0	0.0	-2.0	-2.0	-3.0	-1.0	-4.0	-7.0	-1.0	-6.0	-8.0	-8.0	0.0	-8.0	-3.0
1008	64.0447	17.67	0.33	-2.67	1.33	-5.67	-5.67	-4.67	0.33	-6.67	-5.67	-0.67	-4.67	-4.67	-2.67	3.33	-3.67	1.33	2.33	-8.67	-7.67	5.33	-5.67	-1.67	1.33	1.33	-6.67	0.33
1015	64.4923	17.67	1.33	-4.67	6.33	-0.67	1.33	0.33	4.33	0.33	-4.67	-0.67	-3.67	-0.67	-1.67	0.33	2.33	-5.67	-3.67	0.33	0.33	-0.67	-5.67	-2.67	2.33	5.33	-4.67	0.33
1022	64.94	20.33	-6.33	4.67	6.67	6.67	5.67	5.67	11.67	2.67	12.67	3.67	2.67	4.67	3.67	-3.33	-6.33	-3.33	15.67	3.67	-3.33	4.67	3.67	-3.33	-4.33	-6.33	0.67	-2.33
1029	65.3878	16.67	16.33	19.33	29.33	16.33	31.33	14.33	19.33	31.33	10.33	17.33	15.33	12.33	15.33	15.33	6.33	12.33	18.33	11.33	26.33	1.33	22.33	18.33	24.33	3.33	10.33	1.33
1036	65.8357	18.33	11.67	31.67	39.67	37.67	31.67	28.67	17.67	25.67	26.67	13.67	14.67	17.67	8.67	23.67	11.67	12.67	14.67	17.67	9.67	11.67	3.67	2.67	12.67	13.67	19.67	16.67
1043	66.2837	18.67	5.33	25.33	30.33	17.33	31.33	21.33	27.33	18.33	13.33	8.33	10.33	10.33	16.33	9.33	12.33	20.33	10.33	10.33	3.33	4.33	1.33	6.33	10.33	-1.67	13.33	6.33
1050	66.7319	19.33	1.67	5.67	7.67	9.67	13.67	2.67	-1.33	6.67	3.67	8.67	8.67	-6.33	-1.33	3.67	1.67	2.67	7.67	-2.33	3.67	5.67	3.67	1.67	3.67	-1.33	-3.33	8.67
1057	67.1801	16.0	5.0	3.0	6.0	-1.0	4.0	3.0	3.0	7.0	11.0	7.0	4.0	5.0	2.0	6.0	0.0	14.0	-1.0	1.0	5.0	-3.0	7.0	-2.0	4.0	10.0	0.0	5.0
1064	67.6285	16.0	11.0	6.0	1.0	5.0	7.0	-10.0	4.0	3.0	2.0	7.0	9.0	1.0	3.0	8.0	-1.0	-3.0	3.0	2.0	1.0	5.0	-4.0	7.0	-7.0	11.0	-3.0	4.0
1071	68.077	16.0	-2.0	10.0	9.0	3.0	3.0	0.0	2.0	0.0	9.0	-5.0	-3.0	2.0	-1.0	5.0	4.0	0.0	0.0	-4.0	2.0	-6.0	0.0	-2.0	1.0	-3.0	-3.0	-3.0
1078	68.5257	14.33	4.67	-0.33	-0.33	2.67	12.67	-1.33	9.67	-3.33	-0.33	8.67	-0.33	-1.33	5.67	-1.33	4.67	-1.33	-4.33	-3.33	3.67	2.67	4.67	2.67	-1.33	0.67	7.67	3.67
1085	68.9744	17.0	3.0	7.0	1.0	3.0	7.0	-1.0	-3.0	2.0	0.0	-2.0	8.0	-1.0	-8.0	-6.0	2.0	0.0	-2.0	-5.0	6.0	-2.0	4.0	-3.0	-6.0	1.0	12.0	2.0
1092	69.4233	16.33	-3.33	3.67	4.67	2.67	-0.33	4.67	3.67	-4.33	0.67	0.67	1.67	6.67	-3.33	-1.33	-2.33	8.67	5.67	-1.33	1.67	-1.33	2.67	-3.33	0.67	3.67	-0.33	3.67
1099	69.8724	14.33	1.67	-0.33	8.67	1.67	14.67	4.67	0.67	7.67	-1.33	1.67	-0.33	10.67	-1.33	6.67	6.67	1.67	4.67	1.67	-0.33	-0.33	-2.33	-3.33	-2.33	0.67	-2.33	1.67
1106	70.3215	11.67	4.33	4.33	6.33	1.33	2.33	4.33	1.33	2.33	5.33	9.33	-1.67	2.33	7.33	3.33	13.33	-3.67	13.33	5.33	6.33	4.33	-4.67	2.33	5.33	13.33	3.33	4.33
1113	70.7708	12.33	-2.33	-0.33	1.67	2.67	4.67	5.67	5.67	3.67	-1.33	-0.33	-2.33	6.67	-2.33	3.67	6.67	-1.33	7.67	7.67	10.67	3.67	2.67	5.67	6.67	5.67	-0.33	5.67
1120	71.2202	17.67	4.33	-6.67	-1.67	1.33	-0.67	-4.67	7.33	-1.67	0.33	1.33	0.33	-12.67	-5.67	-2.67	-4.67	-5.67	-0.67	1.33	-0.67	-2.67	8.33	-2.67	-3.67	-2.67	-3.67	-2.67
1127	71.6698	12.67	0.33	2.33	2.33	9.33	2.33	5.33	3.33	8.33	9.33	2.33	6.33	6.33	4.33	6.33	4.33	7.33	-2.67	5.33	4.33	0.33	8.33	-0.67	5.33	5.33	11.33	7.33
1134	72.1195	16.67	-5.67	-4.67	4.33	-2.67	-2.67	0.33	1.33	4.33	11.33	2.33	7.33	-3.67	5.33	7.33	0.33	6.33	1.33	-0.67	-0.67	6.33	-2.67	5.33	-4.67	5.33	3.33	4.33
1141	72.5694	21.0	-7.0	1.0	3.0	0.0	-4.0	3.0	4.0	-4.0	3.0	1.0	-5.0	-2.0	2.0	13.0	-1.0	4.0	8.0	-8.0	12.0	-1.0	-2.0	6.0	1.0	4.0	9.0	4.0
1148	73.0193	34.67	-13.67	1.33	-2.67	0.33	-0.67	-6.67	-2.67	-4.67	3.33	8.33	-14.67	0.33	7.33	6.33	-4.67	-1.67	6.33	1.33	-3.67	-8.67	-1.67	-9.67	2.33	-11.67	-9.67	-13.67
1155	73.4695	19.0	3.0	6.0	13.0	-2.0	-2.0	5.0	5.0	8.0	-2.0	3.0	10.0	2.0	-6.0	0.0	-1.0	4.0	3.0	9.0	8.0	9.0	1.0	16.0	11.0	4.0	4.0	4.0
1162	73.9198	20.0	-8.0	1.0	-1.0	-3.0	1.0	-2.0	-1.0	6.0	-5.0	-9.0	-4.0	-1.0	1.0	-2.0	3.0	2.0	3.0	2.0	-9.0	-5.0	-3.0	-2.0	-2.0	8.0	-4.0	0.0
1169	74.3702	18.67	-7.67	0.33	0.33	1.33	2.33	5.33	9.33	0.33	3.33	6.33	2.33	5.33	1.33	-4.67	-1.67	-3.67	3.33	-1.67	1.33	-1.67	-1.67	1.33	3.33	3.33	-1.67	-0.67
1176	74.8208	26.67	8.33	2.33	3.33	12.33	7.33	3.33	12.33	-2.67	3.33	-1.67	5.33	11.33	-0.67	1.33	9.33	19.33	10.33	3.33	4.33	16.33	12.33	8.33	12.33	17.33	-0.67	7.33
1183	75.2715	41.0	1.0	6.0	-1.0	5.0	7.0	-5.0	18.0	4.0	11.0	12.0	9.0	5.0	3.0	13.0	8.0	4.0	6.0	-2.0	-1.0	18.0	8.0	9.0	18.0	0.0	7.0	10.0
1190	75.7224	24.67	-0.67	7.33	4.33	2.33	5.33	-0.67	-6.67	-0.67	-6.67	-1.67	-2.67	1.33	-2.67	2.33	-1.67	2.33	-4.67	2.33	0.33	4.33	-1.67	4.33	5.33	3.33	4.33	5.33
1197	76.1734	15.33	0.67	11.67	15.67	1.67	6.67	3.67	5.67	6.67	3.67	2.67	4.67	8.67	0.67	4.67	7.67	5.67	3.67	-1.33	3.67	10.67	4.67	6.67	7.67	9.67	4.67	2.67
1204	76.6246	13.0	-3.0	9.0	3.0	11.0	13.0	-3.0	-2.0	3.0	12.0	10.0	14.0	12.0	7.0	2.0	7.0	5.0	3.0	1.0	10.0	0.0	9.0	5.0	13.0	3.0	5.0	3.0
1211	77.076	20.0	-5.0	2.0	-8.0	-3.0	-3.0	2.0	0.0	-5.0	-4.0	-3.0	-4.0	2.0	-8.0	-4.0	0.0	-5.0	-3.0	0.0	1.0	4.0	-2.0	-1.0	3.0	3.0	-11.0	5.0
1218	77.5275	12.33	4.67	0.67	13.67	7.67	7.67	3.67	10.67	9.67	2.67	6.67	-0.33	9.67	7.67	8.67	8.67	8.67	10.67	10.67	16.67	12.67	13.67	4.67	2.67	9.67	6.67	-0.33
1225	77.9792	15.33	-1.33	-7.33	1.67	-0.33	5.67	-2.33	7.67	3.67	0.67	-0.33	-5.33	4.67	12.67	2.67	1.67	4.67	0.67	6.67	4.67	2.67	11.67	5.67	7.67	10.67	11.67	3.67
1232	78.431	14.67	3.33	0.33	2.33	4.33	7.33	2.33	4.33	6.33	-1.67	-0.67	10.33	1.33	6.33	-3.67	1.33	6.33	3.33	10.33	-1.67	11.33	3.33	5.33	4.33	11.33	3.33	10.33
1239	78.883	17.0	6.0	-2.0	8.0	4.0	0.0	6.0	-3.0	2.0	0.0	6.0	2.0	6.0	8.0	2.0	6.0	6.0	11.0	3.0	10.0	5.0	4.0	-3.0	1.0	0.0	2.0	2.0
1246	79.3352	18.33	-0.33	-0.33	-0.33	5.67	2.67	3.67	9.67	4.67	1.67	-0.33	6.67	0.67	5.67	-3.33	-1.33	1.67	-2.33	4.67	4.67	4.67	0.67	-1.33	9.67	3.67	5.67	3.67
1253	79.7876	16.67	-0.67	2.33	-3.67	3.33	6.33	1.33	4.33	16.33	-2.67	7.33	-4.67	5.33	1.33	9.33	11.33	2.33	6.33	1.33	-0.67	2.33	4.33	11.33	2.33	-2.67	11.33	6.33
1260	80.2401	14.33	20.67	7.67	4.67	2.67	7.67	5.67	0.67	-4.33	3.67	5.67	8.67	12.67	9.67	4.67	4.67	4.67	11.67	10.67	8.67	10.67	9.67	9.67	10.67	10.67	2.67	2.67
1267	80.6928	19.33	-0.33	0.67	7.67	4.67	10.67	0.67	-0.33	4.67	2.67	-4.33	-4.33	-5.33	3.67	2.67	10.67	5.67	0.67	4.67	1.67	12.67	-0.33	6.67	18.67	3.67	5.67	10.67
1274	81.1456	18.0	2.0	4.0	14.0	2.0	6.0	7.0	4.0	5.0	13.0	13.0	3.0	9.0	28.0	1.0	14.0	15.0	1.0	8.0	1.0	11.0	8.0	11.0	7.0	19.0	4.0	14.0
1281	81.5987	15.0	2.0	15.0	12.0	15.0	11.0	4.0	1.0	9.0	15.0	20.0	14.0	11.0	18.0	15.0	10.0	5.0	20.0	14.0	13.0	17.0	22.0	19.0	18.0	23.0	23.0	14.0
1288	82.0519	19.67	-3.67	19.33	17.33	17.33	10.33	22.33	18.33	11.33	7.33	4.33	18.33	8.33	26.33	14.33	22.33	14.33	16.33	25.33	9.33	21.33	4.33	6.33	3.33	8.33	10.33	13.33
1295	82.5053	12.67	32.33	54.33	35.33	39.33	35.33	47.33	54.33	51.33	27.33	32.33	23.33	21.33	25.33	26.33	31.33	37.33	23.33	33.33	22.33	21.33	34.33	25.33	23.33	21.33	25.33	30.33
1302	82.9589	22.67	53.33	87.33	103.33	105.33	84.33	83.33	77.33	78.33	69.33	52.33	56.33	56.33	49.33	57.33	47.33	41.33	40.33	31.33	37.33	44.33	39.33	33.33	33.33	32.33	33.33	33.33
1309	83.4127	16.0	103.0	212.0	209.0	194.0	196.0	209.0	183.0	148.0	133.0	139.0	111.0	96.0	114.0	114.0	85.0	92.0	67.0	74.0	79.0	80.0	64.0	68.0	76.0	79.0	57.0	87.0
1316	83.8666	19.0	90.0	271.0	257.0	238.0	254.0	208.0	193.0	168.0	140.0	142.0	156.0	133.0	129.0	130.0	116.0	102.0	106.0	92.0	95.0	94.0	97.0	94.0	87.0	99.0	93.0	84.0
1323	84.3207	21.67	84.33	250.33	235.33	204.33	192.33	163.33	161.33	131.33	111.33	125.33	116.33	105.33	124.33	108.33	96.33	97.33	98.33	81.33	66.33	79.33	76.33	74.33	72.33	68.33	89.33	76.33
1330	84.7751	22.33	50.67	106.67	93.67	108.67	79.67	92.67	79.67	59.67	82.67	66.67	82.67	74.67	49.67	57.67	42.67	52.67	44.67	31.67	49.67	39.67	42.67	52.67	46.67	38.67	45.67	37.67
1337	85.2296	29.67	23.33	38.33	18.33	15.33	32.33	26.33	23.33	22.33	27.33	26.33	37.33	15.33	23.33	28.33	12.33	14.33	15.33	14.33	11.33	16.33	24.33	3.33	14.33	7.33	19.33	10.33
1344	85.6843	24.33	4.67	8.67	11.67	10.67	8.67	13.67	5.67	16.67	3.67	-1.33	11.67	13.67	14.67	22.67	3.67	22.67	18.67	13.67	18.67	4.67	10.67	20.67	18.67	18.67	12.67	14.67
1351	86.1392	18.67	8.33	18.33	3.33	10.33	-2.67	11.33	15.33	20.33	1.33	12.33	15.33	8.33	5.33	3.33	14.33	10.33	13.33	7.33	23.33	6.33	8.33	16.33	22.33	7.33	12.33	16.33
1358	86.5943	24.0	5.0	6.0	-5.0	-2.0	-6.0	5.0	9.0	4.0	9.0	7.0	6.0	12.0	10.0	6.0	5.0	9.0	2.0	6.0	10.0	1.0	1.0	-3.0	13.0	9.0	12.0	8.0
1365	87.0496	28.0	-17.0	1.0	-6.0	-3.0	-5.0	0.0	0.0	-6.0	1.0	5.0	3.0	6.0	1.0	3.0	-7.0	0.0	-2.0	1.0	-5.0	-4.0	6.0	6.0	11.0	4.0	0.0	1.0
1372	87.5051	32.33	-8.33	-3.33	-9.33	-1.33	-4.33	6.67	-17.33	-11.33	6.67	-4.33	-5.33	-0.33	7.67	-4.33	-3.33	2.67	-5.33	1.67	7.67	-2.33	3.67	-3.33	1.67	-3.33	-6.33	4.67
1379	87.9608	23.67	-1.67	5.33	10.33	11.33	1.33	3.33	3.33	10.33	-0.67	1.33	9.33	2.33	20.33	3.33	11.33	-1.67	7.33	17.33	22.33	9.33	10.33	11.33	8.33	6.33	14.33	6.33
1386	88.4167	20.0	0.0	20.0	7.0	15.0	8.0	8.0	4.0	16.0	14.0	9.0	14.0	15.0	15.0	4.0	1.0	7.0	15.0	11.0	24.0	8.0	20.0	16.0	23.0	18.0	14.0	13.0
1393	88.8728	22.67	2.33	2.33	3.33	12.33	14.33	9.33	14.33	22.33	0.33	5.33	7.33	6.33	3.33	9.33	5.33	7.33	2.33	12.33	9.33	5.33	11.33	19.33	-1.67	8.33	9.33	6.33
1400	89.3291	23.0	3.0	3.0	6.0	15.0	9.0	19.0	3.0	15.0	13.0	0.0	12.0	-2.0	13.0	13.0	7.0	7.0	2.0	16.0	10.0	3.0	10.0	4.0	-8.0	7.0	7.0	1.0
1407	89.7857	22.33	3.67	2.67	5.67	6.67	4.67	9.67	3.67	6.67	1.67	9.67	17.67	7.67	1.67	8.67	1.67	10.67	5.67	10.67	9.67	4.67	22.67	5.67	10.67	10.67	1.67	12.67
1414	90.2424	23.33	4.67	3.67	10.67	6.67	16.67	3.67	5.67	4.67	22.67	6.67	10.67	3.67	14.67	2.67	10.67	-0.33	19.67	4.67	12.67	-2.33	8.67	14.67	7.67	12.67	10.67	9.67
1421	90.6993	24.0	2.0	2.0	0.0	-5.0	-6.0	9.0	19.0	4.0	8.0	9.0	8.0	11.0	9.0	2.0	2.0	5.0	8.0	6.0	-9.0	6.0	2.0	6.0	9.0	4.0	0.0	9.0
1428	91.1565	23.0	10.0	4.0	9.0	11.0	3.0	11.0	8.0	8.0	14.0	6.0	12.0	5.0	5.0	10.0	5.0	14.0	4.0	8.0	6.0	17.0	10.0	19.0	3.0	12.0	11.0	-3.0
1435	91.6139	26.0	1.0	1.0	2.0	10.0	8.0	14.0	3.0	11.0	4.0	13.0	8.0	7.0	4.0	10.0	11.0	-1.0	9.0	18.0	6.0	10.0	6.0	10.0	17.0	8.0	0.0	10.0
1442	92.0715	24.33	6.67	7.67	0.67	4.67	2.67	0.67	6.67	6.67	13.67	7.67	2.67	6.67	11.67	8.67	13.67	6.67	2.67	1.67	2.67	7.67	2.67	10.67	3.67	15.67	7.67	3.67
1449	92.5293	29.0	-4.0	-5.0	3.0	4.0	4.0	2.0	5.0	3.0	0.0	1.0	8.0	10.0	8.0	12.0	-5.0	4.0	4.0	3.0	5.0	3.0	5.0	-4.0	-3.0	-3.0	18.0	-7.0
1456	92.9873	29.33	-6.33	7.67	-4.33	-4.33	-7.33	5.67	-4.33	5.67	2.67	10.67	4.67	-3.33	-5.33	-1.33	3.67	1.67	0.67	6.67	4.67	-5.33	1.67	-4.33	-1.33	11.67	4.67	-5.33
1463	93.4456	23.67	13.33	4.33	2.33	6.33	7.33	-1.67	9.33	9.33	4.33	2.33	2.33	7.33	5.33	11.33	13.33	6.33	2.33	1.33	7.33	12.33	15.33	7.33	11.33	12.33	10.33	10.33
1470	93.904	29.67	4.33	-2.67	5.33	2.33	0.33	5.33	6.33	11.33	-3.67	6.33	12.33	13.33	-6.67	2.33	-2.67	3.33	0.33	5.33	14.33	6.33	0.33	6.33	3.33	10.33	8.33	-0.67
1477	94.3628	31.33	0.67	-1.33	7.67	-1.33	-4.33	-4.33	0.67	-2.33	5.67	7.67	6.67	-5.33	-1.33	8.67	7.67	4.67	1.67	-1.33	5.67	-0.33	12.67	-1.33	1.67	8.67	8.67	0.67
1484	94.8217	28.0	8.0	5.0	0.0	15.0	4.0	-3.0	7.0	8.0	7.0	9.0	8.0	8.0	9.0	9.0	-3.0	8.0	-2.0	-5.0	1.0	15.0	3.0	21.0	7.0	5.0	9.0	12.0
1491	95.2808	24.67	11.33	7.33	4.33	5.33	-6.67	-2.67	6.33	2.33	4.33	12.33	9.33	6.33	10.33	14.33	15.33	15.33	16.33	4.33	20.33	15.33	8.33	18.33	14.33	13.33	8.33	6.33
1498	95.7402	32.0	1.0	1.0	12.0	9.0	-1.0	-1.0	4.0	15.0	11.0	12.0	5.0	1.0	3.0	18.0	17.0	13.0	10.0	12.0	9.0	-5.0	8.0	13.0	8.0	-4.0	10.0	14.0
1505	96.1999	35.33	-1.33	-1.33	-3.33	5.67	-2.33	2.67	5.67	-5.33	9.67	9.67	-0.33	3.67	-0.33	0.67	13.67	8.67	27.67	11.67	11.67	13.67	15.67	5.67	4.67	21.67	14.67	10.67
1512	96.6597	33.33	-1.33	7.67	-2.33	-4.33	4.67	-7.33	3.67	0.67	20.67	13.67	26.67	12.67	9.67	13.67	10.67	20.67	5.67	25.67	15.67	26.67	24.67	17.67	36.67	14.67	9.67	25.67
1519	97.1198	26.67	-2.67	0.33	9.33	9.33	5.33	6.33	13.33	4.33	18.33	20.33	16.33	26.33	26.33	29.33	25.33	28.33	29.33	27.33	21.33	36.33	34.33	28.33	19.33	31.33	28.33	29.33
1526	97.5802	33.33	-6.33	1.67	3.67	-4.33	-15.33	0.67	2.67	5.67	16.67	19.67	5.67	23.67	26.67	5.67	23.67	26.67	25.67	23.67	28.67	26.67	17.67	24.67	21.67	31.67	17.67	27.67
1533	98.0407	25.0	14.0	11.0	-3.0	16.0	6.0	-3.0	5.0	8.0	10.0	21.0	16.0	22.0	21.0	30.0	41.0	7.0	37.0	22.0	30.0	23.0	34.0	27.0	31.0	32.0	18.0	27.0
1540	98.5016	30.67	11.33	5.33	-0.67	3.33	-2.67	-3.67	-0.67	19.33	1.33	3.33	23.33	24.33	20.33	16.33	15.33	11.33	16.33	3.33	-0.67	14.33	2.33	10.33	4.33	10.33	8.33	15.33
1547	98.9626	27.0	4.0	7.0	8.0	14.0	6.0	6.0	20.0	12.0	3.0	16.0	2.0	5.0	12.0	15.0	13.0	0.0	8.0	11.0	6.0	21.0	18.0	9.0	12.0	3.0	10.0	14.0
1554	99.4239	34.0	2.0	4.0	-6.0	-2.0	5.0	1.0	5.0	-8.0	-8.0	-1.0	2.0	-2.0	10.0	2.0	4.0	-3.0	-4.0	1.0	-2.0	3.0	8.0	2.0	-6.0	2.0	9.0	0.0
1561	99.8855	36.0	-8.0	-12.0	3.0	-14.0	-7.0	-2.0	-1.0	-2.0	-3.0	-9.0	-4.0	-4.0	-13.0	-3.0	1.0	-1.0	-13.0	-12.0	2.0	1.0	-2.0	9.0	-2.0	-9.0	-7.0	12.0
1568	100.347	27.0	19.0	13.0	11.0	-1.0	9.0	6.0	0.0	6.0	9.0	12.0	9.0	2.0	2.0	5.0	5.0	6.0	15.0	6.0	2.0	5.0	16.0	22.0	11.0	5.0	6.0	10.0
1575	100.809	30.67	-4.67	-5.67	4.33	9.33	-0.67	-3.67	7.33	6.33	11.33	9.33	2.33	8.33	-6.67	-2.67	-0.67	0.33	-5.67	7.33	7.33	-2.67	2.33	-1.67	4.33	3.33	1.33	20.33
1582	101.272	28.67	-7.67	6.33	14.33	11.33	6.33	13.33	-1.67	4.33	8.33	-2.67	-1.67	25.33	1.33	11.33	10.33	6.33	10.33	6.33	4.33	5.33	10.33	8.33	15.33	8.33	9.33	6.33
1589	101.734	31.33	3.67	4.67	11.67	1.67	2.67	2.67	-2.33	24.67	6.67	0.67	13.67	1.67	0.67	3.67	7.67	10.67	2.67	7.67	-0.33	-1.33	-2.33	12.67	9.67	10.67	-0.33	10.67
1596	102.197	33.0	10.0	12.0	12.0	-3.0	4.0	16.0	10.0	21.0	10.0	-3.0	-2.0	2.0	9.0	-2.0	8.0	-2.0	-3.0	10.0	4.0	15.0	-2.0	14.0	17.0	15.0	-8.0	4.0
1603	102.66	26.33	14.67	23.67	16.67	23.67	22.67	13.67	20.67	23.67	16.67	10.67	17.67	7.67	14.67	16.67	17.67	10.67	6.67	9.67	19.67	12.67	6.67	3.67	23.67	3.67	14.67	13.67
1610	103.123	22.67	7.33	13.33	15.33	16.33	10.33	9.33	32.33	18.33	5.33	17.33	24.33	12.33	15.33	20.33	12.33	10.33	13.33	8.33	4.33	6.33	22.33	3.33	8.33	5.33	12.33	15.33
1617	103.587	26.0	-5.0	6.0	12.0	11.0	14.0	15.0	9.0	19.0	1.0	16.0	13.0	22.0	7.0	10.0	7.0	12.0	14.0	14.0	10.0	10.0	12.0	2.0	7.0	1.0	19.0	6.0
1624	104.051	28.0	-7.0	8.0	4.0	3.0	3.0	3.0	17.0	4.0	0.0	2.0	0.0	-1.0	9.0	6.0	8.0	1.0	5.0	5.0	-5.0	7.0	0.0	6.0	4.0	11.0	1.0	4.0
1631	104.515	28.33	-6.33	2.67	-1.33	2.67	-0.33	-2.33	1.67	10.67	3.67	1.67	7.67	9.67	3.67	-1.33	15.67	3.67	5.67	-0.33	4.67	0.67	0.67	1.67	-3.33	-0.33	9.67	8.67
1638	104.979	29.0	-1.0	1.0	8.0	6.0	2.0	10.0	6.0	-1.0	4.0	0.0	10.0	2.0	1.0	7.0	6.0	-7.0	1.0	-5.0	-4.0	-5.0	1.0	3.0	1.0	-6.0	11.0	1.0
1645	105.444	24.67	1.33	3.33	5.33	2.33	8.33	0.33	4.33	-1.67	3.33	-0.67	7.33	2.33	1.33	6.33	12.33	15.33	4.33	5.33	-8.67	3.33	5.33	2.33	0.33	-3.67	2.33	0.33
1652	105.909	26.67	2.33	9.33	3.33	1.33	3.33	12.33	-5.67	6.33	3.33	-0.67	0.33	9.33	3.33	-4.67	-1.67	2.33	6.33	4.33	-2.67	1.33	3.33	0.33	5.33	3.33	13.33	9.33
1659	106.374	17.0	0.0	13.0	12.0	5.0	9.0	22.0	7.0	11.0	13.0	10.0	13.0	6.0	14.0	21.0	8.0	10.0	16.0	23.0	22.0	12.0	10.0	1.0	8.0	3.0	12.0	9.0
1666	106.84	27.33	0.67	1.67	0.67	-4.33	-3.33	11.67	8.67	7.67	2.67	7.67	3.67	9.67	-4.33	0.67	-5.33	-0.33	2.67	4.67	8.67	-1.33	0.67	-6.33	-12.33	-7.33	-8.33	1.67
1673	107.305	27.67	-1.67	-4.67	-8.67	5.33	-2.67	-1.67	-5.67	-6.67	-2.67	-2.67	2.33	1.33	-2.67	-5.67	2.33	-6.67	2.33	-2.67	-7.67	-4.67	5.33	2.33	-4.67	1.33	2.33	-3.67
1680	107.771	27.67	-2.67	2.33	-4.67	-5.67	-5.67	-0.67	0.33	6.33	-1.67	2.33	0.33	4.33	2.33	1.33	-7.67	-1.67	-0.67	-4.67	7.33	-7.67	-0.67	6.33	-5.67	-1.67	2.33	1.33
1687	108.238	25.33	3.67	-3.33	-3.33	3.67	5.67	2.67	-0.33	1.67	-6.33	-1.33	5.67	-1.33	-4.33	-3.33	5.67	-4.33	-9.33	6.67	-1.33	6.67	4.67	1.67	1.67	6.67	0.67	3.67
1694	108.704	26.67	4.33	-1.67	-3.67	-6.67	2.33	-3.67	-0.67	-3.67	-3.67	-10.67	7.33	-1.67	-2.67	1.33	-1.67	0.33	4.33	-0.67	-2.67	-1.67	-11.67	-1.67	-0.67	-1.67	-9.67	-0.67
1701	109.171	20.67	-1.67	8.33	1.33	0.33	-1.67	0.33	0.33	-3.67	1.33	8.33	6.33	7.33	2.33	11.33	-3.67	7.33	4.33	9.33	1.33	-0.67	-1.67	3.33	3.33	6.33	7.33	4.33
1708	109.638	24.67	7.33	-6.67	-7.67	6.33	-1.67	-7.67	8.33	9.33	-1.67	0.33	-6.67	-8.67	-1.67	8.33	-4.67	3.33	1.33	-0.67	-1.67	1.33	6.33	-3.67	1.33	1.33	0.33	-6.67
1715	110.106	21.33	0.67	1.67	3.67	2.67	8.67	-8.33	2.67	4.67	13.67	-4.33	-6.33	5.67	-3.33	-0.33	-5.33	0.67	4.67	6.67	1.67	-0.33	0.67	-0.33	-1.33	2.67	-4.33	-6.33
1722	110.574	18.33	3.67	4.67	7.67	8.67	3.67	8.67	11.67	2.67	1.67	5.67	9.67	10.67	2.67	2.67	6.67	9.67	7.67	11.67	-0.33	0.67	2.67	-0.33	5.67	4.67	-2.33	8.67
1729	111.042	22.33	-2.33	7.67	3.67	-1.33	8.67	2.67	6.67	-2.33	1.67	-3.33	5.67	3.67	3.67	2.67	2.67	2.67	2.67	1.67	-4.33	4.67	9.67	-9.33	3.67	7.67	3.67	-1.33
1736	111.51	20.33	1.67	11.67	3.67	7.67	8.67	4.67	5.67	9.67	-1.33	-1.33	6.67	6.67	2.67	16.67	5.67	9.67	3.67	11.67	12.67	3.67	6.67	1.67	8.67	3.67	6.67	8.67
1743	111.979	18.33	6.67	16.67	15.67	11.67	18.67	7.67	17.67	7.67	13.67	8.67	5.67	2.67	1.67	9.67	0.67	-3.33	4.67	8.67	8.67	1.67	3.67	15.67	7.67	18.67	6.67	13.67
1750	112.447	24.67	-7.67	4.33	7.33	-1.67	0.33	3.33	3.33	-1.67	3.33	5.33	6.33	5.33	-3.67	0.33	-4.67	2.33	0.33	6.33	3.33	-3.67	-3.67	5.33	7.33	-4.67	2.33	-0.67
1757	112.917	23.67	-4.67	14.33	-0.67	14.33	13.33	3.33	1.33	2.33	2.33	6.33	-0.67	-6.67	0.33	-0.67	-1.67	8.33	-5.67	0.33	6.33	2.33	2.33	-0.67	-6.67	-1.67	-3.67	1.33
1764	113.386	14.33	3.67	10.67	10.67	13.67	4.67	5.67	14.67	2.67	2.67	-0.33	5.67	10.67	0.67	14.67	6.67	5.67	6.67	2.67	16.67	3.67	11.67	5.67	8.67	4.67	17.67	15.67
1771	113.856	18.0	-1.0	7.0	-1.0	-1.0	11.0	2.0	10.0	-2.0	8.0	-3.0	-3.0	8.0	2.0	5.0	-2.0	17.0	-1.0	0.0	3.0	2.0	-4.0	4.0	-1.0	7.0	6.0	7.0
1778	114.326	15.33	-0.33	8.67	3.67	-2.33	5.67	1.67	0.67	13.67	1.67	4.67	7.67	10.67	2.67	11.67	0.67	1.67	2.67	10.67	5.67	-3.33	6.67	4.67	5.67	4.67	1.67	9.67
1785	114.796	18.67	5.33	-7.67	1.33	-5.67	-1.67	-2.67	2.33	1.33	-0.67	5.33	0.33	-0.67	-0.67	-2.67	-2.67	5.33	1.33	0.33	2.33	3.33	-5.67	-0.67	-2.67	6.33	7.33	2.33
1792	115.267	15.67	-5.67	-2.67	1.33	-4.67	6.33	9.33	6.33	8.33	-0.67	-0.67	2.33	1.33	3.33	10.33	10.33	-1.67	4.33	3.33	-1.67	2.33	4.33	10.33	0.33	0.33	1.33	2.33
1799	115.738	14.33	5.67	0.67	12.67	4.67	5.67	4.67	15.67	8.67	5.67	2.67	5.67	4.67	10.67	-0.33	8.67	-1.33	0.67	10.67	7.67	3.67	7.67	-0.33	0.67	5.67	-2.33	4.67
1806	116.209	17.67	-0.67	-1.67	2.33	1.33	-1.67	0.33	0.33	-4.67	7.33	0.33	1.33	-4.67	1.33	-5.67	0.33	-2.67	0.33	6.33	-0.67	5.33	-0.67	0.33	-5.67	3.33	6.33	-3.67
1813	116.681	10.33	8.67	-1.33	4.67	5.67	9.67	8.67	3.67	8.67	10.67	13.67	8.67	4.67	12.67	3.67	13.67	18.67	13.67	5.67	2.67	9.67	10.67	14.67	3.67	10.67	5.67	10.67
1820	117.153	14.67	0.33	1.33	0.33	-3.67	2.33	1.33	2.33	-0.67	4.33	-4.67	10.33	2.33	-1.67	4.33	5.33	5.33	0.33	1.33	2.33	5.33	0.33	-1.67	7.33	0.33	8.33	7.33
1827	117.625	13.67	-6.67	5.33	3.33	9.33	-2.67	1.33	3.33	0.33	2.33	5.33	9.33	-1.67	6.33	7.33	5.33	6.33	2.33	3.33	8.33	4.33	5.33	3.33	-4.67	8.33	5.33	1.33
1834	118.098	13.67	-0.67	1.33	5.33	5.33	2.33	-0.67	-1.67	4.33	-0.67	0.33	0.33	2.33	1.33	6.33	7.33	1.33	-3.67	2.33	1.33	5.33	6.33	6.33	1.33	6.33	4.33	1.33
1841	118.571	17.67	-3.67	-4.67	-3.67	-4.67	-4.67	6.33	-10.67	-3.67	-0.67	1.33	-2.67	-6.67	-0.67	-3.67	-2.67	-5.67	1.33	3.33	-4.67	-8.67	0.33	-1.67	-1.67	-2.67	1.33	-1.67
1848	119.044	13.0	1.0	-3.0	-5.0	-5.0	6.0	2.0	-3.0	4.0	3.0	8.0	10.0	-2.0	-3.0	-2.0	1.0	0.0	3.0	8.0	-4.0	2.0	-2.0	7.0	-3.0	2.0	0.0	7.0
1855	119.518	12.67	1.33	8.33	4.33	3.33	3.33	0.33	6.33	7.33	-1.67	-3.67	-5.67	2.33	7.33	-1.67	-4.67	-0.67	1.33	4.33	5.33	2.33	5.33	-2.67	5.33	8.33	8.33	-0.67
1862	119.991	13.67	-0.67	-2.67	-2.67	0.33	5.33	6.33	0.33	0.33	3.33	3.33	5.33	3.33	1.33	1.33	5.33	3.33	3.33	7.33	-3.67	2.33	-5.67	2.33	-0.67	-4.67	3.33	4.33
1869	120.466	16.0	-6.0	0.0	-1.0	-1.0	2.0	1.0	-12.0	-8.0	-6.0	-2.0	7.0	1.0	6.0	1.0	-2.0	1.0	1.0	-9.0	-6.0	1.0	3.0	-14.0	-6.0	4.0	6.0	-7.0
1876	120.94	13.0	0.0	4.0	2.0	4.0	2.0	-4.0	-2.0	3.0	9.0	-2.0	2.0	-1.0	-4.0	1.0	-1.0	-1.0	4.0	4.0	0.0	0.0	1.0	6.0	3.0	-1.0	1.0	-1.0
1883	121.415	17.0	2.0	2.0	5.0	0.0	-4.0	0.0	-1.0	-4.0	-3.0	-1.0	2.0	-1.0	-7.0	1.0	3.0	-8.0	-3.0	-9.0	-1.0	-11.0	-5.0	-1.0	-7.0	-4.0	5.0	-6.0
1890	121.89	10.0	4.0	10.0	16.0	7.0	4.0	3.0	1.0	-1.0	1.0	10.0	9.0	1.0	9.0	7.0	0.0	0.0	0.0	3.0	4.0	-1.0	12.0	12.0	11.0	3.0	4.0	-2.0
1897	122.366	15.33	2.67	-1.33	-1.33	2.67	2.67	-1.33	2.67	-1.33	-5.33	3.67	-4.33	0.67	-4.33	1.67	0.67	-0.33	-0.33	-1.33	1.67	-5.33	-0.33	-3.33	-0.33	0.67	-0.33	0.67
1904	122.841	14.0	-2.0	-2.0	5.0	7.0	-2.0	-1.0	7.0	1.0	6.0	-2.0	-2.0	-2.0	1.0	-4.0	-2.0	3.0	4.0	0.0	0.0	2.0	3.0	-2.0	6.0	0.0	4.0	2.0
1911	123.318	12.0	-1.0	-1.0	5.0	0.0	8.0	3.0	1.0	6.0	0.0	1.0	3.0	3.0	0.0	4.0	3.0	-4.0	6.0	0.0	10.0	1.0	4.0	5.0	6.0	0.0	1.0	12.0
1918	123.794	9.33	0.67	8.67	6.67	0.67	12.67	10.67	6.67	1.67	10.67	4.67	8.67	12.67	2.67	7.67	11.67	9.67	6.67	4.67	3.67	5.67	5.67	8.67	3.67	7.67	4.67	1.67
1925	124.271	10.67	-0.67	3.33	0.33	-0.67	3.33	-0.67	2.33	-0.67	4.33	3.33	1.33	-4.67	0.33	6.33	0.33	-2.67	2.33	2.33	4.33	6.33	-2.67	-0.67	5.33	6.33	2.33	3.33
1932	124.748	13.0	1.0	-5.0	-5.0	6.0	-6.0	0.0	-3.0	-5.0	-1.0	3.0	-2.0	-2.0	-2.0	6.0	-2.0	-4.0	-2.0	1.0	-2.0	-7.0	-3.0	1.0	3.0	-2.0	-1.0	10.0
1939	125.226	10.33	-4.33	4.67	4.67	2.67	-5.33	-2.33	-2.33	4.67	-2.33	-1.33	-0.33	-1.33	-2.33	-3.33	-6.33	3.67	1.67	1.67	-0.33	5.67	-2.33	-0.33	-1.33	1.67	5.67	0.67
1946	125.704	9.33	0.67	-2.33	-4.33	7.67	3.67	3.67	3.67	-1.33	-5.33	3.67	-1.33	3.67	0.67	3.67	2.67	6.67	0.67	-0.33	3.67	-3.33	0.67	4.67	-1.33	6.67	-4.33	4.67
1953	126.182	7.67	1.33	6.33	0.33	3.33	-0.67	2.33	2.33	6.33	-2.67	0.33	7.33	7.33	3.33	6.33	4.33	6.33	-0.67	6.33	-3.67	1.33	3.33	1.33	8.33	14.33	1.33	1.33
1960	126.66	9.0	-3.0	1.0	-3.0	4.0	6.0	8.0	1.0	3.0	3.0	2.0	-1.0	0.0	4.0	0.0	0.0	3.0	6.0	-5.0	0.0	-3.0	1.0	3.0	5.0	-1.0	5.0	2.0
1967	127.139	9.0	9.0	-1.0	4.0	6.0	3.0	5.0	9.0	-1.0	-3.0	4.0	3.0	0.0	5.0	0.0	4.0	4.0	3.0	4.0	2.0	0.0	1.0	1.0	5.0	0.0	7.0	-2.0
1974	127.619	11.33	2.67	-4.33	2.67	-4.33	-1.33	-2.33	5.67	-3.33	10.67	-4.33	-6.33	4.67	-0.33	-2.33	-2.33	-0.33	-1.33	-3.33	-0.33	-4.33	-7.33	-3.33	2.67	-3.33	-3.33	-0.33
1981	128.098	7.0	4.0	8.0	1.0	-1.0	7.0	1.0	4.0	4.0	1.0	2.0	5.0	2.0	5.0	0.0	6.0	2.0	5.0	1.0	8.0	1.0	6.0	1.0	10.0	8.0	3.0	5.0
1988	128.578	8.33	0.67	-0.33	-2.33	0.67	6.67	3.67	1.67	5.67	0.67	0.67	-0.33	0.67	5.67	3.67	4.67	-1.33	1.67	-0.33	-0.33	2.67	0.67	-0.33	-0.33	1.67	-4.33	6.67
1995	129.059	10.67	-1.67	-6.67	-1.67	1.33	-3.67	-1.67	-0.67	3.33	0.33	3.33	-1.67	6.33	4.33	3.33	-4.67	1.33	1.33	-3.67	4.33	-0.67	7.33	2.33	1.33	-4.67	-3.67	-1.67
2002	129.539	10.0	3.0	-1.0	-4.0	-4.0	7.0	-5.0	0.0	-1.0	-1.0	-1.0	4.0	1.0	0.0	-1.0	1.0	0.0	-2.0	7.0	4.0	0.0	2.0	-5.0	-2.0	0.0	-6.0	0.0
2009	130.02	6.33	-1.33	0.67	-0.33	1.67	5.67	5.67	3.67	2.67	3.67	8.67	2.67	5.67	4.67	7.67	6.67	-2.33	6.67	4.67	3.67	0.67	2.67	0.67	8.67	1.67	9.67	2.67
2016	130.502	12.33	1.67	-2.33	-3.33	-2.33	-4.33	-1.33	-7.33	-7.33	0.67	-7.33	-0.33	-3.33	-5.33	-0.33	-3.33	-1.33	-0.33	-1.33	-1.33	-2.33	-5.33	-6.33	-0.33	1.67	-2.33	-7.33
2023	130.984	8.33	1.67	-0.33	0.67	0.67	-2.33	0.67	-0.33	-0.33	-5.33	-1.33	6.67	0.67	-1.33	0.67	-0.33	-0.33	1.67	2.67	0.67	2.67	0.67	-2.33	2.67	-0.33	6.67	0.67
2030	131.466	10.67	-2.67	-2.67	8.33	1.33	-7.67	0.33	-2.67	-2.67	-5.67	1.33	-0.67	-2.67	7.33	-2.67	-4.67	1.33	-4.67	-4.67	-1.67	-4.67	-3.67	-7.67	-2.67	-0.67	3.33	1.33
2037	131.948	7.33	-2.33	0.67	4.67	-0.33	0.67	4.67	3.67	3.67	-2.33	2.67	4.67	1.67	3.67	8.67	-1.33	1.67	0.67	2.67	1.67	0.67	1.67	-2.33	0.67	2.67	1.67	0.67
2044	132.431	8.0	8.0	-3.0	-5.0	-2.0	-2.0	-3.0	3.0	-4.0	-4.0	-1.0	5.0	-1.0	5.0	6.0	5.0	0.0	0.0	2.0	3.0	0.0	2.0	3.0	2.0	2.0	4.0	5.0
2047	132.638	5.33	8.67	2.67	3.67	2.67	2.67	5.67	3.67	-0.33	5.67	7.67	0.67	3.67	5.67	-0.33	7.67	0.67	0.67	5.67	4.67	3.67	1.67	3.67	2.67	11.67	7.67	7.67