File: EDX Back Ups and Old Files/EDX Processed Data/.ipynb_checkpoints/High pH BL 25C 14d-checkpoint.txt
Name: High pH BL 25C 14d
Number of Scans: 29
Positions: [-13.0, -12.75, -12.5, -12.25, -12.0, -11.75, -11.5, -11.25, -11.0, -10.75, -10.5, -10.25, -10.0, -9.75, -9.5, -9.25, -9.0, -8.75, -8.5, -8.25, -8.0, -7.75, -7.5, -7.25, -7.0, -6.75, -6.5, -6.25, -6.0]
Points per Scan: 2048
Sample Edge: 3
Scans Off Sample: [0, 1, 2]
Conversion Features: [(275, 17444.3), (309, 19608.3), (913, 57981.7), (934, 59318.24), (1058, 67244.3)]
Degree of Fit: 3
Fit Coeffecients: [ 8.59183e-07 -0.001482  64.3003 -144.207]
pH: High
Steel Fiber: False
Aging Temp.: 25
Aging Atm.: 100% CO2
Aging Humidity: None
Aging Time: 14

*********
#Bins	Energy [keV]	Avg. Background	-12.25 [mm]	-12.0 [mm]	-11.75 [mm]	-11.5 [mm]	-11.25 [mm]	-11.0 [mm]	-10.75 [mm]	-10.5 [mm]	-10.25 [mm]	-10.0 [mm]	-9.75 [mm]	-9.5 [mm]	-9.25 [mm]	-9.0 [mm]	-8.75 [mm]	-8.5 [mm]	-8.25 [mm]	-8.0 [mm]	-7.75 [mm]	-7.5 [mm]	-7.25 [mm]	-7.0 [mm]	-6.75 [mm]	-6.5 [mm]	-6.25 [mm]	-6.0 [mm]
0	-0.144	0.0	0.0	0.0	0.0	0.0	0.0	0.0	0.0	0.0	0.0	0.0	0.0	0.0	0.0	0.0	0.0	0.0	0.0	0.0	0.0	0.0	0.0	0.0	0.0	0.0	0.0	0.0
7	0.306	1820.67	89.33	63.33	115.33	-4.67	38.33	42.33	90.33	37.33	58.33	-18.67	-1.67	11.33	31.33	154.33	109.33	9.33	73.33	7.33	25.33	108.33	31.33	2.33	-38.67	43.33	32.33	9.33
14	0.756	1050.67	119.33	3.33	75.33	0.33	34.33	87.33	53.33	19.33	53.33	-25.67	-4.67	17.33	121.33	82.33	51.33	3.33	77.33	37.33	33.33	37.33	-27.67	-14.67	10.33	49.33	52.33	-11.67
21	1.205	257.0	-26.0	0.0	3.0	-24.0	-19.0	7.0	-3.0	-5.0	-23.0	2.0	-40.0	10.0	-8.0	15.0	-18.0	-8.0	13.0	3.0	-17.0	-25.0	4.0	14.0	-34.0	-28.0	-3.0	-2.0
28	1.655	46.0	-6.0	-13.0	-8.0	-4.0	-1.0	-3.0	-2.0	-14.0	-13.0	-6.0	2.0	-10.0	-2.0	-20.0	10.0	-9.0	-4.0	-15.0	-3.0	5.0	-14.0	8.0	-11.0	-2.0	-7.0	5.0
35	2.105	6.33	0.67	0.67	-3.33	4.67	-4.33	1.67	-1.33	-4.33	-1.33	-0.33	-1.33	-3.33	-1.33	-3.33	-5.33	-3.33	-0.33	-2.33	-4.33	0.67	-3.33	-0.33	0.67	1.67	-2.33	-1.33
42	2.554	0.0	2.0	1.0	0.0	1.0	0.0	1.0	1.0	0.0	0.0	1.0	0.0	1.0	1.0	0.0	0.0	3.0	0.0	0.0	1.0	1.0	0.0	0.0	0.0	1.0	0.0	1.0
49	3.003	0.0	0.0	0.0	0.0	0.0	0.0	0.0	0.0	1.0	1.0	1.0	0.0	0.0	3.0	0.0	0.0	0.0	1.0	0.0	0.0	2.0	0.0	2.0	0.0	0.0	0.0	0.0
56	3.452	0.0	0.0	0.0	0.0	1.0	0.0	1.0	0.0	0.0	0.0	1.0	1.0	1.0	0.0	0.0	0.0	0.0	0.0	0.0	0.0	0.0	1.0	0.0	0.0	1.0	0.0	1.0
63	3.901	0.33	1.67	-0.33	0.67	-0.33	0.67	-0.33	-0.33	-0.33	0.67	0.67	-0.33	-0.33	-0.33	-0.33	-0.33	-0.33	0.67	0.67	-0.33	-0.33	-0.33	1.67	0.67	-0.33	1.67	-0.33
70	4.35	0.0	0.0	0.0	0.0	2.0	0.0	0.0	2.0	1.0	0.0	1.0	0.0	0.0	0.0	0.0	2.0	0.0	0.0	0.0	1.0	0.0	0.0	0.0	0.0	1.0	1.0	2.0
77	4.799	0.33	0.67	-0.33	-0.33	-0.33	-0.33	0.67	-0.33	-0.33	-0.33	0.67	0.67	-0.33	-0.33	-0.33	0.67	-0.33	-0.33	-0.33	-0.33	0.67	-0.33	-0.33	-0.33	-0.33	1.67	-0.33
84	5.247	0.33	0.67	-0.33	-0.33	1.67	-0.33	-0.33	-0.33	-0.33	1.67	0.67	-0.33	-0.33	-0.33	-0.33	-0.33	-0.33	0.67	0.67	-0.33	0.67	-0.33	-0.33	-0.33	-0.33	0.67	-0.33
91	5.695	0.67	0.33	-0.67	0.33	-0.67	-0.67	-0.67	-0.67	0.33	0.33	-0.67	0.33	0.33	-0.67	0.33	-0.67	0.33	0.33	-0.67	-0.67	1.33	0.33	2.33	-0.67	0.33	0.33	-0.67
98	6.144	1.0	0.0	1.0	0.0	-1.0	0.0	2.0	0.0	-1.0	-1.0	0.0	1.0	-1.0	0.0	0.0	2.0	1.0	-1.0	-1.0	-1.0	-1.0	3.0	2.0	-1.0	0.0	-1.0	-1.0
105	6.592	1.0	-1.0	1.0	1.0	-1.0	3.0	3.0	-1.0	1.0	3.0	-1.0	2.0	-1.0	1.0	1.0	0.0	2.0	0.0	0.0	-1.0	1.0	-1.0	2.0	1.0	2.0	-1.0	1.0
112	7.04	3.67	0.33	2.33	1.33	-0.67	-2.67	-1.67	-0.67	-2.67	-0.67	-1.67	-2.67	-1.67	-1.67	-0.67	1.33	-0.67	-1.67	-0.67	-2.67	2.33	-0.67	-1.67	-2.67	-1.67	-2.67	1.33
119	7.488	2.67	-0.67	3.33	1.33	-2.67	-1.67	0.33	0.33	3.33	1.33	2.33	3.33	-0.67	1.33	2.33	3.33	1.33	-0.67	4.33	0.33	-0.67	3.33	3.33	-1.67	2.33	1.33	-0.67
126	7.936	4.0	0.0	0.0	-1.0	0.0	-1.0	1.0	0.0	2.0	11.0	3.0	1.0	-1.0	0.0	5.0	3.0	2.0	1.0	1.0	3.0	4.0	0.0	4.0	1.0	0.0	2.0	0.0
133	8.384	6.67	6.33	1.33	-1.67	1.33	1.33	-1.67	-0.67	-3.67	4.33	5.33	6.33	-2.67	-0.67	1.33	1.33	2.33	4.33	2.33	6.33	0.33	0.33	5.33	4.33	5.33	1.33	4.33
140	8.831	9.33	-0.33	-5.33	-1.33	-4.33	-0.33	1.67	-3.33	-0.33	3.67	-4.33	-2.33	-0.33	-1.33	-0.33	-1.33	-0.33	-3.33	2.67	0.67	3.67	-2.33	3.67	2.67	2.67	-1.33	-1.33
147	9.279	7.0	0.0	0.0	5.0	1.0	0.0	6.0	1.0	1.0	-1.0	2.0	0.0	1.0	4.0	7.0	0.0	5.0	3.0	2.0	4.0	2.0	0.0	5.0	10.0	2.0	4.0	3.0
154	9.726	14.33	-1.33	5.67	-5.33	-3.33	-2.33	-8.33	-8.33	-2.33	-7.33	-2.33	-1.33	2.67	-4.33	-2.33	-8.33	-2.33	-4.33	-6.33	-0.33	-6.33	1.67	5.67	-5.33	3.67	-6.33	-2.33
161	10.173	11.33	-2.33	0.67	-0.33	-1.33	0.67	1.67	-3.33	1.67	2.67	-2.33	-2.33	-4.33	-7.33	0.67	-1.33	-1.33	-0.33	-2.33	3.67	7.67	2.67	0.67	-0.33	0.67	-3.33	1.67
168	10.62	5.0	0.0	11.0	10.0	3.0	7.0	6.0	5.0	3.0	15.0	3.0	10.0	6.0	6.0	9.0	6.0	2.0	14.0	11.0	8.0	5.0	2.0	8.0	3.0	5.0	16.0	12.0
175	11.068	10.67	-0.67	-1.67	0.33	6.33	5.33	0.33	-5.67	0.33	3.33	2.33	1.33	-5.67	-2.67	9.33	5.33	4.33	5.33	3.33	2.33	5.33	3.33	3.33	0.33	1.33	1.33	0.33
182	11.515	13.33	-3.33	2.67	-3.33	0.67	-2.33	0.67	0.67	-5.33	-0.33	-2.33	2.67	-2.33	1.67	0.67	-5.33	-0.33	0.67	-2.33	-0.33	3.67	0.67	-3.33	-2.33	8.67	-1.33	6.67
189	11.961	7.67	7.33	0.33	4.33	-0.67	-1.67	7.33	5.33	4.33	1.33	10.33	16.33	6.33	0.33	7.33	5.33	1.33	8.33	0.33	3.33	7.33	3.33	6.33	10.33	4.33	5.33	3.33
196	12.408	13.33	3.67	0.67	-2.33	-3.33	-2.33	-3.33	4.67	-3.33	-3.33	-6.33	-1.33	0.67	-2.33	-1.33	-1.33	-0.33	1.67	-3.33	3.67	-1.33	-3.33	1.67	-0.33	-1.33	3.67	9.67
203	12.855	9.33	1.67	2.67	3.67	0.67	-1.33	2.67	4.67	4.67	7.67	2.67	2.67	6.67	-0.33	5.67	-1.33	4.67	8.67	9.67	6.67	4.67	4.67	0.67	1.67	-2.33	0.67	6.67
210	13.301	10.33	-1.33	-0.33	2.67	-1.33	-1.33	-4.33	-1.33	-1.33	-2.33	7.67	-1.33	2.67	-0.33	-2.33	-1.33	0.67	-1.33	4.67	0.67	-1.33	-1.33	1.67	2.67	6.67	-1.33	-1.33
217	13.748	10.67	7.33	3.33	-3.67	-2.67	9.33	2.33	-3.67	1.33	-0.67	7.33	-0.67	-3.67	-0.67	0.33	0.33	1.33	0.33	0.33	-1.67	4.33	1.33	3.33	3.33	-0.67	3.33	4.33
224	14.194	12.0	-4.0	-3.0	0.0	1.0	-2.0	4.0	4.0	-2.0	0.0	2.0	-1.0	4.0	9.0	3.0	2.0	7.0	-3.0	0.0	10.0	-2.0	1.0	3.0	-1.0	3.0	2.0	0.0
231	14.641	11.0	-3.0	-2.0	8.0	4.0	-2.0	-5.0	-3.0	-1.0	3.0	1.0	1.0	0.0	0.0	-3.0	2.0	0.0	1.0	1.0	-2.0	1.0	-3.0	6.0	-2.0	2.0	3.0	-2.0
238	15.087	9.33	7.67	0.67	8.67	13.67	6.67	4.67	0.67	1.67	9.67	2.67	4.67	-1.33	0.67	2.67	2.67	5.67	-0.33	7.67	7.67	4.67	0.67	5.67	12.67	1.67	0.67	0.67
245	15.533	9.67	4.33	-0.67	2.33	-1.67	5.33	7.33	9.33	2.33	-0.67	-0.67	-4.67	1.33	0.33	-1.67	1.33	3.33	7.33	3.33	-2.67	5.33	0.33	2.33	-1.67	7.33	3.33	0.33
252	15.979	6.33	0.67	7.67	2.67	-0.33	4.67	6.67	6.67	8.67	9.67	6.67	2.67	8.67	6.67	3.67	-0.33	8.67	0.67	2.67	7.67	6.67	2.67	7.67	7.67	1.67	7.67	6.67
259	16.425	9.67	-1.67	2.33	6.33	-2.67	7.33	0.33	-0.67	-1.67	1.33	-1.67	5.33	1.33	5.33	2.33	3.33	3.33	-2.67	3.33	1.33	2.33	3.33	9.33	7.33	-0.67	4.33	2.33
266	16.871	7.67	4.33	1.33	13.33	6.33	8.33	6.33	4.33	7.33	12.33	1.33	4.33	0.33	4.33	3.33	-0.67	0.33	4.33	2.33	2.33	3.33	3.33	11.33	-0.67	8.33	3.33	3.33
273	17.317	11.33	3.67	-0.33	7.67	0.67	5.67	8.67	-0.33	-4.33	1.67	-3.33	-0.33	0.67	-2.33	-3.33	-0.33	-4.33	2.67	2.67	0.67	-2.33	-1.33	7.67	-2.33	6.67	3.67	5.67
280	17.763	10.67	1.33	3.33	1.33	2.33	7.33	-1.67	-6.67	10.33	5.33	6.33	-0.67	4.33	4.33	-3.67	1.33	0.33	1.33	1.33	4.33	0.33	-5.67	-0.67	-1.67	4.33	-5.67	9.33
287	18.208	9.67	-2.67	1.33	-2.67	6.33	0.33	0.33	6.33	7.33	0.33	4.33	-3.67	9.33	0.33	2.33	2.33	3.33	6.33	5.33	3.33	4.33	6.33	5.33	6.33	2.33	3.33	2.33
294	18.654	10.0	9.0	0.0	-1.0	0.0	2.0	1.0	-2.0	-1.0	3.0	4.0	9.0	5.0	3.0	-3.0	6.0	7.0	3.0	-2.0	4.0	1.0	5.0	-8.0	2.0	0.0	3.0	2.0
301	19.099	9.67	-0.67	2.33	-0.67	2.33	3.33	0.33	10.33	6.33	0.33	-0.67	2.33	3.33	10.33	1.33	-2.67	-0.67	2.33	9.33	0.33	1.33	-0.67	5.33	0.33	2.33	3.33	1.33
308	19.545	9.67	-6.67	-0.67	-1.67	0.33	1.33	0.33	6.33	4.33	4.33	4.33	5.33	-0.67	1.33	2.33	2.33	-1.67	-0.67	2.33	0.33	2.33	3.33	2.33	5.33	2.33	2.33	0.33
315	19.99	10.33	-2.33	-1.33	-0.33	-0.33	9.67	3.67	7.67	5.67	4.67	-3.33	-0.33	6.67	-3.33	5.67	1.67	-1.33	-2.33	1.67	2.67	0.67	3.67	-3.33	-3.33	9.67	-3.33	7.67
322	20.436	5.33	1.67	5.67	1.67	4.67	1.67	4.67	5.67	6.67	9.67	10.67	5.67	8.67	4.67	3.67	6.67	4.67	9.67	0.67	6.67	8.67	5.67	6.67	4.67	8.67	3.67	5.67
329	20.881	12.67	3.33	-3.67	-4.67	-1.67	-4.67	5.33	-1.67	-1.67	2.33	-5.67	-1.67	-5.67	-0.67	4.33	-6.67	4.33	0.33	-1.67	-2.67	1.33	-3.67	1.33	-3.67	3.33	-5.67	-2.67
336	21.326	8.33	1.67	4.67	5.67	0.67	5.67	4.67	-3.33	3.67	0.67	-0.33	0.67	3.67	2.67	8.67	7.67	4.67	0.67	-0.33	13.67	8.67	-0.33	2.67	6.67	3.67	4.67	8.67
343	21.771	10.33	-1.33	1.67	1.67	6.67	-1.33	-3.33	0.67	-2.33	4.67	-1.33	2.67	0.67	-2.33	-3.33	-4.33	3.67	-0.33	1.67	3.67	-3.33	7.67	-2.33	0.67	-3.33	1.67	3.67
350	22.216	12.0	0.0	-1.0	5.0	-1.0	0.0	-2.0	4.0	-7.0	2.0	-6.0	5.0	-1.0	2.0	6.0	-2.0	-3.0	-2.0	-3.0	0.0	2.0	-1.0	-2.0	2.0	-1.0	-1.0	-1.0
357	22.661	9.67	4.33	-0.67	-1.67	-2.67	0.33	0.33	2.33	3.33	8.33	-1.67	-1.67	-2.67	-1.67	4.33	-0.67	-2.67	0.33	2.33	2.33	5.33	1.33	2.33	4.33	-3.67	2.33	-1.67
364	23.106	10.33	2.67	-0.33	-4.33	-0.33	-0.33	-4.33	-3.33	1.67	-0.33	-6.33	3.67	-4.33	3.67	-0.33	5.67	6.67	0.67	-0.33	6.67	-1.33	3.67	1.67	3.67	-2.33	1.67	-0.33
371	23.551	8.0	2.0	6.0	0.0	2.0	-1.0	0.0	2.0	1.0	5.0	2.0	4.0	5.0	4.0	1.0	5.0	0.0	8.0	3.0	3.0	4.0	-1.0	3.0	1.0	6.0	1.0	-3.0
378	23.996	7.33	4.67	-2.33	0.67	0.67	2.67	1.67	0.67	2.67	-0.33	-1.33	5.67	0.67	3.67	-1.33	3.67	0.67	3.67	3.67	0.67	9.67	1.67	-3.33	7.67	1.67	6.67	4.67
385	24.441	7.67	12.33	2.33	-0.67	0.33	8.33	2.33	-0.67	5.33	2.33	2.33	4.33	1.33	3.33	2.33	9.33	3.33	-0.67	1.33	11.33	2.33	5.33	6.33	4.33	4.33	5.33	3.33
392	24.886	6.0	6.0	0.0	3.0	3.0	4.0	1.0	2.0	2.0	3.0	0.0	0.0	0.0	6.0	4.0	1.0	1.0	4.0	10.0	7.0	9.0	9.0	11.0	5.0	1.0	9.0	4.0
399	25.33	7.0	2.0	0.0	3.0	-2.0	-3.0	1.0	2.0	-2.0	-1.0	7.0	12.0	1.0	6.0	2.0	0.0	4.0	9.0	8.0	3.0	2.0	0.0	3.0	5.0	0.0	2.0	6.0
406	25.775	9.67	-1.67	-2.67	0.33	1.33	-0.67	-5.67	2.33	1.33	-4.67	1.33	-1.67	-2.67	3.33	-5.67	1.33	2.33	0.33	-0.67	-6.67	2.33	1.33	4.33	0.33	-2.67	-2.67	-4.67
413	26.22	7.67	2.33	2.33	2.33	2.33	4.33	-2.67	0.33	2.33	9.33	-0.67	2.33	0.33	3.33	1.33	2.33	3.33	-1.67	1.33	-0.67	-1.67	1.33	1.33	1.33	0.33	-0.67	-0.67
420	26.664	4.67	6.33	4.33	4.33	0.33	5.33	11.33	3.33	7.33	13.33	1.33	3.33	3.33	3.33	7.33	3.33	4.33	4.33	4.33	1.33	3.33	2.33	4.33	4.33	8.33	2.33	8.33
427	27.109	7.0	1.0	0.0	-2.0	0.0	-1.0	2.0	1.0	-1.0	4.0	3.0	2.0	12.0	4.0	4.0	-2.0	2.0	3.0	5.0	1.0	-3.0	2.0	5.0	3.0	4.0	4.0	-1.0
434	27.553	7.67	0.33	-0.67	-1.67	0.33	-0.67	-1.67	1.33	-0.67	1.33	2.33	0.33	4.33	5.33	4.33	2.33	-1.67	8.33	2.33	-0.67	3.33	-4.67	-3.67	3.33	3.33	4.33	2.33
441	27.998	9.33	-3.33	-3.33	-1.33	2.67	0.67	-2.33	3.67	-2.33	-3.33	-0.33	-0.33	-2.33	0.67	2.67	-4.33	2.67	1.67	1.67	4.67	-0.33	-2.33	-0.33	0.67	-2.33	2.67	5.67
448	28.442	6.67	5.33	-0.67	1.33	1.33	-2.67	-1.67	4.33	0.33	2.33	5.33	-0.67	3.33	3.33	-0.67	-2.67	-0.67	0.33	-2.67	0.33	3.33	2.33	0.33	6.33	0.33	8.33	3.33
455	28.887	5.67	-0.67	-2.67	-0.67	2.33	-1.67	3.33	1.33	1.33	1.33	5.33	9.33	5.33	8.33	2.33	-1.67	0.33	2.33	2.33	-2.67	6.33	5.33	5.33	-2.67	3.33	0.33	0.33
462	29.331	6.0	3.0	-1.0	-5.0	-1.0	6.0	-2.0	2.0	-2.0	0.0	1.0	6.0	0.0	0.0	0.0	4.0	0.0	2.0	4.0	4.0	3.0	-2.0	6.0	3.0	3.0	3.0	-2.0
469	29.775	7.67	0.33	0.33	1.33	-2.67	-3.67	0.33	4.33	0.33	-1.67	0.33	3.33	1.33	-1.67	-1.67	-4.67	-0.67	-2.67	-0.67	1.33	1.33	-2.67	0.33	0.33	-3.67	3.33	-0.67
476	30.22	6.67	1.33	-2.67	2.33	-0.67	1.33	1.33	0.33	0.33	5.33	2.33	2.33	2.33	-0.67	1.33	1.33	-1.67	0.33	-1.67	-1.67	3.33	-1.67	0.33	-1.67	2.33	-2.67	0.33
483	30.664	6.0	1.0	3.0	-1.0	4.0	4.0	4.0	0.0	4.0	3.0	2.0	1.0	0.0	0.0	-3.0	1.0	7.0	0.0	0.0	3.0	-3.0	2.0	4.0	0.0	2.0	0.0	8.0
490	31.108	9.0	-4.0	-2.0	0.0	-3.0	-4.0	-3.0	-5.0	-3.0	-3.0	-5.0	-4.0	-7.0	-3.0	-2.0	1.0	5.0	-1.0	-5.0	2.0	-2.0	-3.0	-5.0	1.0	0.0	-2.0	-6.0
497	31.552	5.33	-1.33	0.67	0.67	-0.33	-0.33	-4.33	-1.33	5.67	3.67	-0.33	2.67	-0.33	4.67	-1.33	5.67	2.67	0.67	1.67	1.67	5.67	-2.33	0.67	0.67	-5.33	2.67	1.67
504	31.997	5.67	-0.67	0.33	4.33	4.33	1.33	0.33	1.33	-1.67	9.33	3.33	1.33	0.33	-2.67	-3.67	1.33	0.33	3.33	1.33	0.33	5.33	2.33	1.33	3.33	4.33	-0.67	-3.67
511	32.441	5.33	-3.33	-1.33	6.67	-1.33	6.67	2.67	2.67	2.67	-0.33	1.67	6.67	3.67	3.67	-0.33	5.67	0.67	-0.33	0.67	-2.33	2.67	2.67	-3.33	-0.33	-0.33	1.67	2.67
518	32.885	4.0	-1.0	2.0	0.0	4.0	3.0	7.0	1.0	1.0	-3.0	-2.0	2.0	9.0	5.0	-1.0	8.0	8.0	0.0	3.0	1.0	3.0	-2.0	4.0	0.0	2.0	3.0	1.0
525	33.329	7.67	2.33	-2.67	1.33	1.33	-1.67	-0.67	-0.67	-3.67	0.33	-3.67	-0.67	-2.67	-0.67	-1.67	-1.67	-2.67	-1.67	1.33	-1.67	1.33	0.33	-1.67	-3.67	-5.67	-3.67	-5.67
532	33.773	3.33	-0.33	0.67	2.67	-0.33	-0.33	2.67	-0.33	5.67	3.67	4.67	4.67	1.67	2.67	1.67	2.67	7.67	2.67	5.67	2.67	6.67	1.67	3.67	1.67	4.67	1.67	4.67
539	34.218	7.67	-5.67	1.33	1.33	-1.67	1.33	1.33	1.33	-2.67	-4.67	-2.67	-2.67	1.33	-3.67	-1.67	-6.67	0.33	3.33	-6.67	-4.67	-1.67	0.33	4.33	1.33	2.33	2.33	2.33
546	34.662	4.33	6.67	2.67	0.67	2.67	1.67	-0.33	-1.33	-2.33	3.67	2.67	2.67	4.67	-3.33	0.67	2.67	-1.33	3.67	1.67	1.67	7.67	-0.33	0.67	0.67	2.67	-2.33	2.67
553	35.106	7.0	-2.0	-1.0	1.0	1.0	-1.0	3.0	1.0	-1.0	0.0	1.0	-2.0	0.0	-2.0	-1.0	-4.0	-5.0	-5.0	-2.0	0.0	2.0	2.0	3.0	-2.0	-3.0	3.0	-2.0
560	35.55	4.33	3.67	3.67	1.67	1.67	4.67	1.67	-2.33	2.67	1.67	3.67	1.67	-2.33	-0.33	5.67	2.67	0.67	-0.33	2.67	4.67	-2.33	0.67	5.67	4.67	5.67	1.67	-0.33
567	35.994	6.33	-3.33	-0.33	-0.33	-2.33	0.67	-2.33	-3.33	3.67	0.67	-1.33	-1.33	-0.33	-3.33	-2.33	0.67	1.67	-1.33	-4.33	-0.33	3.67	1.67	0.67	0.67	1.67	-0.33	3.67
574	36.438	5.0	2.0	5.0	1.0	3.0	2.0	-2.0	1.0	2.0	1.0	2.0	-2.0	2.0	2.0	-2.0	4.0	0.0	-1.0	1.0	7.0	1.0	1.0	2.0	-1.0	5.0	5.0	-4.0
581	36.883	5.0	3.0	-2.0	2.0	4.0	4.0	1.0	2.0	5.0	3.0	3.0	0.0	1.0	0.0	2.0	1.0	2.0	2.0	4.0	5.0	3.0	-2.0	-2.0	1.0	0.0	3.0	0.0
588	37.327	3.67	1.33	-0.67	0.33	2.33	1.33	5.33	0.33	1.33	2.33	6.33	3.33	-0.67	0.33	3.33	3.33	1.33	3.33	-0.67	0.33	-1.67	5.33	2.33	4.33	2.33	5.33	1.33
595	37.771	3.33	0.67	4.67	3.67	-2.33	6.67	-1.33	-1.33	-0.33	3.67	3.67	5.67	0.67	3.67	3.67	3.67	2.67	3.67	0.67	-1.33	-1.33	-2.33	6.67	6.67	3.67	3.67	4.67
602	38.215	5.33	0.67	3.67	-1.33	-0.33	-1.33	-3.33	-0.33	-0.33	-1.33	-0.33	-1.33	-2.33	-4.33	-0.33	-1.33	0.67	0.67	3.67	-0.33	2.67	0.67	-1.33	2.67	5.67	-0.33	2.67
609	38.659	6.33	1.67	-1.33	-3.33	-1.33	-3.33	2.67	1.67	0.67	-1.33	1.67	-1.33	0.67	3.67	-5.33	2.67	-2.33	-1.33	-0.33	-0.33	-1.33	-2.33	1.67	-0.33	-1.33	-4.33	-3.33
616	39.103	6.0	-1.0	0.0	0.0	-3.0	0.0	3.0	-2.0	2.0	0.0	-3.0	-1.0	-1.0	-3.0	1.0	2.0	0.0	3.0	-1.0	1.0	-4.0	-3.0	-1.0	-1.0	1.0	1.0	-5.0
623	39.547	5.67	-0.67	3.33	5.33	0.33	-2.67	-0.67	1.33	-2.67	-0.67	2.33	-1.67	2.33	-0.67	-1.67	-0.67	1.33	0.33	1.33	4.33	1.33	-1.67	1.33	-5.67	3.33	0.33	-3.67
630	39.992	5.33	-2.33	-0.33	2.67	1.67	-2.33	-3.33	-2.33	-0.33	-1.33	1.67	-2.33	-3.33	4.67	0.67	1.67	-1.33	2.67	0.67	-3.33	-0.33	0.67	-1.33	2.67	-2.33	-3.33	0.67
637	40.436	5.0	2.0	2.0	4.0	4.0	0.0	2.0	0.0	1.0	0.0	-1.0	4.0	3.0	-1.0	1.0	-2.0	3.0	0.0	2.0	-2.0	-1.0	0.0	-1.0	0.0	3.0	-2.0	-4.0
644	40.88	5.0	1.0	4.0	2.0	1.0	1.0	5.0	0.0	2.0	-3.0	-1.0	-2.0	2.0	1.0	0.0	-1.0	-2.0	-2.0	7.0	3.0	0.0	1.0	2.0	-2.0	2.0	2.0	0.0
651	41.324	7.33	-2.33	-2.33	-0.33	-1.33	-0.33	-1.33	3.67	-3.33	-0.33	-2.33	-1.33	-1.33	-4.33	-1.33	-2.33	-1.33	-0.33	-2.33	-3.33	-3.33	-2.33	-0.33	3.67	2.67	-4.33	8.67
658	41.769	7.33	-5.33	-2.33	-2.33	0.67	-2.33	-0.33	1.67	-3.33	-4.33	-1.33	-0.33	-1.33	-1.33	-3.33	-0.33	-1.33	-0.33	0.67	0.67	2.67	-2.33	-2.33	2.67	-0.33	1.67	-2.33
665	42.213	5.33	-2.33	0.67	-3.33	1.67	-0.33	-1.33	-0.33	4.67	0.67	2.67	1.67	-4.33	-0.33	-0.33	-1.33	2.67	-1.33	-0.33	1.67	2.67	1.67	1.67	-1.33	1.67	3.67	1.67
672	42.657	8.67	-2.67	-1.67	-1.67	-2.67	0.33	-2.67	-1.67	-1.67	1.33	-3.67	-6.67	-5.67	-3.67	3.33	-2.67	-6.67	-1.67	-2.67	-5.67	-5.67	1.33	0.33	-2.67	-0.67	-2.67	2.33
679	43.101	8.67	-3.67	-2.67	-5.67	-4.67	-2.67	-3.67	-1.67	-3.67	-0.67	0.33	-4.67	-2.67	-1.67	-4.67	-2.67	-2.67	-0.67	-2.67	-3.67	-1.67	-2.67	4.33	-4.67	-0.67	-2.67	-4.67
686	43.546	5.67	2.33	-0.67	-1.67	-1.67	0.33	4.33	1.33	2.33	3.33	-2.67	-2.67	-1.67	-1.67	0.33	0.33	1.33	1.33	-1.67	3.33	2.33	-0.67	2.33	0.33	0.33	7.33	3.33
693	43.99	8.33	-2.33	2.67	-4.33	-4.33	-2.33	2.67	-2.33	-2.33	-2.33	-3.33	-1.33	-0.33	1.67	-2.33	-2.33	-3.33	-3.33	-3.33	3.67	-3.33	-4.33	0.67	2.67	1.67	-1.33	-4.33
700	44.435	8.33	-3.33	0.67	-0.33	-1.33	-2.33	-5.33	0.67	-3.33	-0.33	-1.33	-2.33	-5.33	-4.33	-1.33	-1.33	2.67	-4.33	1.67	-5.33	-4.33	-2.33	-1.33	-4.33	-3.33	-4.33	-5.33
707	44.879	7.33	-1.33	0.67	-2.33	-2.33	1.67	0.67	2.67	5.67	-2.33	-1.33	2.67	-3.33	2.67	-0.33	0.67	-0.33	-2.33	4.67	2.67	0.67	-1.33	1.67	0.67	-2.33	-3.33	-1.33
714	45.323	12.33	-0.33	-5.33	-4.33	-10.33	-2.33	-2.33	4.67	-0.33	-1.33	-6.33	2.67	-9.33	-6.33	-1.33	-2.33	-9.33	-1.33	-8.33	-6.33	-6.33	-3.33	-3.33	-11.33	0.67	-2.33	-5.33
721	45.768	9.0	1.0	-3.0	1.0	-3.0	-2.0	-2.0	1.0	-3.0	-8.0	3.0	5.0	0.0	1.0	-1.0	0.0	-2.0	-2.0	-6.0	-1.0	-2.0	-3.0	3.0	1.0	-5.0	0.0	-3.0
728	46.212	6.33	-1.33	0.67	-0.33	4.67	1.67	-2.33	-2.33	0.67	4.67	7.67	0.67	-1.33	0.67	-2.33	1.67	-2.33	1.67	3.67	-0.33	1.67	0.67	0.67	-4.33	-2.33	2.67	-0.33
735	46.657	7.33	0.67	-1.33	1.67	-0.33	-0.33	-2.33	-1.33	2.67	-0.33	4.67	1.67	4.67	-1.33	-1.33	1.67	-5.33	4.67	9.67	-3.33	-0.33	-1.33	3.67	-3.33	5.67	-3.33	5.67
742	47.102	9.33	-0.33	-5.33	-0.33	0.67	-3.33	-2.33	7.67	-2.33	1.67	1.67	-4.33	-0.33	-4.33	-2.33	-1.33	-0.33	-2.33	-0.33	0.67	-1.33	-6.33	-0.33	-0.33	-2.33	-1.33	-2.33
749	47.546	8.0	-2.0	4.0	6.0	-2.0	-1.0	2.0	-4.0	-3.0	-2.0	3.0	0.0	3.0	-2.0	2.0	-4.0	2.0	0.0	2.0	1.0	4.0	4.0	0.0	-2.0	-1.0	-2.0	-1.0
756	47.991	9.67	2.33	-1.67	-2.67	-5.67	-1.67	-4.67	-5.67	0.33	-4.67	-3.67	-3.67	-2.67	-2.67	-0.67	-2.67	-3.67	4.33	0.33	0.33	-2.67	1.33	2.33	-1.67	1.33	-2.67	-3.67
763	48.436	11.0	-3.0	-1.0	2.0	-2.0	-1.0	-4.0	2.0	1.0	-2.0	1.0	2.0	-4.0	-6.0	4.0	-1.0	5.0	-2.0	-2.0	-2.0	0.0	-2.0	3.0	-1.0	1.0	-3.0	-2.0
770	48.881	10.0	1.0	2.0	5.0	-7.0	5.0	1.0	8.0	-4.0	5.0	2.0	0.0	-1.0	-7.0	4.0	0.0	-5.0	2.0	2.0	-1.0	-4.0	-5.0	6.0	-3.0	2.0	-2.0	1.0
777	49.325	6.33	3.67	4.67	5.67	0.67	3.67	5.67	2.67	4.67	2.67	4.67	1.67	4.67	2.67	-1.33	1.67	5.67	4.67	2.67	2.67	3.67	3.67	2.67	0.67	5.67	4.67	4.67
784	49.77	9.33	-3.33	0.67	1.67	3.67	5.67	-3.33	-1.33	1.67	4.67	-1.33	7.67	-4.33	2.67	1.67	1.67	8.67	-0.33	3.67	6.67	0.67	-3.33	1.67	-4.33	0.67	2.67	1.67
791	50.215	11.33	-3.33	-2.33	1.67	-0.33	3.67	5.67	2.67	1.67	-1.33	11.67	-1.33	1.67	-4.33	0.67	-0.33	8.67	2.67	2.67	-1.33	3.67	-0.33	-3.33	0.67	-2.33	-3.33	4.67
798	50.66	12.67	-5.67	-1.67	11.33	-0.67	0.33	1.33	4.33	6.33	12.33	2.33	7.33	3.33	5.33	0.33	0.33	6.33	0.33	2.33	2.33	1.33	5.33	2.33	3.33	-1.67	-1.67	7.33
805	51.105	11.0	-1.0	1.0	-7.0	6.0	17.0	23.0	13.0	39.0	20.0	17.0	24.0	24.0	18.0	27.0	16.0	17.0	3.0	8.0	30.0	18.0	10.0	13.0	8.0	12.0	14.0	24.0
812	51.551	11.33	3.67	-1.33	-2.33	6.67	14.67	27.67	35.67	27.67	36.67	40.67	28.67	20.67	47.67	27.67	31.67	37.67	26.67	26.67	19.67	28.67	23.67	22.67	19.67	23.67	21.67	11.67
819	51.996	12.33	-1.33	-1.33	-1.33	8.67	9.67	12.67	10.67	26.67	25.67	30.67	14.67	16.67	27.67	25.67	21.67	21.67	18.67	26.67	25.67	14.67	13.67	14.67	15.67	9.67	25.67	14.67
826	52.441	11.0	4.0	3.0	4.0	-3.0	14.0	12.0	3.0	8.0	9.0	8.0	16.0	9.0	3.0	5.0	11.0	7.0	-1.0	3.0	6.0	7.0	10.0	11.0	7.0	8.0	-4.0	7.0
833	52.886	12.0	-2.0	3.0	-2.0	-3.0	6.0	6.0	-1.0	3.0	4.0	1.0	2.0	-1.0	0.0	6.0	5.0	1.0	0.0	1.0	-1.0	5.0	3.0	0.0	0.0	3.0	1.0	3.0
840	53.332	16.67	-7.67	-8.67	-6.67	-6.67	-1.67	-0.67	-2.67	10.33	-0.67	-7.67	-2.67	-2.67	-3.67	-3.67	1.33	1.33	0.33	1.33	0.33	-5.67	-6.67	-5.67	-4.67	-6.67	-1.67	-5.67
847	53.777	9.67	4.33	1.33	8.33	7.33	7.33	3.33	7.33	5.33	2.33	3.33	-0.67	5.33	8.33	1.33	7.33	2.33	0.33	7.33	7.33	3.33	2.33	4.33	6.33	1.33	3.33	10.33
854	54.223	12.67	2.33	-1.67	-0.67	5.33	-0.67	2.33	3.33	1.33	13.33	-1.67	-0.67	1.33	-4.67	-1.67	7.33	-0.67	-4.67	-1.67	2.33	7.33	-0.67	-2.67	-2.67	3.33	5.33	1.33
861	54.668	11.67	1.33	2.33	2.33	3.33	0.33	0.33	10.33	5.33	5.33	-0.67	-2.67	0.33	5.33	-3.67	2.33	-1.67	-0.67	6.33	5.33	-2.67	6.33	4.33	-4.67	3.33	-2.67	-3.67
868	55.114	10.33	2.67	2.67	5.67	3.67	3.67	1.67	-1.33	-1.33	0.67	3.67	1.67	0.67	3.67	0.67	-2.33	-4.33	-0.33	5.67	7.67	7.67	5.67	2.67	-1.33	-0.33	-0.33	4.67
875	55.56	13.0	2.0	5.0	3.0	-3.0	-1.0	-2.0	3.0	-4.0	-1.0	-5.0	-1.0	2.0	8.0	4.0	1.0	-7.0	0.0	-2.0	0.0	-5.0	-1.0	8.0	0.0	-3.0	5.0	-3.0
882	56.005	10.33	1.67	2.67	6.67	0.67	0.67	-3.33	-0.33	5.67	3.67	3.67	5.67	3.67	3.67	8.67	1.67	6.67	-1.33	2.67	3.67	1.67	0.67	3.67	-4.33	0.67	1.67	2.67
889	56.451	15.0	-5.0	-1.0	-4.0	-6.0	-4.0	-3.0	5.0	2.0	2.0	-6.0	0.0	1.0	-4.0	-4.0	-1.0	-1.0	-2.0	-6.0	-1.0	-9.0	-3.0	-6.0	1.0	6.0	-2.0	-8.0
896	56.897	14.67	-1.67	-2.67	0.33	0.33	1.33	-2.67	-2.67	-0.67	-6.67	-3.67	-4.67	-2.67	-6.67	-4.67	-8.67	1.33	-3.67	3.33	-0.67	0.33	1.33	2.33	1.33	-3.67	0.33	1.33
903	57.343	11.67	2.33	6.33	4.33	5.33	0.33	-1.67	1.33	5.33	2.33	3.33	0.33	4.33	4.33	1.33	6.33	1.33	0.33	6.33	4.33	1.33	1.33	1.33	0.33	6.33	2.33	1.33
910	57.789	14.33	-2.33	-3.33	0.67	8.67	2.67	3.67	-6.33	0.67	1.67	2.67	4.67	2.67	0.67	4.67	2.67	1.67	6.67	1.67	-1.33	8.67	0.67	9.67	2.67	5.67	-2.33	-1.33
917	58.236	17.67	-0.67	-0.67	3.33	6.33	7.33	-0.67	1.33	-1.67	-0.67	-1.67	-4.67	1.33	3.33	1.33	1.33	0.33	-9.67	4.33	1.33	0.33	-2.67	0.33	-6.67	1.33	3.33	-0.67
924	58.682	12.0	1.0	2.0	8.0	9.0	2.0	2.0	17.0	9.0	0.0	1.0	5.0	-3.0	-2.0	4.0	5.0	8.0	5.0	4.0	7.0	6.0	3.0	7.0	5.0	7.0	4.0	9.0
931	59.128	16.0	-3.0	4.0	3.0	2.0	3.0	5.0	-2.0	-3.0	5.0	-8.0	4.0	8.0	4.0	-1.0	0.0	3.0	-5.0	7.0	4.0	9.0	3.0	6.0	-1.0	5.0	0.0	0.0
938	59.575	14.67	7.33	3.33	-0.67	4.33	10.33	1.33	8.33	-2.67	3.33	4.33	-0.67	3.33	-0.67	2.33	2.33	2.33	10.33	5.33	5.33	8.33	6.33	0.33	3.33	4.33	3.33	9.33
945	60.021	16.0	-1.0	-3.0	5.0	5.0	1.0	9.0	3.0	-5.0	-2.0	6.0	0.0	1.0	-4.0	2.0	-1.0	8.0	-2.0	-4.0	-8.0	-3.0	-1.0	1.0	1.0	1.0	5.0	-2.0
952	60.468	12.33	-1.33	2.67	7.67	4.67	2.67	5.67	0.67	0.67	3.67	4.67	-2.33	1.67	-0.33	2.67	14.67	2.67	3.67	-0.33	-5.33	3.67	5.67	1.67	-2.33	-3.33	3.67	0.67
959	60.915	15.33	-4.33	2.67	-2.33	4.67	-6.33	0.67	-8.33	-0.33	-0.33	1.67	-7.33	0.67	-0.33	11.67	-2.33	-0.33	3.67	-3.33	-4.33	-3.33	0.67	-5.33	-4.33	-7.33	-6.33	1.67
966	61.361	14.0	1.0	6.0	5.0	5.0	5.0	-3.0	-1.0	2.0	3.0	-1.0	-5.0	-3.0	0.0	1.0	-2.0	2.0	5.0	0.0	0.0	1.0	-1.0	9.0	5.0	-5.0	2.0	-4.0
973	61.808	13.33	1.67	5.67	4.67	3.67	10.67	-0.33	2.67	-2.33	2.67	3.67	2.67	0.67	2.67	-1.33	3.67	6.67	4.67	2.67	2.67	-1.33	1.67	6.67	0.67	-3.33	2.67	3.67
980	62.255	13.33	5.67	6.67	6.67	5.67	5.67	4.67	0.67	1.67	-0.33	-0.33	2.67	3.67	3.67	6.67	-0.33	4.67	4.67	8.67	3.67	-1.33	1.67	1.67	3.67	-1.33	-2.33	4.67
987	62.703	13.0	0.0	-3.0	2.0	4.0	4.0	9.0	1.0	1.0	1.0	-6.0	8.0	2.0	8.0	4.0	0.0	6.0	0.0	2.0	5.0	-1.0	6.0	-1.0	-1.0	2.0	2.0	9.0
994	63.15	14.33	4.67	6.67	4.67	1.67	7.67	3.67	1.67	4.67	0.67	5.67	3.67	0.67	5.67	-3.33	7.67	-1.33	-1.33	-0.33	-0.33	4.67	-0.33	4.67	-2.33	-0.33	4.67	6.67
1001	63.597	16.33	3.67	0.67	4.67	8.67	-0.33	-6.33	3.67	4.67	-0.33	8.67	-0.33	7.67	-4.33	2.67	-0.33	0.67	-2.33	4.67	-4.33	3.67	-2.33	-1.33	-1.33	-4.33	-1.33	-5.33
1008	64.045	13.0	11.0	7.0	5.0	4.0	6.0	5.0	6.0	2.0	7.0	0.0	9.0	2.0	4.0	3.0	3.0	5.0	6.0	2.0	9.0	0.0	-1.0	4.0	-2.0	5.0	4.0	4.0
1015	64.492	12.67	3.33	11.33	1.33	11.33	7.33	7.33	9.33	10.33	8.33	7.33	6.33	7.33	6.33	11.33	3.33	-2.67	5.33	2.33	6.33	4.33	-0.67	5.33	2.33	7.33	7.33	6.33
1022	64.94	12.0	17.0	17.0	20.0	15.0	19.0	15.0	16.0	13.0	17.0	21.0	2.0	12.0	14.0	5.0	10.0	12.0	9.0	12.0	8.0	13.0	3.0	2.0	14.0	11.0	12.0	5.0
1029	65.388	12.67	37.33	35.33	26.33	26.33	19.33	15.33	24.33	26.33	28.33	13.33	29.33	22.33	28.33	22.33	15.33	18.33	12.33	17.33	10.33	15.33	19.33	12.33	19.33	21.33	15.33	12.33
1036	65.836	12.67	31.33	49.33	31.33	35.33	38.33	25.33	22.33	24.33	23.33	23.33	18.33	19.33	26.33	24.33	21.33	16.33	20.33	20.33	23.33	25.33	13.33	17.33	20.33	14.33	19.33	10.33
1043	66.284	16.0	18.0	28.0	29.0	30.0	19.0	19.0	15.0	20.0	20.0	24.0	20.0	20.0	24.0	8.0	10.0	7.0	11.0	17.0	16.0	15.0	3.0	14.0	16.0	12.0	9.0	7.0
1050	66.732	16.67	3.33	5.33	16.33	19.33	13.33	3.33	3.33	8.33	6.33	7.33	5.33	3.33	8.33	3.33	11.33	11.33	3.33	9.33	-0.67	8.33	11.33	5.33	11.33	15.33	7.33	1.33
1057	67.18	15.0	7.0	16.0	22.0	17.0	5.0	6.0	2.0	5.0	9.0	13.0	13.0	7.0	5.0	9.0	7.0	-1.0	5.0	10.0	11.0	2.0	15.0	7.0	1.0	10.0	7.0	8.0
1064	67.629	16.0	3.0	4.0	6.0	0.0	3.0	3.0	3.0	1.0	8.0	8.0	-5.0	-1.0	5.0	4.0	3.0	11.0	3.0	11.0	6.0	8.0	3.0	4.0	0.0	13.0	12.0	9.0
1071	68.077	19.0	-2.0	-1.0	3.0	0.0	1.0	3.0	-4.0	-1.0	-2.0	-1.0	-5.0	-5.0	1.0	-4.0	-3.0	3.0	-6.0	0.0	4.0	-8.0	0.0	1.0	-1.0	-5.0	0.0	-1.0
1078	68.526	12.33	-0.33	3.67	3.67	9.67	4.67	11.67	3.67	4.67	10.67	4.67	5.67	11.67	0.67	9.67	7.67	11.67	4.67	5.67	0.67	16.67	6.67	1.67	3.67	-6.33	5.67	6.67
1085	68.974	14.33	7.67	10.67	0.67	11.67	2.67	7.67	5.67	-2.33	4.67	5.67	5.67	-0.33	10.67	10.67	4.67	11.67	3.67	4.67	10.67	5.67	4.67	9.67	11.67	9.67	7.67	8.67
1092	69.423	15.0	3.0	10.0	2.0	3.0	8.0	3.0	2.0	4.0	2.0	9.0	6.0	9.0	7.0	7.0	13.0	5.0	6.0	14.0	-1.0	6.0	7.0	6.0	9.0	6.0	-1.0	1.0
1099	69.872	14.0	5.0	6.0	8.0	2.0	4.0	0.0	11.0	3.0	2.0	14.0	3.0	10.0	0.0	2.0	8.0	7.0	4.0	2.0	7.0	9.0	9.0	7.0	9.0	12.0	5.0	9.0
1106	70.322	10.0	11.0	18.0	14.0	10.0	14.0	16.0	12.0	11.0	5.0	7.0	10.0	3.0	12.0	5.0	8.0	13.0	6.0	21.0	10.0	11.0	4.0	8.0	19.0	7.0	10.0	9.0
1113	70.771	13.67	5.33	7.33	10.33	11.33	8.33	-0.67	8.33	6.33	3.33	11.33	3.33	0.33	5.33	0.33	5.33	3.33	16.33	2.33	5.33	7.33	-0.67	10.33	6.33	5.33	4.33	-5.67
1120	71.22	14.33	2.67	3.67	15.67	7.67	4.67	9.67	3.67	9.67	6.67	3.67	6.67	5.67	-0.33	3.67	-0.33	6.67	2.67	3.67	11.67	-1.33	-2.33	9.67	14.67	7.67	6.67	8.67
1127	71.67	11.33	1.67	7.67	11.67	12.67	14.67	12.67	1.67	14.67	9.67	7.67	12.67	7.67	14.67	9.67	8.67	8.67	4.67	7.67	5.67	5.67	6.67	11.67	8.67	11.67	4.67	6.67
1134	72.12	13.33	-2.33	12.67	4.67	17.67	14.67	6.67	2.67	7.67	11.67	2.67	13.67	10.67	7.67	4.67	5.67	3.67	9.67	0.67	8.67	-2.33	7.67	9.67	8.67	2.67	1.67	12.67
1141	72.569	20.0	3.0	9.0	7.0	3.0	16.0	8.0	8.0	15.0	11.0	10.0	-3.0	17.0	10.0	3.0	4.0	12.0	12.0	9.0	13.0	10.0	11.0	-1.0	-1.0	12.0	14.0	4.0
1148	73.019	29.0	5.0	1.0	14.0	11.0	19.0	7.0	15.0	2.0	8.0	7.0	12.0	4.0	10.0	-2.0	9.0	5.0	10.0	12.0	15.0	5.0	1.0	19.0	4.0	3.0	-1.0	4.0
1155	73.469	17.0	12.0	13.0	11.0	14.0	9.0	16.0	16.0	15.0	12.0	15.0	8.0	13.0	15.0	9.0	10.0	11.0	22.0	0.0	15.0	15.0	17.0	10.0	8.0	17.0	14.0	10.0
1162	73.92	12.67	5.33	21.33	13.33	17.33	8.33	11.33	2.33	7.33	5.33	16.33	8.33	11.33	9.33	-0.67	14.33	11.33	9.33	20.33	14.33	14.33	18.33	9.33	4.33	9.33	9.33	6.33
1169	74.37	16.0	5.0	4.0	14.0	14.0	8.0	17.0	3.0	16.0	10.0	10.0	5.0	6.0	10.0	8.0	-2.0	4.0	15.0	6.0	14.0	6.0	4.0	-3.0	11.0	12.0	16.0	8.0
1176	74.821	27.67	4.33	12.33	15.33	7.33	7.33	15.33	6.33	4.33	14.33	11.33	10.33	9.33	9.33	13.33	-0.67	7.33	7.33	10.33	11.33	8.33	-5.67	10.33	6.33	4.33	24.33	10.33
1183	75.272	42.33	13.67	6.67	2.67	4.67	20.67	12.67	12.67	2.67	21.67	10.67	16.67	11.67	19.67	1.67	13.67	-12.33	1.67	16.67	9.67	0.67	2.67	-1.33	18.67	4.67	15.67	15.67
1190	75.722	23.33	7.67	16.67	3.67	7.67	15.67	10.67	8.67	17.67	3.67	11.67	5.67	11.67	16.67	13.67	12.67	13.67	2.67	12.67	6.67	11.67	15.67	0.67	9.67	14.67	20.67	7.67
1197	76.173	11.67	13.33	14.33	8.33	17.33	9.33	9.33	12.33	7.33	18.33	22.33	16.33	16.33	12.33	8.33	7.33	9.33	9.33	4.33	7.33	14.33	10.33	5.33	10.33	11.33	1.33	4.33
1204	76.625	11.0	17.0	19.0	13.0	22.0	11.0	3.0	5.0	1.0	8.0	5.0	12.0	8.0	13.0	15.0	10.0	10.0	18.0	9.0	9.0	11.0	7.0	8.0	9.0	5.0	10.0	16.0
1211	77.076	21.0	0.0	-4.0	1.0	5.0	9.0	1.0	-2.0	4.0	-2.0	5.0	12.0	-5.0	12.0	-4.0	-4.0	4.0	-6.0	4.0	-1.0	-1.0	-3.0	5.0	6.0	-1.0	2.0	-6.0
1218	77.528	13.0	4.0	15.0	16.0	11.0	8.0	4.0	13.0	7.0	16.0	7.0	9.0	0.0	9.0	9.0	5.0	13.0	5.0	11.0	9.0	-1.0	12.0	18.0	2.0	9.0	13.0	3.0
1225	77.979	15.33	1.67	8.67	14.67	5.67	4.67	4.67	8.67	2.67	3.67	14.67	4.67	5.67	5.67	10.67	1.67	12.67	0.67	8.67	12.67	10.67	6.67	3.67	8.67	11.67	2.67	11.67
1232	78.431	12.67	6.33	10.33	10.33	7.33	20.33	6.33	2.33	15.33	11.33	15.33	8.33	16.33	18.33	12.33	11.33	13.33	9.33	9.33	22.33	22.33	13.33	4.33	10.33	19.33	8.33	8.33
1239	78.883	11.67	5.33	6.33	17.33	5.33	15.33	14.33	12.33	27.33	7.33	13.33	17.33	8.33	8.33	13.33	7.33	7.33	16.33	5.33	11.33	16.33	12.33	21.33	22.33	23.33	7.33	19.33
1246	79.335	18.33	11.67	4.67	9.67	9.67	1.67	8.67	7.67	0.67	11.67	7.67	11.67	-4.33	11.67	4.67	3.67	4.67	10.67	2.67	-0.33	-1.33	1.67	6.67	1.67	-0.33	4.67	3.67
1253	79.788	18.33	-1.33	14.67	4.67	7.67	0.67	3.67	5.67	15.67	4.67	0.67	12.67	11.67	-5.33	7.67	7.67	5.67	6.67	7.67	10.67	6.67	10.67	-0.33	5.67	11.67	1.67	10.67
1260	80.24	13.0	12.0	8.0	18.0	6.0	19.0	18.0	12.0	8.0	15.0	7.0	21.0	8.0	11.0	9.0	14.0	5.0	10.0	8.0	7.0	12.0	6.0	18.0	22.0	2.0	12.0	16.0
1267	80.693	17.0	14.0	4.0	8.0	12.0	20.0	16.0	21.0	9.0	12.0	3.0	11.0	16.0	7.0	11.0	3.0	2.0	6.0	2.0	16.0	10.0	9.0	0.0	7.0	10.0	9.0	16.0
1274	81.146	16.67	8.33	1.33	5.33	12.33	21.33	16.33	19.33	5.33	22.33	0.33	11.33	14.33	14.33	6.33	15.33	15.33	23.33	10.33	15.33	13.33	0.33	3.33	15.33	18.33	11.33	10.33
1281	81.599	16.0	11.0	12.0	16.0	3.0	13.0	23.0	15.0	20.0	16.0	16.0	18.0	16.0	35.0	20.0	18.0	24.0	15.0	16.0	16.0	21.0	3.0	35.0	22.0	23.0	13.0	12.0
1288	82.052	19.67	6.33	32.33	12.33	14.33	11.33	15.33	10.33	21.33	11.33	23.33	14.33	17.33	15.33	23.33	19.33	10.33	28.33	30.33	8.33	20.33	25.33	12.33	16.33	19.33	22.33	17.33
1295	82.505	20.33	48.67	42.67	29.67	43.67	47.67	20.67	35.67	33.67	31.67	30.67	18.67	36.67	30.67	29.67	20.67	28.67	18.67	17.67	19.67	27.67	17.67	12.67	17.67	26.67	21.67	30.67
1302	82.959	20.33	124.67	114.67	118.67	73.67	111.67	64.67	73.67	64.67	63.67	52.67	55.67	41.67	45.67	51.67	47.67	41.67	48.67	52.67	33.67	57.67	48.67	32.67	41.67	39.67	40.67	28.67
1309	83.413	16.0	221.0	242.0	197.0	206.0	176.0	145.0	157.0	120.0	121.0	95.0	115.0	76.0	88.0	83.0	104.0	87.0	93.0	87.0	83.0	70.0	86.0	76.0	68.0	63.0	59.0	74.0
1316	83.867	23.33	237.67	329.67	264.67	207.67	198.67	201.67	168.67	143.67	131.67	147.67	130.67	108.67	114.67	68.67	92.67	105.67	105.67	76.67	77.67	125.67	89.67	106.67	97.67	85.67	80.67	84.67
1323	84.321	24.33	215.67	256.67	251.67	210.67	182.67	177.67	157.67	137.67	119.67	125.67	124.67	98.67	111.67	98.67	96.67	89.67	65.67	79.67	81.67	74.67	75.67	68.67	92.67	95.67	82.67	85.67
1330	84.775	21.67	130.33	128.33	136.33	114.33	106.33	99.33	88.33	94.33	68.33	70.33	72.33	66.33	64.33	40.33	55.33	51.33	67.33	27.33	44.33	42.33	50.33	34.33	51.33	41.33	44.33	45.33
1337	85.23	31.67	42.33	46.33	49.33	40.33	30.33	24.33	25.33	24.33	32.33	25.33	9.33	50.33	21.33	23.33	12.33	12.33	14.33	19.33	14.33	18.33	17.33	28.33	26.33	18.33	24.33	13.33
1344	85.684	28.0	6.0	13.0	32.0	17.0	9.0	20.0	21.0	16.0	8.0	5.0	15.0	9.0	3.0	13.0	15.0	16.0	24.0	3.0	11.0	18.0	15.0	23.0	15.0	6.0	13.0	7.0
1351	86.139	25.33	1.67	5.67	1.67	8.67	7.67	1.67	4.67	18.67	1.67	16.67	11.67	3.67	18.67	8.67	7.67	4.67	7.67	6.67	8.67	12.67	2.67	7.67	1.67	12.67	9.67	1.67
1358	86.594	22.67	2.33	8.33	13.33	10.33	9.33	7.33	10.33	13.33	11.33	14.33	13.33	14.33	9.33	5.33	27.33	13.33	11.33	0.33	4.33	18.33	10.33	11.33	10.33	11.33	11.33	13.33
1365	87.05	24.0	16.0	18.0	10.0	28.0	8.0	8.0	5.0	10.0	12.0	5.0	21.0	-1.0	20.0	4.0	14.0	15.0	4.0	12.0	5.0	1.0	12.0	0.0	5.0	5.0	11.0	1.0
1372	87.505	28.33	1.67	18.67	7.67	-1.33	14.67	17.67	8.67	11.67	10.67	5.67	3.67	8.67	7.67	0.67	-0.33	9.67	20.67	-0.33	7.67	11.67	5.67	6.67	10.67	-4.33	16.67	4.67
1379	87.961	30.33	5.67	-1.33	4.67	13.67	12.67	10.67	6.67	7.67	-1.33	-3.33	6.67	10.67	-6.33	3.67	9.67	-2.33	7.67	0.67	-0.33	1.67	-4.33	-1.33	-6.33	2.67	4.67	10.67
1386	88.417	32.0	-4.0	3.0	2.0	6.0	8.0	8.0	4.0	-7.0	9.0	8.0	2.0	-2.0	-1.0	0.0	4.0	10.0	-4.0	-7.0	10.0	-3.0	-3.0	8.0	-1.0	-9.0	1.0	7.0
1393	88.873	27.33	6.67	1.67	6.67	8.67	4.67	11.67	6.67	8.67	1.67	10.67	8.67	10.67	-4.33	12.67	5.67	9.67	6.67	2.67	7.67	7.67	5.67	-2.33	8.67	1.67	-12.33	16.67
1400	89.329	21.0	13.0	14.0	5.0	13.0	14.0	15.0	19.0	5.0	7.0	19.0	18.0	16.0	14.0	6.0	7.0	5.0	13.0	22.0	11.0	12.0	13.0	13.0	27.0	22.0	4.0	18.0
1407	89.786	28.67	-1.67	14.33	4.33	13.33	8.33	3.33	6.33	-4.67	15.33	5.33	-2.67	10.33	0.33	2.33	3.33	7.33	10.33	7.33	6.33	8.33	7.33	2.33	7.33	-6.67	-4.67	-2.67
1414	90.242	29.33	4.67	2.67	4.67	10.67	-0.33	5.67	5.67	1.67	0.67	13.67	1.67	14.67	-0.33	3.67	1.67	4.67	4.67	-0.33	13.67	-1.33	5.67	5.67	3.67	-0.33	6.67	7.67
1421	90.699	22.0	-1.0	11.0	7.0	7.0	12.0	15.0	13.0	11.0	16.0	10.0	14.0	12.0	6.0	22.0	8.0	11.0	11.0	10.0	20.0	15.0	12.0	14.0	11.0	15.0	22.0	18.0
1428	91.157	23.67	10.33	8.33	2.33	9.33	13.33	7.33	10.33	6.33	9.33	16.33	16.33	13.33	7.33	11.33	23.33	8.33	19.33	14.33	19.33	15.33	19.33	3.33	4.33	4.33	11.33	13.33
1435	91.614	26.0	2.0	5.0	6.0	15.0	7.0	10.0	20.0	4.0	18.0	2.0	13.0	10.0	5.0	8.0	11.0	15.0	18.0	0.0	8.0	12.0	15.0	9.0	18.0	20.0	4.0	25.0
1442	92.071	27.33	6.67	15.67	20.67	7.67	28.67	3.67	8.67	12.67	7.67	5.67	24.67	-4.33	3.67	3.67	14.67	4.67	13.67	6.67	7.67	7.67	16.67	5.67	5.67	12.67	6.67	7.67
1449	92.529	33.67	-7.67	-1.67	-0.67	10.33	11.33	11.33	-3.67	4.33	8.33	13.33	4.33	9.33	3.33	9.33	-4.67	14.33	0.33	-3.67	-1.67	1.33	4.33	9.33	7.33	1.33	9.33	19.33
1456	92.987	30.33	3.67	8.67	-6.33	2.67	7.67	9.67	8.67	2.67	10.67	7.67	3.67	8.67	13.67	8.67	18.67	9.67	1.67	1.67	8.67	-3.33	-2.33	6.67	7.67	6.67	11.67	4.67
1463	93.446	27.0	5.0	6.0	15.0	-8.0	7.0	6.0	12.0	7.0	-3.0	8.0	-2.0	6.0	-1.0	7.0	10.0	5.0	12.0	15.0	13.0	0.0	12.0	8.0	0.0	11.0	14.0	11.0
1470	93.904	31.0	5.0	-4.0	-1.0	-1.0	3.0	7.0	15.0	-1.0	12.0	8.0	14.0	5.0	6.0	6.0	9.0	14.0	7.0	7.0	0.0	-6.0	8.0	0.0	5.0	9.0	5.0	7.0
1477	94.363	31.0	0.0	0.0	6.0	1.0	5.0	3.0	0.0	12.0	3.0	5.0	4.0	3.0	10.0	1.0	-4.0	6.0	1.0	0.0	5.0	-6.0	10.0	7.0	15.0	4.0	-1.0	9.0
1484	94.822	28.67	-0.67	7.33	8.33	8.33	4.33	7.33	11.33	2.33	-0.67	8.33	10.33	15.33	8.33	2.33	19.33	12.33	11.33	9.33	18.33	13.33	10.33	10.33	10.33	14.33	12.33	10.33
1491	95.281	31.0	2.0	3.0	1.0	0.0	7.0	10.0	17.0	12.0	6.0	6.0	25.0	2.0	11.0	4.0	13.0	17.0	13.0	12.0	9.0	12.0	22.0	10.0	8.0	11.0	13.0	16.0
1498	95.74	36.0	-13.0	0.0	1.0	-8.0	2.0	16.0	-3.0	-4.0	17.0	2.0	3.0	-2.0	8.0	4.0	6.0	7.0	19.0	1.0	8.0	1.0	4.0	11.0	2.0	3.0	0.0	8.0
1505	96.2	29.67	5.33	12.33	7.33	9.33	27.33	33.33	11.33	22.33	4.33	16.33	13.33	37.33	30.33	18.33	12.33	20.33	20.33	7.33	13.33	10.33	15.33	26.33	21.33	30.33	4.33	19.33
1512	96.66	29.0	11.0	10.0	5.0	5.0	25.0	14.0	15.0	25.0	33.0	26.0	35.0	19.0	26.0	22.0	23.0	38.0	23.0	34.0	27.0	37.0	25.0	35.0	24.0	28.0	43.0	14.0
1519	97.12	35.33	-6.33	3.67	-1.33	13.67	6.67	16.67	23.67	19.67	28.67	16.67	25.67	24.67	14.67	29.67	30.67	31.67	17.67	26.67	28.67	28.67	18.67	24.67	37.67	34.67	34.67	21.67
1526	97.58	31.33	-0.33	14.67	11.67	13.67	19.67	29.67	30.67	21.67	22.67	24.67	23.67	27.67	34.67	42.67	36.67	40.67	18.67	24.67	38.67	26.67	27.67	37.67	23.67	27.67	18.67	22.67
1533	98.041	37.67	2.33	-1.67	-8.67	-0.67	11.33	7.33	11.33	17.33	15.33	20.33	15.33	24.33	28.33	12.33	25.33	17.33	20.33	22.33	16.33	15.33	20.33	19.33	9.33	12.33	3.33	6.33
1540	98.502	33.67	5.33	9.33	3.33	3.33	7.33	25.33	10.33	2.33	4.33	11.33	0.33	5.33	18.33	15.33	23.33	13.33	15.33	12.33	13.33	10.33	10.33	23.33	17.33	9.33	17.33	3.33
1547	98.963	33.33	17.67	5.67	0.67	3.67	11.67	9.67	8.67	-7.33	6.67	20.67	2.67	9.67	11.67	10.67	11.67	19.67	11.67	17.67	9.67	-2.33	5.67	3.67	1.67	0.67	10.67	4.67
1554	99.424	37.0	-2.0	-13.0	14.0	-3.0	-2.0	7.0	-4.0	3.0	-10.0	3.0	3.0	-4.0	1.0	17.0	3.0	4.0	1.0	5.0	7.0	-7.0	7.0	1.0	3.0	-1.0	10.0	11.0
1561	99.885	29.33	-8.33	3.67	3.67	3.67	7.67	12.67	3.67	9.67	13.67	9.67	16.67	12.67	-0.33	7.67	8.67	6.67	8.67	11.67	7.67	9.67	9.67	15.67	10.67	10.67	4.67	14.67
1568	100.347	26.33	6.67	18.67	11.67	8.67	18.67	13.67	10.67	1.67	12.67	13.67	11.67	15.67	21.67	4.67	27.67	18.67	6.67	8.67	11.67	9.67	14.67	16.67	13.67	16.67	23.67	11.67
1575	100.809	39.0	9.0	-5.0	-2.0	-5.0	-8.0	-4.0	-3.0	2.0	3.0	14.0	-11.0	-5.0	-3.0	-2.0	9.0	11.0	-1.0	3.0	0.0	-2.0	-16.0	7.0	-1.0	16.0	3.0	5.0
1582	101.272	26.0	10.0	14.0	10.0	13.0	18.0	2.0	13.0	10.0	21.0	17.0	7.0	20.0	10.0	17.0	11.0	15.0	17.0	15.0	16.0	7.0	13.0	10.0	12.0	20.0	23.0	23.0
1589	101.734	35.33	2.67	-0.33	12.67	-8.33	-1.33	8.67	-0.33	3.67	1.67	9.67	4.67	11.67	-4.33	0.67	2.67	5.67	6.67	2.67	5.67	9.67	15.67	-1.33	3.67	4.67	2.67	11.67
1596	102.197	33.0	12.0	16.0	18.0	10.0	16.0	4.0	12.0	5.0	8.0	14.0	22.0	11.0	6.0	-3.0	18.0	10.0	1.0	2.0	4.0	1.0	9.0	2.0	3.0	19.0	4.0	21.0
1603	102.66	38.0	-4.0	-7.0	-5.0	0.0	14.0	-11.0	0.0	1.0	17.0	-11.0	8.0	4.0	-10.0	-6.0	1.0	-3.0	-2.0	-1.0	7.0	9.0	-3.0	0.0	1.0	13.0	8.0	2.0
1610	103.123	35.33	-0.33	3.67	-0.33	10.67	2.67	4.67	15.67	0.67	10.67	-4.33	-7.33	3.67	0.67	-1.33	4.67	1.67	8.67	0.67	-4.33	4.67	-4.33	-3.33	13.67	9.67	-0.33	2.67
1617	103.587	28.0	11.0	14.0	10.0	2.0	16.0	3.0	20.0	10.0	14.0	3.0	0.0	12.0	24.0	10.0	5.0	3.0	4.0	19.0	14.0	8.0	14.0	-1.0	7.0	9.0	1.0	2.0
1624	104.051	25.0	7.0	3.0	9.0	17.0	10.0	5.0	5.0	10.0	3.0	12.0	8.0	9.0	16.0	3.0	6.0	10.0	19.0	8.0	12.0	16.0	10.0	18.0	6.0	7.0	2.0	4.0
1631	104.515	28.33	11.67	1.67	0.67	7.67	7.67	6.67	6.67	9.67	-0.33	9.67	-3.33	4.67	4.67	2.67	5.67	2.67	2.67	6.67	8.67	11.67	-0.33	9.67	3.67	-0.33	6.67	-0.33
1638	104.979	25.67	8.33	8.33	-0.67	0.33	5.33	4.33	-1.67	14.33	-0.67	4.33	7.33	13.33	9.33	10.33	6.33	15.33	6.33	2.33	7.33	14.33	17.33	10.33	1.33	-3.67	4.33	10.33
1645	105.444	29.33	-5.33	3.67	-5.33	5.67	4.67	1.67	3.67	10.67	18.67	4.67	4.67	0.67	11.67	1.67	12.67	1.67	2.67	-6.33	0.67	-3.33	-0.33	1.67	2.67	-1.33	-1.33	3.67
1652	105.909	34.33	3.67	-2.33	-4.33	0.67	3.67	0.67	-4.33	-8.33	-8.33	2.67	-8.33	0.67	-4.33	1.67	-2.33	0.67	0.67	-5.33	-5.33	-11.33	-7.33	-1.33	0.67	-16.33	-2.33	-4.33
1659	106.374	24.67	3.33	0.33	9.33	4.33	0.33	7.33	8.33	-2.67	12.33	6.33	11.33	9.33	10.33	6.33	5.33	7.33	6.33	5.33	4.33	2.33	-0.67	3.33	13.33	9.33	2.33	5.33
1666	106.84	26.67	3.33	0.33	3.33	2.33	6.33	10.33	5.33	4.33	5.33	-7.67	7.33	6.33	1.33	1.33	5.33	6.33	10.33	-0.67	8.33	-3.67	-4.67	4.33	5.33	0.33	-1.67	3.33
1673	107.305	29.0	4.0	5.0	3.0	0.0	-4.0	-7.0	-3.0	8.0	-8.0	15.0	-2.0	-1.0	1.0	2.0	-1.0	-1.0	-4.0	3.0	1.0	6.0	5.0	8.0	-3.0	7.0	14.0	1.0
1680	107.771	23.67	15.33	-4.67	3.33	8.33	-5.67	1.33	1.33	1.33	1.33	15.33	8.33	8.33	7.33	8.33	0.33	13.33	5.33	10.33	10.33	-0.67	8.33	2.33	6.33	11.33	11.33	9.33
1687	108.238	29.0	-14.0	3.0	-9.0	-8.0	0.0	-5.0	6.0	-10.0	-2.0	-4.0	4.0	-5.0	3.0	6.0	11.0	-4.0	5.0	4.0	-4.0	7.0	-10.0	3.0	0.0	1.0	-8.0	1.0
1694	108.704	19.33	3.67	17.67	3.67	-1.33	5.67	18.67	5.67	11.67	2.67	14.67	10.67	15.67	5.67	2.67	13.67	10.67	-0.33	9.67	8.67	10.67	5.67	10.67	5.67	16.67	3.67	16.67
1701	109.171	23.67	-2.67	1.33	9.33	-1.67	8.33	5.33	2.33	4.33	-1.67	3.33	3.33	-7.67	4.33	9.33	1.33	9.33	9.33	5.33	8.33	6.33	-0.67	-2.67	17.33	3.33	5.33	-7.67
1708	109.638	27.0	-10.0	-8.0	3.0	-1.0	2.0	2.0	-5.0	-3.0	0.0	-5.0	-5.0	-7.0	0.0	4.0	-3.0	-2.0	-5.0	-1.0	-6.0	4.0	8.0	12.0	5.0	3.0	9.0	5.0
1715	110.106	23.33	-4.33	-6.33	-5.33	1.67	6.67	10.67	1.67	0.67	-3.33	1.67	6.67	4.67	2.67	13.67	-8.33	5.67	5.67	1.67	5.67	1.67	9.67	0.67	0.67	-1.33	-3.33	-3.33
1722	110.574	25.33	-0.33	0.67	-2.33	1.67	-5.33	-0.33	9.67	1.67	-0.33	-1.33	-1.33	-6.33	-7.33	-7.33	-2.33	11.67	-4.33	-7.33	7.67	-3.33	0.67	-3.33	-1.33	1.67	9.67	4.67
1729	111.042	20.33	8.67	4.67	10.67	5.67	-0.33	9.67	13.67	10.67	5.67	7.67	5.67	6.67	9.67	11.67	13.67	11.67	10.67	5.67	6.67	10.67	10.67	1.67	13.67	8.67	-0.33	0.67
1736	111.51	23.0	4.0	18.0	7.0	3.0	3.0	7.0	7.0	15.0	5.0	0.0	0.0	0.0	11.0	6.0	-2.0	10.0	-2.0	2.0	2.0	13.0	5.0	6.0	-6.0	14.0	8.0	6.0
1743	111.979	18.33	10.67	11.67	20.67	12.67	18.67	2.67	12.67	20.67	13.67	9.67	6.67	9.67	16.67	14.67	16.67	7.67	9.67	10.67	10.67	9.67	13.67	4.67	18.67	11.67	9.67	8.67
1750	112.447	19.0	7.0	17.0	9.0	11.0	9.0	16.0	18.0	4.0	11.0	8.0	13.0	19.0	16.0	15.0	18.0	3.0	3.0	19.0	11.0	11.0	18.0	12.0	-2.0	0.0	7.0	7.0
1757	112.917	21.0	-9.0	12.0	16.0	12.0	7.0	6.0	5.0	-2.0	2.0	9.0	9.0	12.0	0.0	4.0	18.0	1.0	9.0	2.0	5.0	-3.0	-1.0	12.0	4.0	7.0	0.0	7.0
1764	113.386	21.33	8.67	8.67	5.67	7.67	-0.33	1.67	-2.33	11.67	5.67	0.67	-0.33	2.67	0.67	7.67	3.67	1.67	0.67	15.67	0.67	-3.33	13.67	2.67	5.67	1.67	0.67	8.67
1771	113.856	21.0	-6.0	2.0	1.0	-4.0	3.0	3.0	-9.0	1.0	-11.0	4.0	7.0	-5.0	-2.0	-6.0	-2.0	0.0	9.0	2.0	5.0	-3.0	13.0	1.0	1.0	1.0	-2.0	2.0
1778	114.326	20.33	8.67	2.67	1.67	-5.33	-2.33	-4.33	-1.33	-0.33	5.67	2.67	-3.33	2.67	0.67	0.67	-1.33	-5.33	-1.33	-0.33	-3.33	-5.33	-4.33	0.67	-2.33	6.67	-3.33	4.67
1785	114.796	13.0	0.0	10.0	12.0	2.0	-1.0	9.0	21.0	-1.0	2.0	2.0	3.0	8.0	10.0	3.0	7.0	6.0	12.0	7.0	14.0	7.0	14.0	10.0	13.0	15.0	11.0	11.0
1792	115.267	20.67	-4.67	1.33	4.33	-5.67	-0.67	0.33	3.33	4.33	7.33	1.33	-9.67	0.33	0.33	3.33	0.33	-3.67	-9.67	-5.67	-4.67	2.33	3.33	5.33	2.33	-3.67	-0.67	3.33
1799	115.738	18.67	-2.67	-6.67	-6.67	-0.67	1.33	-0.67	-0.67	-1.67	-3.67	-0.67	2.33	-3.67	-0.67	5.33	1.33	-0.67	5.33	1.33	-2.67	-3.67	-1.67	4.33	4.33	1.33	7.33	-0.67
1806	116.209	17.0	5.0	-2.0	1.0	-3.0	2.0	3.0	3.0	3.0	0.0	11.0	5.0	6.0	7.0	10.0	10.0	0.0	3.0	10.0	6.0	5.0	4.0	0.0	-4.0	0.0	6.0	12.0
1813	116.681	16.67	-6.67	-1.67	2.33	2.33	-0.67	-3.67	4.33	-2.67	0.33	7.33	8.33	2.33	1.33	3.33	8.33	5.33	10.33	1.33	-2.67	2.33	2.33	15.33	1.33	-0.67	-3.67	10.33
1820	117.153	18.0	-2.0	-7.0	-4.0	-2.0	2.0	-3.0	0.0	0.0	-3.0	11.0	-2.0	5.0	1.0	-2.0	-1.0	3.0	1.0	3.0	0.0	5.0	-4.0	0.0	-4.0	-3.0	7.0	0.0
1827	117.625	15.33	10.67	1.67	-3.33	0.67	6.67	-1.33	14.67	0.67	-7.33	2.67	0.67	-1.33	0.67	-3.33	6.67	-0.33	2.67	0.67	2.67	9.67	-3.33	7.67	11.67	0.67	-3.33	2.67
1834	118.098	15.67	1.33	3.33	-2.67	7.33	1.33	1.33	1.33	0.33	2.33	4.33	4.33	-1.67	-1.67	7.33	12.33	8.33	-5.67	0.33	5.33	3.33	1.33	3.33	4.33	5.33	1.33	4.33
1841	118.571	20.0	-9.0	-10.0	-3.0	-7.0	0.0	-1.0	0.0	-1.0	4.0	-7.0	-10.0	-8.0	-8.0	-6.0	-5.0	-5.0	-7.0	-3.0	2.0	-1.0	-9.0	1.0	-4.0	-5.0	-9.0	4.0
1848	119.044	15.33	1.67	7.67	-1.33	-2.33	-0.33	1.67	-2.33	-0.33	5.67	5.67	3.67	0.67	-1.33	5.67	3.67	4.67	-2.33	2.67	-1.33	4.67	0.67	1.67	2.67	2.67	3.67	0.67
1855	119.518	18.0	3.0	2.0	-1.0	-6.0	-5.0	0.0	-3.0	-6.0	-8.0	-3.0	-3.0	8.0	3.0	2.0	-1.0	-1.0	8.0	-4.0	2.0	1.0	7.0	-8.0	-2.0	-3.0	2.0	-6.0
1862	119.991	14.67	-5.67	4.33	-0.67	-3.67	1.33	-1.67	-2.67	2.33	4.33	1.33	-2.67	0.33	3.33	7.33	-3.67	4.33	4.33	-3.67	-5.67	15.33	1.33	1.33	3.33	-1.67	7.33	2.33
1869	120.466	16.0	-9.0	-2.0	-4.0	-3.0	-5.0	2.0	-2.0	0.0	-3.0	0.0	5.0	-2.0	-8.0	1.0	-1.0	-7.0	0.0	-5.0	-7.0	1.0	3.0	-1.0	3.0	3.0	0.0	-1.0
1876	120.94	13.0	3.0	3.0	5.0	3.0	2.0	-1.0	0.0	3.0	1.0	3.0	-3.0	2.0	-1.0	-1.0	-2.0	3.0	-3.0	-4.0	-6.0	3.0	1.0	2.0	1.0	3.0	4.0	6.0
1883	121.415	12.0	3.0	1.0	4.0	6.0	8.0	-5.0	6.0	5.0	2.0	-5.0	4.0	2.0	1.0	6.0	4.0	4.0	1.0	4.0	5.0	-3.0	-2.0	-2.0	5.0	-1.0	5.0	2.0
1890	121.89	14.67	0.33	5.33	-0.67	5.33	1.33	3.33	5.33	0.33	2.33	6.33	0.33	-2.67	2.33	-1.67	-1.67	9.33	5.33	7.33	2.33	2.33	-1.67	4.33	-4.67	-7.67	6.33	4.33
1897	122.366	13.33	6.67	6.67	2.67	5.67	-3.33	5.67	-0.33	4.67	2.67	0.67	1.67	-0.33	-0.33	1.67	-0.33	1.67	2.67	6.67	1.67	1.67	-2.33	3.67	5.67	10.67	0.67	-1.33
1904	122.841	15.0	1.0	2.0	1.0	10.0	5.0	5.0	9.0	1.0	-5.0	0.0	0.0	2.0	-7.0	1.0	2.0	-4.0	8.0	5.0	2.0	4.0	0.0	6.0	-4.0	6.0	-5.0	6.0
1911	123.318	13.33	-2.33	-0.33	10.67	-2.33	3.67	-2.33	3.67	1.67	6.67	-0.33	8.67	3.67	3.67	-2.33	-2.33	3.67	2.67	-0.33	3.67	-0.33	5.67	3.67	12.67	-1.33	2.67	-1.33
1918	123.794	11.33	3.67	3.67	-1.33	7.67	-2.33	6.67	3.67	8.67	-0.33	2.67	4.67	-4.33	0.67	11.67	3.67	5.67	9.67	1.67	3.67	2.67	-0.33	1.67	5.67	-1.33	3.67	3.67
1925	124.271	13.0	0.0	4.0	-2.0	0.0	2.0	9.0	4.0	1.0	2.0	-3.0	-6.0	0.0	8.0	2.0	4.0	0.0	-1.0	-1.0	1.0	-3.0	5.0	3.0	4.0	4.0	6.0	-7.0
1932	124.748	12.67	0.33	1.33	0.33	-4.67	-5.67	2.33	4.33	4.33	2.33	-6.67	0.33	1.33	2.33	-2.67	0.33	0.33	0.33	2.33	-0.67	-1.67	4.33	1.33	1.33	4.33	-0.67	-1.67
1939	125.226	10.33	6.67	1.67	0.67	-3.33	3.67	-0.33	-2.33	0.67	4.67	-4.33	3.67	3.67	0.67	2.67	5.67	-1.33	6.67	2.67	2.67	1.67	1.67	-2.33	1.67	-6.33	11.67	2.67
1946	125.704	13.67	-2.67	-2.67	-4.67	-4.67	-4.67	-0.67	0.33	-8.67	-7.67	-3.67	0.33	0.33	-5.67	6.33	-4.67	-2.67	-1.67	1.33	-2.67	6.33	-3.67	1.33	-3.67	2.33	-4.67	1.33
1953	126.182	7.67	0.33	5.33	9.33	3.33	2.33	-1.67	5.33	8.33	2.33	3.33	5.33	5.33	8.33	0.33	7.33	4.33	5.33	6.33	0.33	-0.67	5.33	4.33	6.33	1.33	0.33	5.33
1960	126.66	9.33	7.67	0.67	0.67	-2.33	-0.33	-3.33	1.67	4.67	-3.33	-0.33	4.67	2.67	2.67	0.67	0.67	1.67	5.67	-3.33	5.67	-0.33	8.67	3.67	4.67	0.67	8.67	-1.33
1967	127.139	10.67	-1.67	5.33	3.33	5.33	-3.67	-4.67	0.33	1.33	-0.67	4.33	8.33	-1.67	-1.67	-4.67	1.33	12.33	1.33	-0.67	2.33	-0.67	4.33	9.33	0.33	1.33	2.33	7.33
1974	127.619	8.67	-0.67	1.33	5.33	6.33	2.33	5.33	-1.67	1.33	0.33	-2.67	2.33	2.33	2.33	-3.67	2.33	5.33	-0.67	5.33	4.33	7.33	4.33	1.33	6.33	4.33	2.33	0.33
1981	128.098	9.67	-2.67	0.33	0.33	-4.67	1.33	3.33	1.33	4.33	4.33	5.33	-2.67	-4.67	11.33	-1.67	-1.67	-3.67	5.33	1.33	2.33	4.33	-2.67	0.33	8.33	1.33	7.33	-0.67
1988	128.578	12.33	5.67	-1.33	3.67	-4.33	-3.33	-6.33	1.67	0.67	-6.33	-5.33	-1.33	-5.33	-1.33	0.67	-1.33	-3.33	-3.33	-2.33	-4.33	1.67	1.67	-3.33	-3.33	-3.33	3.67	1.67
1995	129.059	9.0	10.0	-5.0	-2.0	-1.0	0.0	-3.0	3.0	6.0	3.0	-1.0	0.0	4.0	2.0	-2.0	-2.0	1.0	5.0	1.0	2.0	3.0	0.0	0.0	3.0	0.0	3.0	-2.0
2002	129.539	9.33	-1.33	-0.33	1.67	4.67	-0.33	0.67	-1.33	-0.33	3.67	1.67	3.67	-1.33	5.67	-3.33	1.67	3.67	3.67	-3.33	-0.33	-0.33	4.67	1.67	10.67	4.67	-2.33	1.67
2009	130.02	10.0	6.0	-5.0	-3.0	2.0	-1.0	-3.0	-3.0	2.0	5.0	0.0	-1.0	-1.0	2.0	-1.0	1.0	1.0	-2.0	2.0	5.0	1.0	3.0	1.0	-1.0	-3.0	-1.0	0.0
2016	130.502	9.67	-1.67	-3.67	-2.67	-2.67	-0.67	-3.67	-2.67	-2.67	1.33	4.33	3.33	-1.67	0.33	-2.67	1.33	0.33	1.33	-3.67	5.33	9.33	4.33	-4.67	0.33	-4.67	-2.67	6.33
2023	130.984	5.0	3.0	8.0	5.0	4.0	5.0	7.0	9.0	8.0	3.0	4.0	9.0	4.0	5.0	8.0	4.0	3.0	1.0	3.0	0.0	5.0	6.0	2.0	0.0	12.0	10.0	10.0
2030	131.466	7.0	2.0	2.0	5.0	0.0	3.0	2.0	-2.0	4.0	4.0	4.0	-1.0	5.0	7.0	2.0	-1.0	1.0	-1.0	1.0	7.0	4.0	3.0	3.0	6.0	6.0	3.0	5.0
2037	131.948	6.67	0.33	-3.67	3.33	1.33	-2.67	2.33	5.33	2.33	1.33	3.33	0.33	5.33	0.33	-1.67	9.33	-0.67	7.33	1.33	-0.67	-1.67	3.33	-2.67	1.33	6.33	9.33	3.33
2044	132.431	7.67	1.33	8.33	-0.67	-1.67	1.33	0.33	-2.67	2.33	0.33	-0.67	2.33	-0.67	1.33	2.33	0.33	0.33	-3.67	2.33	2.33	0.33	-1.67	4.33	-0.67	4.33	-0.67	-1.67
2047	132.638	10.67	-3.67	-3.67	-5.67	-4.67	-3.67	-5.67	-3.67	-3.67	-4.67	-6.67	-2.67	3.33	0.33	-1.67	-1.67	0.33	-2.67	-4.67	1.33	-0.67	-1.67	-0.67	-1.67	1.33	-4.67	-0.67