File: EDX Back Ups and Old Files/Spectra copy 3.3.23/Samples/High pH BL 25C 14d/10.0.txt
0.0
40.0
-42.67
-8.33
105.67
5.33
-37.33
-25.67
-10.33
49.33
-23.0
-15.0
7.33
-3.33
-6.0
-7.33
3.0
-2.33
-3.33
1.33
1.0
1.0
1.0
-1.33
-0.67
-1.33
-0.33
0.0
1.0
0.0
0.0
-0.33
0.0
0.0
1.0
1.0
1.0
-0.33
0.0
0.67
-0.33
0.0
0.67
0.0
0.0
-0.67
-1.0
-1.33
1.0
0.0
-1.67
0.0
-1.0
0.67
-1.0
1.0
-1.67
1.67
2.0
0.33
-3.33
0.0
-2.0
3.0
-1.67
0.0
2.33
-0.33
1.33
1.33
-4.33
2.0
1.67
2.67
3.33
-1.67
2.67
-2.33
0.33
4.0
2.33
6.0
-4.67
-2.0
3.0
7.67
0.33
4.33
0.67
2.67
-0.33
-2.33
2.0
0.67
7.33
-0.67
11.0
8.0
-6.33
4.0
-1.67
-1.0
-4.67
2.0
-1.33
7.67
-4.67
6.33
7.0
10.0
1.67
-2.0
2.0
8.0
0.67
2.33
-1.67
8.67
1.33
2.67
7.33
0.33
0.67
2.33
-1.67
2.33
6.67
-4.33
-3.0
8.67
3.67
1.33
1.33
1.33
-2.0
1.67
3.33
-2.0
4.33
-1.0
6.33
-0.67
5.67
0.33
11.33
3.0
-1.0
4.0
6.0
-3.67
2.33
8.33
-1.33
-0.67
4.33
6.67
-1.33
5.0
5.0
0.67
9.0
10.67
5.0
-4.67
2.0
0.0
0.67
-1.33
-0.33
1.0
6.67
3.0
4.67
1.0
2.33
-6.0
-2.33
8.33
-3.67
5.0
6.0
-4.67
-6.33
-4.0
-5.33
0.33
-2.67
3.67
-4.0
-1.33
5.67
1.33
5.0
0.33
0.33
6.67
0.0
6.67
0.33
-2.67
0.67
-4.33
8.67
1.33
1.33
-0.33
0.67
-8.33
5.0
7.33
1.33
4.33
-1.33
5.67
0.33
2.33
1.0
2.33
4.0
2.0
-4.33
1.33
1.0
3.33
5.33
-1.33
0.0
5.33
1.67
4.33
0.33
1.0
-2.0
3.0
3.0
1.67
1.67
1.0
2.33
-1.0
2.33
2.67
-2.0
-2.33
-1.0
-5.0
-2.67
4.33
6.67
-6.33
-0.33
2.0
3.33
0.67
2.67
3.0
-2.67
-1.33
-0.33
-2.0
3.67
2.67
2.33
0.67
-1.0
-5.33
4.67
3.33
-3.0
-3.0
-1.0
1.0
2.0
2.67
-2.0
7.33
-2.67
0.33
0.67
1.0
3.67
0.67
-1.0
-1.67
1.67
6.0
2.67
2.0
3.0
0.0
2.0
-1.0
-3.33
-0.67
6.33
-0.33
-0.33
1.67
2.33
-2.0
-0.33
-0.33
-3.67
-1.0
-0.67
0.67
1.0
0.67
-3.0
4.67
-2.0
-2.33
6.67
-0.67
5.33
1.67
-1.0
-2.0
-0.67
-0.67
1.33
-1.33
-1.0
2.67
1.0
-2.33
-2.33
2.67
6.33
-1.33
-2.0
3.0
-2.0
3.33
-0.33
7.67
-3.67
-3.0
1.67
-1.0
2.67
1.0
-1.33
-2.67
-2.0
-1.0
2.67
1.33
0.0
-5.33
-1.33
-2.0
-1.33
-2.33
3.67
-2.0
1.67
-6.33
3.0
5.0
5.0
-0.67
0.67
-3.33
7.67
4.0
-0.67
1.0
-0.67
-1.0
-1.0
1.67
0.67
0.33
-5.0
0.33
-3.33
-1.0
-3.67
1.0
1.0
-1.33
-2.0
5.0
-1.0
2.0
-1.67
9.33
1.33
2.0
-1.67
0.33
-1.33
2.67
-2.33
3.0
1.0
2.0
13.0
2.33
9.67
9.67
17.67
18.67
37.67
15.0
40.67
34.67
27.33
33.33
30.0
17.0
22.0
8.0
5.0
1.33
8.33
2.0
5.33
8.0
-7.67
2.0
-1.0
4.33
8.33
0.33
0.0
-1.67
8.67
0.33
-0.67
-2.33
0.0
2.33
3.67
1.33
3.33
3.0
-3.33
-1.0
3.67
3.67
1.0
3.67
-1.33
-6.0
8.0
-1.67
-3.67
5.67
2.67
2.33
9.33
-3.33
9.67
2.67
3.33
-6.33
5.33
-3.33
6.33
5.33
1.0
4.67
1.0
12.67
9.67
3.67
-1.67
4.33
2.33
-2.33
-2.0
-0.67
4.33
1.67
4.67
12.67
1.0
-0.67
5.33
4.0
-1.0
-1.0
-2.67
-1.33
5.67
0.67
3.67
5.33
-0.33
3.0
0.33
-2.0
5.67
0.33
9.67
5.67
-4.33
3.0
4.0
-10.33
-2.67
6.0
0.0
3.67
-1.67
14.0
9.0
3.67
15.0
21.0
10.0
19.0
16.33
20.67
31.33
15.0
23.33
13.33
23.0
19.0
23.33
6.67
14.67
7.33
8.67
8.0
13.0
12.67
4.67
16.0
8.0
10.0
5.0
5.0
-3.67
3.0
0.33
4.67
2.67
6.0
6.67
10.33
2.0
17.0
9.0
16.33
5.33
4.67
6.67
4.0
10.0
7.0
10.67
7.33
12.0
19.33
14.0
5.33
3.67
9.0
6.0
-1.0
7.67
16.33
6.0
2.67
15.0
8.0
7.33
10.67
11.0
10.33
7.0
3.0
8.67
5.67
9.0
14.67
8.33
16.33
3.67
6.0
4.33
4.33
3.0
8.33
11.33
1.67
13.0
12.67
17.67
16.0
4.0
11.67
17.67
-5.67
7.33
16.33
-0.33
10.33
5.0
11.67
9.33
4.67
5.67
7.67
10.67
7.0
9.0
11.0
9.0
6.0
12.0
4.67
15.33
8.67
12.67
5.33
24.33
-6.33
7.33
7.67
9.67
16.67
4.67
7.0
8.67
8.0
7.0
-3.67
6.67
12.0
12.33
11.0
13.67
0.33
9.33
28.0
18.33
17.0
12.0
18.67
23.33
23.67
26.33
25.33
23.33
36.33
40.67
52.67
53.33
85.33
103.33
126.33
120.33
114.33
147.67
138.0
118.67
126.33
100.33
87.67
108.0
70.33
47.67
38.0
17.0
14.67
25.33
16.67
5.0
8.67
9.67
-5.67
9.33
12.0
13.0
14.33
23.0
-0.33
20.0
9.67
7.0
7.33
5.67
24.0
26.0
4.0
16.0
22.0
19.67
8.0
-0.67
9.67
13.33
2.67
11.33
7.0
19.0
2.33
17.33
0.0
3.33
1.33
5.0
13.67
2.33
15.67
13.33
12.33
3.33
6.0
16.33
19.33
18.67
-0.33
17.67
-9.0
4.0
5.67
22.67
15.0
10.0
14.67
4.67
2.0
7.67
6.0
15.33
9.0
7.0
12.67
7.67
8.0
-4.33
4.33
11.67
4.0
10.33
24.33
8.33
9.33
5.67
14.33
8.67
4.67
13.33
2.0
20.67
17.33
4.67
14.33
16.67
25.33
26.0
21.33
27.67
33.33
29.0
30.67
31.0
24.67
44.33
18.0
15.33
22.33
23.67
18.0
11.33
5.33
8.67
12.0
14.33
8.33
14.67
3.0
4.0
4.0
4.0
6.33
-0.33
11.33
13.67
10.33
3.33
0.0
1.0
9.33
3.67
17.0
1.0
5.67
-7.33
4.67
6.33
3.67
14.0
15.67
4.67
13.0
12.0
5.0
19.33
-4.33
17.33
16.67
13.33
14.0
8.0
1.0
12.0
-0.33
8.0
-8.33
-5.33
4.0
2.67
4.33
10.33
5.33
-0.33
9.0
0.0
-4.0
2.67
13.67
5.0
-3.0
10.0
11.33
0.0
-7.67
4.0
4.33
20.67
15.33
-8.33
7.33
15.33
6.67
-10.0
1.67
8.33
-1.33
-0.33
14.67
10.67
0.0
6.33
5.67
0.0
7.67
-5.0
-2.0
-8.0
2.67
-4.0
2.33
7.67
-1.33
-2.67
0.0
3.67
-1.33
8.67
5.33
0.0
1.33
6.33
-4.33
15.0
15.0
1.0
8.0
7.33
6.67
15.0
7.33
0.67
-3.0
0.67
7.0
-1.33
3.33
10.0
5.33
6.33
2.67
3.33
7.33
-3.67
-0.67
7.33
-2.0
1.33
5.67
-5.67
1.0
0.67
-2.67
-2.67
11.0
2.67
-2.33
7.33
-8.0
1.67
-0.33
11.0
-3.33
13.33
1.33
-4.0
1.33
0.33
4.33
2.67
7.33
-6.0
0.67
4.67
4.0
5.67
2.33
9.0
0.67
3.0
3.67
-2.67
1.33
2.67
2.0
0.67
3.67
1.33
2.0
3.0
6.33
-7.67
-0.33
-6.33
-2.67
0.0
6.33
12.67
1.0
-1.33
8.0
5.33
13.33
0.0
1.33
1.67
5.33
5.0
6.67
1.0
2.67
6.33
3.67
-1.67
3.67
1.67
1.0
-6.67
2.33
1.0
1.33
-3.33
0.0
3.33
-3.67
1.33
-3.33
0.33
-6.33
1.67
-3.0
-0.33
-4.33
5.0
-0.33
2.33
-0.33
6.0
-2.67
-0.67
3.67
2.0
14.0
4.33
3.33
-5.33
-3.33
-1.67
0.0
-4.67
1.33
2.0
1.67
-6.0
-5.0
-1.0
-3.67
4.0
0.67
4.33
-6.0
2.67
1.33
6.67
0.67
-2.33
4.0
-0.33
4.33
1.67
0.67
0.67
3.33
-0.67
3.33
-6.67