File: EDX Back Ups and Old Files/Spectra copy 3.3.23/Samples/High pH BL 25C 14d/10.5.txt
0.0
57.0
18.33
27.67
81.67
69.33
6.67
19.33
17.67
53.33
-20.0
10.0
-6.67
-2.33
-14.0
1.67
1.0
3.67
-0.33
-1.67
-1.0
0.0
1.0
-1.33
1.33
-1.33
-0.33
0.0
0.0
0.0
0.0
-0.33
0.0
1.0
2.0
1.0
0.0
-0.33
1.0
-0.33
0.67
0.0
-0.33
0.0
1.0
-0.67
-1.0
-0.33
-1.0
-1.0
0.33
0.0
-1.0
2.67
2.0
1.0
-2.67
-0.33
-1.0
0.33
-1.33
2.0
0.0
2.0
-0.67
0.0
-2.67
-1.33
3.33
-0.67
-0.33
3.0
-3.33
-3.33
-3.67
3.33
4.67
-2.33
3.33
3.0
3.33
5.0
-4.67
-1.0
3.0
5.67
4.33
-2.67
4.67
0.67
-3.33
-5.33
5.0
4.67
-0.67
0.33
9.0
3.0
-3.33
-5.0
4.33
4.0
1.33
0.0
0.67
-1.33
6.33
2.33
7.0
3.0
-0.33
1.0
-2.0
3.0
5.67
8.33
-1.67
3.67
0.33
1.67
-5.67
-2.67
-4.33
6.33
1.33
2.33
8.67
8.67
1.0
6.67
-4.33
-0.67
-0.67
7.33
1.0
8.67
7.33
-9.0
-0.67
4.0
10.33
4.33
2.67
4.33
7.33
7.0
3.0
-1.0
6.0
-2.67
1.33
-0.67
-0.33
-3.67
4.33
7.67
-1.33
3.0
8.0
2.67
2.0
6.67
1.0
2.33
-1.0
5.0
-4.33
0.67
3.67
-5.0
3.67
5.0
1.67
4.0
6.33
-7.0
-1.33
-0.67
0.33
-2.0
3.0
0.33
1.67
-3.0
-7.33
1.33
-2.67
-0.33
-4.0
2.67
-0.33
0.33
-3.0
-0.67
3.33
-0.33
2.0
-0.33
-2.67
-3.67
8.67
-8.33
-3.33
1.33
0.33
7.67
1.67
5.67
5.0
-2.67
7.33
-3.67
1.67
2.67
1.33
3.33
-3.0
-0.67
6.0
3.0
-7.33
5.33
4.0
-2.67
0.33
4.67
5.0
3.33
10.67
5.33
0.33
-2.0
8.0
2.0
3.0
3.67
0.67
1.0
0.33
4.0
-2.67
3.67
-4.0
2.67
2.0
-3.0
2.33
0.33
-0.33
0.67
3.67
0.0
-1.67
-2.33
6.67
0.0
-0.67
0.67
-3.33
1.0
1.67
5.67
1.33
-0.33
0.0
-0.33
5.67
-1.67
0.0
-1.0
2.0
3.0
0.0
-2.33
2.0
3.33
2.33
-0.67
-5.33
-4.0
2.67
-4.33
2.0
-4.67
0.67
2.0
-1.33
2.0
2.0
0.0
-3.0
1.0
-1.33
1.33
1.33
0.67
-2.33
1.67
1.33
4.0
-2.33
-0.33
2.33
-4.0
5.33
-1.33
-2.0
-1.33
2.0
5.67
-1.0
2.67
-0.33
2.33
-0.67
-0.33
0.0
-1.0
2.33
-1.67
-2.67
3.67
2.0
1.67
3.0
0.67
-2.33
2.67
5.33
-3.33
2.0
1.0
-1.0
1.33
3.67
-1.33
-1.67
0.0
6.67
-3.0
-1.33
-1.0
-3.33
2.33
-2.0
1.0
1.67
-1.67
-3.0
1.67
-3.33
4.0
1.67
0.67
2.67
0.0
1.67
-0.33
5.0
-2.0
5.0
4.33
-0.33
0.67
0.67
5.0
3.33
2.0
-1.67
-3.0
-1.0
-2.33
0.67
2.33
-5.0
-1.67
-1.33
-3.0
0.33
-5.0
6.0
0.67
-2.0
4.0
-1.0
-4.0
0.33
-1.67
-9.67
2.0
1.33
-0.67
1.67
4.67
3.67
1.0
4.0
3.0
7.0
6.33
8.67
6.67
21.67
5.67
22.67
33.0
27.67
29.67
17.33
20.33
31.0
20.0
18.0
8.0
-1.0
14.33
3.33
1.0
5.33
15.0
10.33
-2.0
5.0
-0.67
4.33
5.33
9.0
1.33
3.67
-3.67
2.33
0.67
-1.0
-0.67
-1.33
-1.67
6.33
9.0
-1.33
3.0
1.67
5.67
6.0
5.67
-0.33
0.0
9.0
2.33
-0.67
-1.33
11.67
4.33
12.33
2.67
1.67
0.67
6.33
1.67
2.33
3.67
7.33
0.33
9.0
1.67
13.0
9.67
2.67
3.67
4.33
-2.67
18.33
0.67
1.0
-3.67
12.33
2.67
0.67
3.67
7.0
0.33
3.33
5.0
6.0
2.0
3.33
2.67
0.67
0.67
7.67
0.33
1.67
1.0
2.33
1.0
0.67
2.33
5.67
4.67
0.67
-3.0
-1.0
7.67
-7.67
6.0
2.0
1.67
1.33
10.0
2.0
3.67
9.0
13.0
4.0
22.0
17.33
23.67
31.33
35.0
24.33
28.33
18.0
24.0
28.33
4.67
9.67
8.33
7.67
9.0
6.0
10.67
-7.33
16.0
1.0
3.0
5.0
10.0
0.33
8.0
3.33
4.67
4.67
13.0
3.67
8.33
6.0
4.0
4.0
20.33
10.33
5.67
11.67
11.0
0.0
11.0
8.67
3.33
4.0
14.33
14.0
12.33
9.67
2.0
10.0
8.0
4.67
12.33
11.0
7.67
6.0
0.0
12.33
18.67
9.0
8.33
2.0
-1.0
14.67
13.67
15.0
14.67
9.33
7.33
11.67
16.0
7.33
-2.67
-7.0
18.33
4.33
10.67
3.0
10.67
21.67
13.0
3.0
17.67
3.67
6.33
16.33
7.33
9.67
14.33
1.0
17.67
13.33
10.67
18.67
19.67
13.67
7.0
10.0
13.0
15.0
18.0
14.0
2.67
15.33
14.67
7.67
13.33
10.33
16.67
15.33
0.67
12.67
3.67
7.67
7.0
9.67
8.0
8.0
0.33
14.67
1.0
20.33
8.0
13.67
5.33
12.33
14.0
14.33
24.0
12.0
32.67
21.33
19.67
23.33
40.33
40.33
38.33
57.67
64.67
81.33
96.33
129.33
161.33
161.33
160.33
143.67
181.0
166.67
134.33
146.33
104.67
94.0
94.33
42.67
27.0
30.0
29.67
14.33
16.67
16.0
26.67
17.67
2.33
15.33
4.0
1.0
13.33
15.0
5.67
14.0
17.67
3.0
8.33
11.67
6.0
4.0
20.0
7.0
2.0
6.67
-7.0
2.33
10.67
1.33
11.67
13.33
6.0
5.0
13.33
2.33
2.0
11.33
3.33
19.0
1.67
5.33
13.67
19.33
11.33
14.33
1.0
6.33
13.33
19.67
2.67
7.67
6.0
-6.0
12.67
12.67
13.0
13.0
15.67
14.67
16.0
2.67
13.0
10.33
13.0
-2.0
9.67
2.67
-1.0
2.67
2.33
10.67
-1.0
1.33
15.33
2.33
6.33
-7.33
0.33
5.67
12.67
6.33
-4.0
21.67
18.33
23.67
20.33
28.67
34.33
25.0
37.33
15.67
18.33
34.0
35.67
22.0
21.67
27.33
8.0
22.33
14.33
7.67
32.0
2.33
-2.67
11.67
10.0
7.33
9.33
6.67
3.0
13.0
10.0
10.0
-2.67
5.67
11.33
1.67
21.33
17.33
9.0
12.0
-3.67
-0.33
10.0
-1.0
9.67
-0.33
15.67
-4.67
14.67
5.0
10.67
4.67
7.0
6.0
0.0
13.33
0.67
0.33
12.67
11.33
11.0
12.0
-7.0
10.0
-1.33
2.0
1.67
-10.33
2.0
2.67
14.33
-0.67
5.33
5.67
14.0
-13.0
2.0
-8.33
7.67
-6.0
3.0
10.0
6.33
8.0
4.33
8.0
3.33
11.67
8.33
2.67
5.33
1.33
3.67
6.0
-7.33
8.33
-1.33
8.67
11.67
3.67
3.0
7.33
19.67
-2.0
5.67
-3.0
0.0
4.0
4.67
0.0
5.33
8.67
1.67
-11.67
0.0
1.67
0.67
0.67
-2.67
15.0
0.33
0.33
6.67
12.0
12.0
9.0
4.0
6.33
6.67
10.0
11.33
7.67
9.0
11.67
-3.0
1.67
-5.67
-1.0
6.33
9.33
-0.33
-4.67
4.33
-1.67
1.33
-6.67
-11.0
4.33
9.67
-0.67
9.0
-4.33
-0.67
1.33
3.0
-3.33
3.67
5.33
3.0
4.67
6.67
0.0
7.67
-3.67
8.33
-2.0
-6.67
3.33
0.33
9.67
-3.67
-1.0
1.67
5.67
5.0
-0.33
4.33
-4.0
4.67
3.0
-1.33
-1.67
2.33
-3.33
-2.0
10.67
7.67
4.33
-4.0
3.0
0.33
-0.67
1.67
-5.33
0.33
1.0
0.33
2.67
1.0
6.67
-2.0
4.33
6.33
1.0
5.33
-7.33
-1.67
2.0
5.67
4.0
8.67
2.33
-0.33
6.33
2.67
-0.33
6.0
4.33
-1.67
1.0
-3.67
-7.33
0.0
-8.67
-8.67
7.33
5.67
0.33
-0.33
5.67
-3.0
4.67
-9.33
-5.0
1.67
0.33
-5.33
1.0
1.33
-3.67
-2.33
0.0
-4.0
-0.67
1.33
0.67
1.67
-2.67
0.0
-5.67
5.33
1.0
-0.33
-1.0
-2.0
3.0
-0.67
-2.0
0.67
-2.67
3.0
-2.33
5.33
-4.33
-0.33
-6.33
4.0
-0.33
-0.67
1.67
-1.33
-4.33
-3.67
2.33
-0.67
-3.67