File: EDX Back Ups and Old Files/Spectra copy 3.3.23/Samples/High pH BL 25C 14d/8.25.txt
0.0
39.0
8.33
-5.33
-37.33
78.33
-15.33
77.33
22.67
21.33
-15.0
-9.0
-17.67
-6.33
-4.0
-3.33
-3.0
4.67
-1.33
0.33
1.0
0.0
1.0
-1.33
-0.67
-1.33
1.67
0.0
0.0
0.0
0.0
-0.33
0.0
-1.0
1.0
0.0
0.0
0.67
0.0
1.67
-0.33
0.0
0.67
0.0
0.0
-0.67
0.0
-0.33
-1.0
-1.0
-1.67
2.0
-1.0
-0.33
1.0
1.0
-1.67
0.67
-1.0
1.33
-4.33
0.0
1.0
1.0
-0.67
5.0
-3.67
4.67
6.33
1.33
-3.33
-1.0
0.67
-3.33
6.33
1.33
8.67
-4.33
1.33
10.0
8.33
2.0
0.33
1.0
14.0
8.67
3.33
3.33
0.67
7.67
1.67
0.67
14.0
2.67
2.33
6.33
10.0
1.0
1.67
-1.0
1.33
7.0
-0.67
8.0
2.67
-1.33
-0.67
2.33
5.0
0.0
7.67
0.0
-3.0
9.0
1.67
-0.67
7.33
4.67
-1.67
-0.33
6.33
3.33
-0.33
7.33
3.33
7.33
0.67
0.67
4.0
9.67
-3.33
4.33
5.33
4.33
0.0
-2.33
7.33
-6.0
5.33
0.0
1.33
-0.67
1.67
0.33
5.33
-2.0
3.0
3.0
0.0
2.33
1.33
7.33
5.67
1.33
-0.67
-1.33
2.67
11.0
1.0
5.67
6.0
9.67
-2.0
6.33
-2.0
9.0
6.67
3.67
0.67
0.0
5.67
8.0
-1.33
2.0
3.33
-2.0
-5.33
5.33
1.33
3.0
3.0
-7.67
0.67
-3.0
-3.33
3.33
-6.67
5.67
3.0
3.67
-0.33
4.33
8.0
4.33
-2.67
3.67
4.0
5.67
-0.67
5.33
7.67
-2.33
4.67
0.33
2.33
-0.33
-2.33
-2.33
2.0
-0.67
4.33
5.33
-1.33
-0.33
5.33
11.33
2.0
8.33
4.0
0.0
2.67
11.33
2.0
-3.67
0.33
-2.33
-4.0
2.33
5.67
3.33
5.33
2.0
2.0
0.0
0.0
5.67
-3.33
7.0
0.33
7.0
2.33
3.67
-1.0
0.67
6.0
-1.0
-2.67
3.33
0.67
-2.33
-1.33
2.0
3.33
0.67
2.67
1.0
2.33
0.67
1.67
0.0
0.67
1.67
1.33
1.67
0.0
-0.33
2.67
5.33
2.0
0.0
4.0
2.0
3.0
3.67
2.0
-2.67
0.33
-2.67
3.67
-2.0
-0.33
0.67
2.0
2.33
-0.33
2.0
5.67
-1.0
7.0
-3.0
0.0
-4.0
-3.33
3.33
3.33
6.67
-1.33
1.67
1.33
0.0
-0.33
0.67
8.33
1.0
0.33
-3.33
0.0
0.67
3.0
6.67
4.0
-0.33
-0.33
0.33
3.33
2.67
0.0
-2.0
-0.67
2.33
-0.67
1.67
-2.0
0.67
1.0
-0.33
-6.33
5.67
-0.67
-0.33
-2.0
0.0
3.0
0.33
1.67
-2.33
-1.67
1.0
2.67
1.0
0.67
3.0
-4.33
1.33
-2.0
3.0
0.67
-0.67
-3.0
-4.33
-4.33
-5.0
-0.33
3.67
3.67
-3.0
-1.33
-1.33
2.0
1.0
1.0
-1.67
0.67
-2.33
1.67
4.0
-1.67
0.0
-2.67
5.0
0.0
-2.33
-0.33
-1.67
2.0
2.33
-5.33
-2.0
4.33
-5.0
4.0
-2.33
0.0
4.0
4.0
2.0
1.33
-0.67
-4.67
0.0
-4.67
-5.67
-0.33
0.67
2.67
3.0
1.0
-5.0
1.0
0.33
0.67
6.67
15.67
24.67
20.67
30.0
26.67
34.67
19.33
15.33
21.0
8.0
15.0
-1.0
-2.0
-3.67
9.33
1.0
3.33
8.0
0.33
2.0
5.0
0.33
-1.67
3.33
13.0
-4.67
0.67
-0.67
-1.67
-2.33
1.0
-0.67
-0.33
-3.67
1.33
13.0
2.67
10.0
1.67
-1.33
6.0
-3.33
11.67
5.0
4.0
2.33
-3.67
1.67
1.67
-4.67
6.33
5.67
7.67
6.67
1.33
-0.33
-3.67
2.67
-4.67
2.33
5.0
0.67
2.0
0.67
0.67
-1.33
-1.67
10.33
5.33
0.67
6.0
-4.67
6.33
5.67
3.67
3.67
2.0
0.33
4.33
7.0
1.0
5.0
3.33
2.67
-0.33
-4.33
2.67
4.33
4.67
-3.0
5.33
-1.0
12.67
11.33
-2.33
-1.33
6.67
4.0
-4.0
-11.33
-4.67
1.0
6.0
6.67
2.33
6.0
2.0
2.67
4.0
9.0
12.0
18.0
14.33
24.67
18.33
15.0
20.33
15.33
17.0
23.0
19.33
6.67
5.67
3.33
8.67
13.0
16.0
3.67
-4.33
10.0
3.0
9.0
4.0
7.0
-1.67
2.0
9.33
4.67
5.67
9.0
3.67
10.33
7.0
9.0
6.0
12.33
2.33
5.67
6.67
15.0
2.0
6.0
5.67
13.33
-2.0
-6.67
11.0
10.33
2.67
9.0
15.0
1.0
1.67
10.33
13.0
9.67
17.0
3.0
6.33
6.67
1.0
-0.67
10.0
5.0
6.67
-1.33
14.0
4.67
9.33
9.33
3.67
11.0
6.33
4.33
-4.0
18.33
7.33
5.67
-6.0
7.67
6.67
14.0
16.0
2.67
13.67
6.33
10.33
11.33
3.67
11.33
18.0
2.67
7.33
10.67
7.67
8.67
2.67
5.0
10.0
-2.0
14.0
13.0
4.0
9.67
9.33
3.67
5.67
14.33
2.33
3.67
7.33
10.67
4.67
2.67
8.67
10.0
5.67
5.0
10.0
5.33
8.67
5.0
9.33
17.0
19.67
23.33
12.33
21.0
20.33
14.0
17.0
14.67
28.33
21.67
23.33
24.33
25.33
20.33
38.67
48.67
58.33
64.33
71.33
89.33
101.33
106.33
105.67
107.0
101.67
80.33
76.33
80.67
38.0
67.33
30.67
16.0
11.0
19.67
15.33
-2.33
24.0
20.67
18.67
6.33
4.33
11.0
13.0
11.33
15.0
12.67
4.0
7.67
9.0
13.33
20.67
28.0
16.0
11.0
3.0
13.0
14.67
-4.0
10.33
5.67
1.33
4.67
14.33
-3.0
13.0
-0.67
11.33
7.0
1.33
-2.67
9.0
4.67
7.33
7.67
2.33
17.33
12.33
12.0
19.33
8.33
7.67
15.67
19.67
-8.0
13.0
13.67
0.67
14.0
23.0
15.67
4.67
3.0
1.67
11.0
25.33
13.0
9.0
3.67
-0.33
7.0
17.67
-9.67
10.67
-2.0
-0.67
31.33
11.33
1.33
8.67
2.33
20.67
1.67
23.33
19.0
32.67
8.33
14.67
17.33
18.67
25.33
23.0
28.33
21.67
33.33
36.0
26.67
28.0
18.67
53.33
11.0
18.33
25.33
10.67
24.0
15.33
0.33
10.67
9.0
10.33
-2.67
4.67
1.0
10.0
5.0
2.0
17.33
20.67
12.33
6.67
16.33
9.33
12.0
15.0
6.33
0.67
17.0
15.0
9.67
25.67
5.67
6.33
20.67
1.0
16.67
-0.33
2.0
21.0
4.0
13.33
8.67
2.33
7.67
2.33
1.0
20.0
5.0
19.0
3.67
-1.0
2.67
1.67
7.0
0.67
6.33
11.33
6.33
14.67
0.0
0.0
11.0
0.67
6.67
2.0
5.0
17.0
11.33
9.0
10.33
-1.0
6.33
17.67
4.33
11.67
14.33
5.33
-1.33
-5.0
-3.33
-4.67
-2.33
-2.33
-0.33
10.67
-5.0
2.33
8.67
4.0
-4.33
-5.0
1.0
1.0
-2.33
3.0
-1.67
5.67
-4.33
9.33
3.0
7.67
10.67
3.67
16.33
-2.0
-5.67
11.33
3.67
18.0
8.0
6.0
3.0
3.33
6.67
10.0
0.33
-6.33
6.0
0.67
17.0
6.67
-1.67
7.0
5.33
4.33
-1.33
5.33
-8.67
-0.67
5.33
5.33
-1.0
-9.67
-0.33
3.33
6.0
1.67
-1.67
3.33
3.0
8.67
6.67
2.33
0.0
-2.33
0.67
1.0
2.67
0.33
0.33
2.0
10.33
2.33
-5.67
-3.33
-1.67
0.0
3.67
0.67
-4.0
-2.33
5.33
3.0
10.67
10.0
8.67
-1.67
4.33
6.67
0.0
-0.33
-2.33
0.33
6.0
-3.0
6.33
-3.67
4.67
-8.33
1.33
-1.0
5.33
8.67
-1.0
4.67
-2.0
5.33
0.33
8.0
-0.67
1.67
5.33
1.0
4.67
5.0
9.67
11.33
10.67
5.33
-3.33
2.67
0.0
0.33
12.33
10.0
4.33
-3.33
3.0
-1.67
-1.67
0.33
-3.33
6.33
4.67
4.67
4.0
5.67
-4.33
1.0
4.67
-2.67
-1.33
0.0
-0.67
6.33
4.67
-4.0
1.0
2.33
7.33
-3.33
2.67
-0.67
0.0
0.33
6.33
1.0
3.67
-2.0
1.0
-3.0
7.33
0.0
4.67
1.33
-2.0
4.67
6.33
6.67
-0.33
-2.33
-1.0
0.67
3.33
-0.33
3.67
-1.33
2.33
-3.67
-3.67
-2.67