File: EDX Back Ups and Old Files/Spectra copy 3.3.23/Samples/High pH BL 25C 14d/8.5.txt
0.0
-31.0
-27.67
-33.33
-10.33
16.33
-54.33
3.33
6.67
40.33
-1.0
-1.0
0.33
-4.33
-9.0
-4.33
-3.0
-0.33
-0.33
-1.67
-1.0
3.0
1.0
-1.33
-0.67
-1.33
-0.33
0.0
0.0
0.0
0.0
-0.33
0.0
0.0
0.0
0.0
0.0
0.67
1.0
1.67
0.67
0.0
-0.33
0.0
1.0
-0.67
-1.0
-2.33
0.0
1.0
-1.67
0.0
-1.0
2.67
1.0
0.0
-0.67
0.67
1.0
1.33
4.67
1.0
2.0
2.0
1.33
-4.0
1.33
2.67
3.33
1.33
-0.33
-4.0
1.67
-4.33
8.33
1.33
5.67
-2.33
7.33
6.0
6.33
10.0
-3.67
3.0
2.0
3.67
-0.67
-1.67
2.67
1.67
-6.33
-0.33
4.0
4.67
-1.67
8.33
11.0
5.0
-0.33
-4.0
4.33
3.0
-5.67
2.0
0.67
0.67
0.33
4.33
8.0
-9.0
1.67
-3.0
7.0
3.0
-3.33
3.33
1.33
6.67
9.33
5.67
4.33
-1.67
-0.33
5.33
-0.67
5.33
8.67
2.67
2.0
6.67
0.67
6.33
1.33
0.33
4.0
8.67
3.33
-6.0
3.33
10.0
0.33
-0.67
0.67
1.33
11.33
7.0
6.0
7.0
10.0
1.33
5.33
2.33
1.67
-0.67
-1.67
11.67
1.67
0.0
3.0
3.67
8.0
4.67
2.0
-2.67
3.0
-1.0
1.67
-1.33
4.67
-3.0
8.67
3.0
-0.33
4.0
1.33
-3.0
-0.33
2.33
-2.67
-1.0
6.0
-1.67
6.67
1.0
-6.33
4.33
1.33
6.67
1.0
0.67
-0.33
3.33
0.0
5.33
5.33
4.67
1.0
3.67
-2.67
-4.67
1.67
1.67
0.67
2.33
0.33
5.67
0.67
-4.33
4.0
5.33
4.33
-3.67
-0.33
5.67
3.33
5.33
3.0
-1.67
5.0
-2.0
1.67
-1.67
6.0
3.33
-0.67
-3.33
2.0
5.33
3.67
-2.67
1.33
0.0
1.0
4.0
4.0
0.67
7.67
5.0
-1.67
9.0
1.33
3.67
1.0
6.67
-3.0
5.0
-2.67
-0.67
3.67
1.67
1.67
3.0
0.33
1.67
0.67
-5.0
5.33
0.67
2.67
8.0
2.67
-0.33
-0.67
-3.33
4.0
-3.33
7.67
4.33
-3.0
1.0
-1.0
-3.0
2.0
-1.33
-4.0
3.33
4.33
-2.67
2.67
-1.0
0.67
-1.33
1.0
3.33
-2.33
1.0
-3.33
0.0
6.0
1.0
0.0
3.0
-3.33
-0.67
1.33
0.67
-1.33
1.67
-0.67
6.0
2.67
0.67
0.33
-3.0
3.33
-3.33
3.0
-1.33
0.0
0.67
2.0
-1.33
0.67
-3.67
0.33
-1.33
-3.0
0.0
0.33
3.33
3.33
-0.33
-2.0
1.67
-2.0
-1.33
0.67
-1.33
3.33
-1.33
0.0
1.0
-2.0
1.33
-0.33
0.67
-6.67
-1.0
4.67
0.0
-0.33
-1.0
-0.33
1.33
-6.0
3.0
-3.33
-1.67
0.0
-2.33
2.67
-1.0
2.67
-2.33
7.67
0.0
8.67
-9.33
-4.0
1.0
3.0
5.33
1.67
-3.33
-2.33
-1.0
2.33
-3.0
5.33
0.0
3.0
-0.33
6.67
-2.67
5.0
0.33
-0.33
-2.0
-3.67
-6.0
3.0
0.67
1.0
-2.0
2.0
-5.0
3.33
-0.67
-4.67
2.0
-3.67
-1.67
8.67
1.67
0.67
-3.0
6.0
5.0
4.0
6.33
12.67
6.67
9.67
18.67
16.67
22.0
37.67
27.67
25.33
17.33
26.0
19.0
14.0
7.0
1.0
-1.67
6.33
1.0
-1.67
5.0
1.33
6.0
1.0
2.33
8.33
1.33
4.0
-0.67
4.67
-1.67
3.33
-1.33
2.0
-2.67
-4.33
-2.67
0.33
1.0
-5.33
4.0
0.67
6.67
2.0
-1.33
5.67
7.0
-4.0
-0.67
1.33
11.67
1.67
0.33
1.33
-1.33
-1.33
1.67
7.33
2.67
-4.67
-6.33
1.33
-2.67
8.0
-0.33
6.0
7.67
4.67
0.67
7.33
2.33
10.33
5.67
-4.0
-6.67
5.33
4.67
2.67
8.67
3.0
-1.67
6.33
-6.0
3.0
2.0
-1.67
4.67
1.67
4.67
10.67
2.33
4.67
-5.0
4.33
-2.0
1.67
5.33
5.67
-1.33
-3.33
2.0
9.0
-10.33
-5.67
11.0
5.0
7.67
1.33
-2.0
1.0
12.67
2.0
12.0
9.0
8.0
1.33
16.67
27.33
24.0
16.33
21.33
12.0
22.0
21.33
19.67
8.67
11.33
12.67
15.0
6.0
0.67
-9.33
11.0
11.0
9.0
6.0
5.0
6.33
4.0
2.33
11.67
4.67
-4.0
7.67
0.33
5.0
5.0
5.0
11.33
4.33
6.67
5.67
11.0
11.0
13.0
8.67
4.33
7.0
9.33
7.0
8.33
6.67
12.0
-1.0
2.0
3.67
13.33
7.0
3.67
11.0
9.0
2.33
10.67
13.0
21.33
5.0
0.0
6.67
9.67
15.0
9.67
5.33
11.33
9.67
-1.0
15.33
7.33
8.0
12.33
7.33
8.67
3.0
2.67
-0.33
7.0
3.0
13.67
11.67
10.33
16.33
5.33
10.67
5.33
10.0
11.67
8.33
4.67
16.67
11.67
9.67
13.0
11.0
12.0
10.0
4.0
13.0
4.67
13.33
10.67
8.67
11.33
12.33
-5.33
11.33
4.67
9.67
3.67
5.67
12.0
8.67
2.0
5.0
3.33
10.67
3.0
17.33
16.0
6.67
15.33
8.33
12.0
11.33
17.0
27.0
12.67
10.33
16.67
16.33
36.33
29.33
36.33
52.67
41.67
66.33
74.33
80.33
96.33
77.33
78.33
105.67
105.0
108.67
112.33
99.33
71.67
50.0
51.33
29.67
22.0
28.0
23.67
15.33
7.67
16.0
19.67
9.67
14.33
17.33
3.0
5.0
13.33
17.0
6.67
6.0
6.67
1.0
15.33
9.67
2.0
16.0
15.0
5.0
11.0
8.67
10.0
9.33
9.67
10.33
5.67
21.33
10.0
5.0
19.33
15.33
9.0
8.33
9.33
9.0
4.67
8.33
9.67
9.33
-0.67
12.33
16.0
8.33
22.33
16.67
5.67
23.67
7.0
18.0
4.67
13.67
16.0
-1.0
25.67
4.67
-4.0
9.67
13.0
2.33
8.0
13.0
-2.33
15.67
14.0
17.67
2.33
22.67
0.0
-7.67
17.33
12.33
7.33
6.67
4.33
9.67
3.67
16.33
7.0
19.67
11.33
13.67
14.33
15.67
17.33
38.0
27.33
32.67
27.33
44.0
23.67
31.0
40.67
27.33
14.0
26.33
17.33
23.67
9.0
13.33
7.33
5.67
14.0
9.33
2.33
13.67
4.0
-5.0
15.0
7.0
7.33
6.67
18.33
18.67
9.33
17.33
-7.0
-2.0
0.33
10.67
15.0
8.0
8.67
11.67
0.67
-1.67
3.67
10.0
6.67
-8.33
-1.0
13.0
6.0
6.33
1.67
12.33
6.67
7.33
5.0
6.0
4.0
10.0
-0.33
2.0
-0.33
-3.33
-4.0
1.67
15.33
4.33
4.33
7.67
3.0
0.0
0.0
0.67
11.67
-2.0
-9.0
3.0
7.33
4.0
6.33
5.0
0.33
6.67
9.33
1.67
9.33
13.33
11.67
-4.0
2.67
2.33
0.67
4.67
10.67
3.67
-3.0
6.33
9.67
-5.0
-3.33
-2.0
3.0
4.0
-5.33
-3.0
1.33
-2.33
11.67
2.33
5.0
15.67
-6.33
7.67
7.33
10.0
1.33
7.33
3.67
8.0
14.0
-2.0
3.0
4.33
9.67
21.0
-1.67
8.67
4.0
1.67
-3.0
6.67
-0.67
1.0
11.33
11.33
-5.33
3.33
-0.67
-5.67
0.33
-1.67
-3.0
-3.67
-2.33
0.33
3.0
7.67
11.33
1.33
0.0
-2.33
5.67
4.33
1.0
-1.33
2.67
3.0
5.67
8.33
2.33
-5.0
2.33
1.33
8.33
6.67
-3.67
-6.0
4.67
0.67
0.0
4.67
10.33
-4.0
6.67
5.0
-7.33
1.33
4.33
3.67
2.0
16.67
-2.33
-3.67
4.0
3.0
0.33
2.33
1.67
-3.33
1.33
4.0
9.33
4.67
2.0
5.67
2.0
-1.67
1.33
-4.0
3.33
-0.33
-3.67
5.0
-7.33
7.0
5.67
-0.67
3.67
-1.67
3.67
1.67
-2.0
0.33
-1.67
0.0
0.33
-0.33
5.0
-0.67
-2.67
3.33
-3.33
0.33
5.67
4.67
-2.0
1.67
-7.33
3.0
-4.33
0.33
6.67
5.0
5.33
0.33
2.67
4.0
-1.0
4.33
4.33
-3.33
-3.33
3.33
-1.0
-2.67
-0.67
2.0
3.67
-2.0
3.0
2.0
7.33
0.0
2.67
0.33
-2.0
-0.33
2.33
-3.33
5.67
0.67
1.0
3.67
4.33
0.67
-0.33
-5.33
-2.67
0.33
-3.67
0.33