File: EDX Back Ups and Old Files/Spectra copy 3.3.23/Samples/High pH SF 60C 2d/11.25.txt
0.0
-16.67
-28.67
116.67
15.67
-39.67
6.33
-73.0
-2.33
22.0
27.33
26.33
-7.33
-7.67
6.33
-9.33
3.0
3.67
3.0
-1.0
-0.33
0.67
-0.67
1.0
1.0
0.0
-0.67
0.0
0.67
0.0
-0.33
-0.33
0.0
0.0
1.0
0.0
1.0
0.0
1.67
-1.33
0.33
-0.33
1.67
1.0
-0.67
-0.33
0.0
0.0
0.33
-0.67
-2.0
-0.67
0.67
0.33
0.33
-1.0
2.0
0.0
1.33
-2.0
-0.67
1.0
0.0
2.0
-1.33
0.0
-3.0
-2.0
5.33
6.33
-3.33
1.67
0.67
8.67
-7.67
-0.67
-7.67
1.33
4.33
1.67
1.67
4.33
4.33
2.67
-1.33
-1.33
-4.0
0.33
2.33
0.33
-0.33
6.0
-2.33
14.0
5.33
3.67
-2.33
-5.67
4.33
-7.0
-1.0
-6.0
-3.33
-3.0
4.33
3.67
-0.33
5.33
0.33
-0.33
10.33
0.0
-4.33
7.67
2.0
6.33
1.33
-4.33
3.67
0.0
2.0
-3.0
2.33
9.67
0.0
-3.67
8.67
4.33
8.0
5.33
-4.33
4.33
-1.67
-3.0
-2.67
-2.33
-0.67
3.0
5.33
3.33
-0.67
4.67
2.67
6.33
4.0
0.0
5.0
1.33
7.0
1.67
4.0
13.67
1.0
0.33
3.0
7.33
6.0
-2.0
3.33
8.67
-0.67
-0.33
1.33
5.0
-1.0
2.67
0.0
1.67
5.67
-4.0
0.0
-1.33
3.33
5.33
3.33
-1.67
6.33
4.0
2.0
3.0
8.33
-7.33
-1.0
2.67
0.33
4.67
-2.33
2.33
8.67
3.0
8.0
1.33
-3.67
7.0
4.67
-2.0
-2.67
-5.0
4.33
1.0
8.67
2.0
1.67
5.0
10.0
-0.67
1.67
2.67
6.33
-8.33
-0.67
1.67
6.33
4.67
5.67
-4.33
-2.0
6.67
7.33
3.0
0.0
3.33
3.67
1.67
2.0
-2.0
-3.67
0.67
0.67
6.67
-3.0
2.33
2.33
5.67
-1.0
2.0
-1.0
0.33
0.0
2.33
2.33
11.0
-1.67
-2.33
-2.67
-1.33
-2.33
4.0
-2.0
-5.0
-2.33
-4.0
2.33
-1.67
9.0
6.67
3.0
-4.0
1.67
-0.33
-3.67
-3.67
-0.33
-4.67
-0.33
1.0
0.0
1.0
-0.67
-1.67
-1.33
-0.33
-1.67
-2.67
1.0
-1.33
2.67
1.67
2.0
-2.67
0.0
2.33
-1.67
-1.67
0.0
0.0
2.67
4.0
2.33
-0.33
-1.0
-2.67
2.33
0.0
7.0
1.33
-4.33
0.33
-0.67
2.0
1.33
-1.0
1.33
-2.67
0.0
-3.67
-0.67
4.67
1.67
-2.33
-0.67
-1.33
0.67
-0.33
0.67
-4.0
-0.33
0.67
-0.67
-2.33
2.67
-5.33
-1.33
-3.67
0.67
-1.0
0.33
-0.67
0.0
1.0
-2.67
-0.33
-1.33
-2.0
-4.0
2.67
-2.33
-1.67
2.33
-1.67
2.0
-4.67
3.33
-3.0
-4.67
3.0
-3.0
-8.67
8.0
-2.67
-1.67
2.33
0.0
-3.0
0.33
2.33
-9.0
-2.33
-2.33
-3.0
-4.33
-4.33
-2.33
-1.67
-3.33
-0.33
-1.67
-3.33
5.33
1.67
-8.33
-3.33
0.67
-5.33
1.33
-5.33
-4.0
-3.67
-3.0
-2.33
-1.0
-3.67
-1.0
1.0
1.33
-5.33
4.0
0.0
4.0
-4.33
-3.0
-1.67
0.67
0.33
-1.33
2.33
0.67
-13.33
3.33
-1.33
-8.0
-0.67
-4.33
-2.0
-3.67
-2.33
6.33
-1.0
-5.0
0.67
-5.67
-5.67
-5.67
0.0
1.67
-2.67
-4.0
0.67
0.0
-2.67
-7.33
-6.0
-0.33
9.0
-6.33
2.0
-0.67
-2.33
-6.0
-7.33
-1.67
-2.33
-4.0
-0.33
-3.0
3.0
-4.33
-5.0
1.67
-8.0
2.67
-1.67
-10.33
-8.0
1.33
-2.0
-1.67
-3.0
0.33
3.33
2.0
-5.33
-6.67
0.0
-9.67
1.33
3.0
9.0
-0.33
-2.67
0.33
4.0
-6.67
2.67
-1.33
-6.67
-6.0
-1.33
5.0
-2.67
4.67
1.67
1.67
-3.67
-2.33
-8.67
-8.67
1.67
0.0
8.0
6.0
-5.33
-10.33
-1.33
0.0
5.0
2.67
4.33
10.67
-0.67
4.67
-3.0
4.0
3.0
-0.33
-2.67
9.67
2.0
4.33
-5.33
-4.33
-9.0
-1.33
2.33
-4.67
-1.67
3.33
1.0
5.33
0.33
18.33
14.0
8.33
16.33
6.33
32.0
22.0
34.0
32.33
36.0
28.0
17.67
31.0
22.33
-0.67
1.0
7.33
5.67
7.0
7.67
10.0
4.0
0.33
8.33
0.33
4.0
7.33
2.0
15.67
0.0
-1.0
4.0
-5.0
4.33
-5.67
15.0
1.0
14.33
10.0
8.67
3.33
11.33
10.33
9.0
4.67
19.33
2.33
9.0
4.0
0.0
14.0
5.33
2.0
3.67
1.0
11.0
7.0
9.33
-0.67
5.33
-2.0
-3.0
5.0
-2.33
12.0
4.33
2.33
4.0
4.33
7.33
6.33
0.33
-1.33
10.0
2.0
1.0
4.67
11.67
4.33
-8.33
-1.33
7.0
-2.67
2.33
-3.67
9.0
6.0
6.0
10.0
9.0
15.33
10.33
7.67
14.67
9.0
3.33
9.67
3.33
18.33
3.33
12.33
4.0
11.33
4.67
0.33
13.0
9.0
11.33
12.67
1.67
3.33
8.0
2.33
2.33
6.0
4.33
0.67
15.0
0.67
6.33
10.33
7.0
10.0
18.0
11.33
4.33
-3.33
6.33
12.33
11.0
5.67
10.33
4.67
22.67
9.67
13.0
24.0
33.67
50.33
61.33
87.0
115.33
135.0
171.33
195.0
216.33
249.0
257.67
236.67
249.33
249.0
216.33
212.33
170.67
138.67
103.33
75.0
43.33
23.33
14.0
37.67
8.33
12.67
12.0
18.33
18.0
11.67
7.33
15.67
11.33
5.67
11.67
2.33
20.67
6.67
16.33
8.33
-2.33
-4.0
-0.33
19.33
8.67
15.67
22.0
4.33
1.67
-2.0
5.67
13.0
5.33
24.67
19.33
11.0
9.67
13.33
16.67
6.0
-2.33
19.67
11.33
8.0
0.33
4.0
9.0
-2.33
15.33
-7.0
11.67
8.0
3.67
5.67
10.33
21.0
19.67
9.33
4.33
14.67
12.33
21.33
2.67
-3.0
10.0
18.0
13.0
9.67
3.33
5.67
-5.67
15.0
0.33
10.33
8.0
2.67
-0.33
4.67
2.67
5.0
1.0
0.67
4.67
12.0
1.67
11.67
8.67
3.0
18.0
0.67
19.0
8.67
-3.67
3.0
11.67
1.67
15.0
0.33
5.67
15.33
0.0
15.0
9.0
4.67
-0.67
1.33
8.0
-10.33
10.0
-12.33
8.33
5.33
-3.67
11.33
0.0
2.0
-9.67
-2.33
-1.33
2.67
-0.33
-3.67
16.67
8.0
2.67
20.0
-0.67
-0.67
10.67
13.67
12.67
10.67
1.33
3.33
7.0
0.33
6.0
11.0
10.33
15.0
7.67
2.0
1.33
15.67
-0.67
8.67
-3.33
-11.67
14.67
8.33
3.67
6.33
1.67
1.0
-4.0
10.33
1.0
-10.33
3.0
7.67
7.67
8.0
0.0
-0.67
-5.33
0.33
-4.67
11.0
9.33
3.0
-6.0
-3.0
1.0
3.0
14.33
-4.67
9.33
7.67
10.0
6.33
3.0
-3.0
8.33
9.67
3.0
-5.67
-1.33
9.67
-0.33
4.33
1.0
-1.33
-3.33
6.67
13.0
0.0
0.0
9.67
7.67
0.0
10.0
9.67
8.33
-3.0
-3.0
11.67
3.67
16.33
15.0
3.33
0.33
8.33
7.67
6.33
5.67
4.67
-5.33
6.67
2.67
0.67
-1.67
4.33
6.0
6.33
6.67
6.0
1.67
-2.67
-4.67
8.67
6.0
-3.33
-7.67
-4.33
3.67
1.0
-1.0
5.0
0.33
7.67
6.33
1.67
0.0
6.0
0.33
2.33
-1.0
-2.67
9.0
6.0
-5.33
5.67
-4.0
6.0
2.67
4.33
-7.67
1.0
4.33
4.0
6.33
1.0
-1.67
-1.0
-3.0
-1.0
-6.0
2.67
-2.33
-1.67
-3.33
0.67
-5.67
-8.67
5.33
-1.33
11.33
8.0
-7.67
-3.0
-2.33
10.33
-1.33
11.0
0.0
2.67
-3.0
13.67
8.0
4.0
2.33
10.0
4.67
8.67
-3.67
-1.0
5.33
-1.33
2.0
5.67
1.33
2.67
-1.67
-0.33
13.0
-4.0
-5.0
3.67
8.67
-1.67
10.67
-4.33
-2.33
3.67
3.67
-0.67
-2.33
0.33
-3.67
4.0
2.33
-2.67
-0.67
-0.67
-3.67
-1.67
1.33
8.67
-0.33
-0.67
-3.67
0.0
-4.67
-9.0
-0.67
1.67
-2.33
4.67
9.33
4.33
1.33
-0.33
-6.33
2.67
-6.0
1.67
2.0
0.67
0.67
-0.67
2.0
-1.33
-4.33
6.33
3.0
6.33
-0.33
0.67