File: EDX Back Ups and Old Files/Spectra copy 3.3.23/Samples/High pH SF 60C 2d/11.5.txt
0.0
-72.67
88.33
55.67
126.67
98.33
-30.67
-18.0
16.67
-4.0
29.33
-5.67
17.67
7.33
-9.67
0.67
6.0
2.67
-3.0
1.0
-0.33
-0.33
0.33
0.0
0.0
0.0
-0.67
0.0
-0.33
1.0
2.67
-0.33
0.0
0.0
0.0
2.0
1.0
1.0
-0.33
-1.33
0.33
-0.33
-0.33
0.0
-0.67
0.67
0.0
-1.0
2.33
-0.67
-2.0
3.33
0.67
-0.67
1.33
-2.0
2.0
1.0
0.33
0.0
2.33
0.0
-1.0
2.0
8.67
-2.0
-3.0
5.0
2.33
-0.67
-1.33
5.67
-1.33
6.67
0.33
0.33
-3.67
-1.67
8.33
5.67
-1.33
1.33
0.33
4.67
6.67
-0.33
0.0
-7.67
3.33
-1.67
-1.33
9.0
-3.33
8.0
1.33
-0.33
1.67
2.33
-1.67
0.0
-1.0
0.0
-3.33
2.0
-2.67
-6.33
8.67
3.33
3.33
-1.33
-4.67
1.0
4.67
8.67
3.0
-4.67
0.33
2.67
0.67
4.0
-1.0
0.0
-2.67
5.67
3.0
-4.67
10.67
3.33
-5.0
6.33
0.67
7.33
1.33
1.0
2.33
-2.33
0.33
0.0
3.33
2.33
3.33
8.67
0.67
-2.67
9.0
8.0
4.0
-0.67
-4.0
7.67
9.0
5.67
-2.0
13.33
-2.0
4.33
8.0
1.0
3.33
4.67
2.33
-0.33
-0.67
3.0
2.0
2.67
6.0
6.67
9.67
-3.0
1.0
0.67
5.33
1.33
6.33
6.33
0.33
6.0
6.0
-5.0
0.33
-4.33
1.0
-0.33
5.33
1.67
-5.33
4.33
4.67
-1.0
-2.0
-2.67
-5.67
2.0
-6.33
0.0
0.33
1.0
4.33
1.0
6.67
7.0
-0.33
1.0
8.0
-3.67
-2.33
2.67
-2.67
-0.33
-0.67
2.67
1.33
-2.33
-5.33
-2.33
-2.0
4.67
0.33
0.0
-2.0
-1.67
-1.33
5.67
-2.0
-5.0
3.33
2.67
5.67
9.67
4.0
3.33
-1.67
0.67
2.0
-4.0
4.0
4.33
2.0
-1.67
-0.67
1.0
0.33
0.67
-1.67
-0.33
-1.33
1.0
2.0
-3.0
1.67
-1.0
1.33
2.33
-1.0
2.67
-4.0
-1.0
-0.33
-0.33
-3.67
-2.67
-0.33
0.33
-3.33
5.0
2.0
-1.0
-1.67
0.33
2.67
2.67
0.33
3.33
-2.0
-0.33
-1.33
0.67
1.0
-4.67
2.0
-2.67
-1.67
0.33
2.0
4.0
-0.33
-1.0
-2.67
-3.33
-1.0
-0.67
2.33
-2.0
0.0
3.33
2.67
5.33
-3.67
-1.0
1.33
6.0
-0.67
-0.67
0.0
-2.67
2.33
2.67
0.67
-0.33
-1.67
0.67
0.67
-2.33
0.67
-5.0
2.67
-4.33
-0.67
-4.33
2.67
-2.33
-2.33
-7.67
0.67
-5.0
-4.67
2.33
1.0
0.0
-4.67
-4.33
1.67
3.0
0.0
-4.33
-6.33
-4.67
0.33
-0.67
-3.0
-1.67
1.33
-7.0
-4.67
2.0
-6.0
1.33
-1.0
0.33
-1.67
-2.67
-1.0
-1.0
-2.67
-5.67
-5.0
0.67
-2.33
-4.0
-2.33
-7.33
-2.33
-0.67
-3.33
-1.33
-5.67
-5.33
-1.67
-2.33
-1.33
1.67
1.67
-5.33
6.33
-2.33
0.0
-0.67
0.0
-4.33
1.0
2.33
-1.0
-1.0
-2.67
-5.33
3.0
0.0
-3.0
-1.33
-7.0
-6.67
-3.33
-2.67
-0.33
-2.67
-7.33
-1.33
0.33
-0.33
-8.0
-2.67
-6.33
-2.0
-3.67
-0.33
-0.67
-2.0
1.0
0.67
-8.67
-3.67
-2.67
1.0
4.67
-1.67
5.0
-3.33
2.0
-6.67
-8.33
2.0
2.67
0.0
-4.33
2.0
-2.67
2.67
-3.0
0.67
-5.67
-2.33
-7.0
-8.33
-3.0
-8.0
2.67
-4.0
1.67
-8.0
0.67
4.33
-10.33
-13.0
-1.67
-9.0
-5.67
1.0
5.33
-1.67
0.0
-6.33
-4.67
1.0
-3.67
1.33
0.0
-6.0
5.67
-6.67
-1.67
-1.0
0.33
-4.33
-2.33
4.33
0.0
11.67
-3.0
-7.67
-1.33
-1.33
3.67
-6.67
-6.33
7.33
-11.67
0.67
-2.0
-5.0
3.0
-7.33
-8.33
-2.33
-3.0
-1.0
1.67
3.33
2.67
0.33
-0.33
-4.0
-1.0
-6.0
-1.33
6.33
2.67
1.0
-1.67
-8.33
8.67
0.0
1.67
-1.67
-5.67
9.33
14.33
5.0
1.33
2.33
5.33
9.0
10.33
14.33
17.33
28.0
25.0
44.0
39.33
44.0
23.0
24.67
11.0
16.33
13.33
15.0
8.33
10.67
3.0
8.67
3.0
5.0
-2.67
15.33
2.33
5.0
-3.67
9.0
4.67
1.0
6.0
3.0
1.0
13.33
-3.67
15.0
5.0
19.33
12.0
2.67
9.33
5.33
2.33
3.0
6.67
11.33
1.33
10.0
4.0
3.0
10.0
13.33
0.0
2.67
-3.0
14.0
1.0
10.33
5.33
-4.67
9.0
10.0
17.0
8.67
8.0
8.33
-6.67
8.0
2.33
9.33
8.33
-0.67
4.67
11.0
5.0
6.0
8.67
9.67
11.33
-3.33
4.67
1.0
5.33
6.33
2.33
0.0
9.0
1.0
2.0
7.0
3.33
14.33
8.67
-1.33
17.0
6.33
11.67
11.33
5.33
1.33
3.33
6.0
7.33
1.67
11.33
5.0
4.0
4.33
10.67
-2.33
-1.67
5.0
17.33
-1.67
11.0
6.33
7.67
4.0
-5.33
-1.67
16.33
8.0
10.0
14.0
17.33
2.33
-2.33
0.33
9.33
15.0
12.67
10.33
17.67
8.67
13.67
21.0
50.0
47.67
56.33
80.33
92.0
121.33
135.0
191.33
211.0
256.33
263.0
261.67
269.67
267.33
242.0
233.33
232.33
162.67
133.67
99.33
81.0
52.33
26.33
26.0
23.67
22.33
12.67
13.0
9.33
5.0
17.67
24.33
5.67
15.33
8.67
1.67
14.33
11.67
13.67
7.33
6.33
-0.33
17.0
3.67
6.33
6.67
-4.33
11.0
11.33
10.67
7.0
6.67
-1.0
-0.67
10.67
14.33
-5.0
13.67
14.33
8.67
16.0
-11.33
2.67
13.33
12.0
-0.67
2.0
8.0
-1.33
5.33
-1.0
14.67
14.0
17.67
18.67
0.33
6.0
6.67
11.33
21.33
-4.33
1.33
19.33
9.67
3.0
7.0
5.0
16.0
-3.33
5.33
5.67
-0.67
4.0
7.33
3.33
16.0
28.67
10.67
15.67
-9.33
-5.0
8.0
6.67
12.67
9.0
-5.33
3.67
10.67
4.0
9.0
-0.33
-2.0
6.67
7.33
-1.0
1.67
-6.33
-8.0
7.33
-1.33
4.33
7.0
14.0
5.0
4.67
-6.67
14.33
1.0
7.67
-2.0
-2.33
-0.67
12.33
0.33
9.33
2.0
0.0
3.33
-5.33
1.67
2.67
9.67
7.33
2.67
-7.0
-6.33
17.0
-0.67
-3.67
4.67
2.67
8.67
23.67
2.33
6.33
5.0
15.33
17.0
11.0
21.33
10.0
18.67
10.0
3.33
11.67
2.33
0.67
0.67
7.33
-1.33
13.33
13.67
3.33
1.67
6.0
8.0
6.33
1.0
-9.33
11.0
1.67
1.67
-1.0
-10.0
5.33
-0.33
10.33
-2.67
13.0
9.33
11.0
3.0
-8.0
5.0
0.0
11.33
1.33
1.33
-3.33
3.0
-6.67
2.0
-3.0
6.33
7.67
1.0
7.33
-7.33
6.67
1.67
-7.67
0.0
1.67
-3.33
-2.33
5.0
1.0
10.0
3.67
1.67
2.0
5.0
6.67
7.33
2.0
0.0
10.67
10.67
16.33
10.0
11.33
8.33
0.33
2.67
18.33
11.67
-4.33
-4.33
-2.33
-4.33
6.67
-2.67
11.33
-4.0
6.33
4.67
7.0
5.67
-5.67
2.33
5.67
6.0
-0.33
2.33
-4.33
-5.33
12.0
5.0
4.0
-0.67
4.67
11.33
4.67
-6.0
-8.0
8.33
6.33
5.0
9.33
1.0
2.0
-1.33
-1.33
4.0
-2.0
1.67
0.33
-0.67
2.0
3.33
0.0
-2.67
-4.0
3.33
-6.0
10.0
-2.0
3.0
3.67
1.67
3.33
-5.33
2.67
0.33
-2.67
-2.67
-3.33
17.33
-2.0
0.33
-3.0
4.67
7.33
5.67
6.0
1.0
2.67
14.0
4.67
15.0
10.0
-1.67
4.0
6.67
3.67
-5.67
1.0
7.33
2.67
-1.0
6.67
-2.67
2.67
-1.67
0.67
10.0
0.0
-3.0
-3.33
6.67
-2.67
2.67
3.67
-1.33
0.67
2.67
-2.67
2.67
5.33
-1.67
-1.0
1.33
-5.67
3.33
-1.67
-1.67
2.33
1.33
-3.33
1.67
-2.67
-4.67
-3.0
-5.67
-5.0
0.33
3.67
1.67
2.67
8.33
4.33
-1.67
0.67
-4.33
4.67
1.0
3.67
4.0
1.67
-1.33
0.33
-3.0
0.67
-2.33
4.33
5.0
2.33
3.67
4.67