File: EDX Back Ups and Old Files/Spectra copy 3.3.23/Samples/High pH SF 60C 2d/12.0.txt
0.0
-70.67
16.33
-13.33
-87.33
55.33
-28.67
17.0
-25.33
-37.0
7.33
5.33
-10.33
-13.67
-6.67
-1.33
-1.0
-1.33
-2.0
-1.0
1.67
-0.33
-0.67
0.0
0.0
0.0
-0.67
1.0
-0.33
1.0
0.67
-0.33
2.0
0.0
2.0
0.0
0.0
0.0
-0.33
-1.33
0.33
-0.33
-0.33
0.0
0.33
-0.33
1.0
1.0
-0.67
0.33
0.0
0.33
0.67
0.33
1.33
-2.0
2.0
0.0
0.33
2.0
0.33
2.0
-2.0
1.0
5.67
0.0
-6.0
2.0
3.33
3.33
2.67
4.67
3.67
0.67
-3.67
-3.67
-2.67
-1.67
4.33
3.67
2.67
6.33
0.33
3.67
9.67
-9.33
-3.0
-2.67
6.33
2.33
2.67
2.0
-4.33
-1.0
0.33
-1.33
2.67
1.33
-1.67
-3.0
0.0
3.0
2.67
8.0
2.33
3.67
0.67
0.33
-3.67
-1.33
1.33
-2.0
-5.33
9.67
7.0
4.33
1.33
-0.33
3.67
0.0
3.0
1.0
3.33
1.67
2.0
-6.67
6.67
2.33
2.0
2.33
8.67
5.33
4.33
4.0
4.33
2.67
-1.67
6.0
5.33
-0.67
4.33
0.67
-3.33
1.33
1.0
5.0
0.0
-4.67
-1.0
3.67
4.0
1.67
-1.0
1.33
2.0
7.33
4.0
-1.0
2.33
1.67
-0.67
-0.33
3.33
3.0
1.0
-1.33
-1.0
1.67
-4.33
-2.0
3.0
5.67
-1.67
3.33
4.33
3.33
4.33
1.0
-6.0
2.0
3.33
3.67
4.0
1.67
-0.67
0.67
-0.33
4.33
3.67
-2.0
3.0
1.33
-6.67
4.0
-0.33
4.0
2.33
-1.0
-0.67
-1.0
2.67
5.0
-0.33
0.0
2.0
-0.67
2.67
0.67
-4.67
-1.33
-0.67
-2.33
1.33
-3.33
7.67
-4.33
1.0
-1.33
4.33
1.0
3.0
-0.67
4.67
-2.33
-2.0
-1.0
5.33
5.67
-1.33
2.67
-1.0
2.33
0.33
0.67
5.0
1.0
1.0
4.33
1.0
-0.67
-0.67
1.0
-4.67
-0.33
3.33
1.67
-3.33
-4.0
1.0
-3.0
3.67
0.0
0.33
-3.67
8.0
-2.33
1.0
1.0
2.67
1.67
0.33
-2.67
-1.33
-1.67
-0.33
0.0
-1.0
-1.0
2.33
0.33
-1.33
1.67
-3.67
4.33
-1.0
0.67
-0.33
10.67
-2.0
-3.67
2.0
-0.67
-0.67
-5.67
0.0
-4.0
-3.33
0.0
2.33
2.67
-1.0
0.33
2.33
0.0
-4.0
-1.67
-2.33
-0.67
3.33
-2.0
2.33
-1.0
-0.67
2.33
-2.0
-4.67
1.33
1.67
0.67
0.67
3.33
1.67
-2.33
-0.33
-4.33
1.0
-3.33
-2.33
4.33
-5.33
-3.33
-1.33
0.67
-0.67
0.67
-4.0
-6.67
1.33
0.0
2.0
-5.67
-6.33
-0.33
-2.0
2.0
-0.33
-1.33
1.33
2.33
-0.67
1.0
-3.67
0.33
-1.0
0.33
3.0
0.0
-4.67
0.0
-0.67
2.33
-0.67
-2.0
-3.0
-1.67
-1.67
-3.0
1.67
1.67
-7.0
-3.33
-6.33
-5.33
1.33
-7.33
-4.33
-3.67
-1.33
4.33
0.67
-4.33
-3.33
4.67
-7.33
7.33
-1.33
-6.0
-4.67
1.0
-1.33
-1.0
1.33
-1.0
3.0
-6.67
-6.33
0.0
-4.0
0.0
-5.33
-9.0
-1.67
1.67
-2.67
2.67
-0.67
-0.33
-12.33
2.33
-7.33
-5.0
4.33
-4.33
2.0
-5.67
-1.33
10.33
-5.0
-1.0
-0.33
-5.67
-5.67
-0.67
0.0
5.67
2.33
9.0
-12.33
1.0
-4.67
-3.33
-5.0
-4.33
3.0
-5.33
-2.0
-6.67
1.67
-6.0
-4.33
-3.67
-7.33
-10.0
-8.33
-5.0
-2.0
-2.33
3.0
-0.33
-3.0
3.67
-3.67
-3.33
1.0
1.33
-2.0
4.33
-2.0
4.33
-4.67
-3.0
2.67
-3.67
-5.0
-4.67
2.33
-4.0
4.0
2.67
-1.67
-0.67
2.0
2.33
-10.33
-9.33
-0.67
11.0
6.67
4.0
-2.67
10.67
-4.33
-1.33
-5.67
2.67
-2.67
-8.67
-3.33
-3.0
-5.0
-1.0
-2.33
-1.33
-6.33
-4.0
0.0
1.67
2.33
4.67
1.33
-3.33
0.0
5.0
0.0
-7.33
7.33
0.67
-1.0
-1.67
-7.33
-4.33
-9.0
-8.33
-1.67
-6.67
-2.67
1.33
7.0
6.33
-5.67
16.33
11.0
12.33
11.33
8.33
28.0
24.0
29.0
25.33
27.0
33.0
26.67
16.0
17.33
15.33
15.0
13.33
0.67
13.0
4.67
7.0
3.0
-8.67
9.33
6.33
5.0
-4.67
8.0
4.67
0.0
2.0
-2.0
0.0
3.33
-11.67
7.0
0.0
1.33
-3.0
8.67
4.33
6.33
5.33
7.0
3.67
3.33
-0.67
5.0
4.0
5.0
3.0
-2.67
4.0
6.67
-4.0
6.0
3.0
4.33
-0.67
-4.67
8.0
-5.0
7.0
8.67
4.0
-3.67
8.33
2.0
9.33
5.33
-1.67
-0.67
-0.33
12.0
-2.0
2.0
6.67
1.67
9.33
-12.33
4.67
-5.0
2.33
4.33
9.33
-1.0
9.0
6.0
-2.0
15.0
-3.67
-0.67
6.67
5.67
13.0
4.33
12.67
2.33
3.33
3.33
6.33
7.0
11.33
8.67
15.33
3.0
1.0
11.33
8.67
6.67
-2.67
-3.0
10.33
3.33
11.0
17.33
13.67
7.0
9.67
-1.67
7.33
3.0
0.0
0.0
11.33
6.33
1.67
3.33
6.33
10.0
8.67
9.33
1.67
17.67
28.67
22.0
38.0
23.67
61.33
56.33
86.0
123.33
127.0
185.33
227.0
264.33
267.0
304.67
284.67
318.33
273.0
312.33
246.33
198.67
177.67
111.33
108.0
73.33
53.33
51.0
39.67
25.33
20.67
12.0
13.33
9.0
17.67
12.33
10.67
-0.67
19.67
-2.33
-4.67
6.67
8.67
10.33
-3.67
-10.33
10.0
19.67
14.33
1.67
12.67
6.0
6.33
11.67
6.0
0.67
9.0
-2.67
15.67
13.33
14.0
12.67
6.33
-4.33
17.0
-6.33
11.67
5.33
3.0
5.33
8.0
12.0
1.67
11.33
-10.0
2.67
-3.0
9.67
14.67
7.33
5.0
8.67
8.33
-0.67
0.67
8.33
15.33
9.67
0.0
5.0
9.0
5.0
16.67
-2.67
1.67
1.33
8.0
11.33
-4.67
5.0
6.67
16.67
-1.33
7.67
-5.0
-1.0
-5.33
-1.33
-1.0
3.67
11.67
11.67
5.0
12.0
-4.33
14.0
-8.33
10.33
8.0
-0.33
-0.33
0.0
5.33
5.67
4.33
8.0
-4.0
0.0
5.67
-0.67
8.33
6.0
-3.33
8.0
-5.33
4.33
-1.67
-10.67
-5.67
14.0
-2.0
14.33
-15.33
0.67
7.67
-4.33
-1.67
22.67
5.0
7.67
19.0
2.33
5.33
8.67
-1.33
-6.33
13.67
20.33
3.33
-7.0
0.33
6.0
15.0
14.33
11.0
3.67
3.0
8.33
2.67
6.33
8.67
-4.33
-6.67
3.67
9.33
0.67
7.33
0.67
0.0
0.0
-2.67
7.0
5.67
8.0
-5.33
2.67
2.0
4.0
0.33
2.67
11.33
10.33
-1.0
2.33
2.0
6.0
-7.0
-5.0
-7.0
10.33
-0.67
12.33
11.67
6.0
2.33
-2.0
-2.0
3.33
12.67
-2.0
5.33
-12.33
-0.33
8.67
6.33
10.0
4.67
2.67
11.67
4.0
8.0
0.0
4.67
9.67
5.0
0.0
6.67
15.33
9.0
0.0
8.67
9.67
15.33
13.0
11.33
7.33
14.33
15.67
15.33
8.67
5.67
-4.33
1.67
1.67
-7.33
-2.67
-0.67
-2.0
-4.67
-1.33
0.0
3.67
-0.67
-5.67
9.67
-1.0
-2.33
-3.67
-10.33
1.67
-3.0
-2.0
9.0
2.33
14.67
2.33
4.67
2.0
-8.0
6.33
1.33
1.0
-0.67
7.0
6.0
-6.33
-1.33
11.0
-4.0
1.67
-11.67
-3.67
-3.0
4.33
7.0
2.33
-2.0
-7.67
-4.0
-3.0
1.0
-4.0
4.67
1.67
-1.67
-3.33
2.67
-2.67
-0.67
-5.67
-2.33
4.33
5.0
-0.67
0.0
-0.33
16.33
2.67
5.0
6.0
2.67
3.0
8.67
8.0
2.0
2.33
10.0
4.67
5.67
3.33
-3.0
6.33
-6.33
0.0
4.67
2.33
0.67
2.33
-1.33
1.0
-2.0
-6.0
-0.33
2.67
3.33
-1.33
-4.33
7.67
-1.33
4.67
-4.67
-3.33
-1.67
1.33
0.0
0.33
5.33
2.33
7.33
-0.67
4.33
-2.67
2.67
-0.33
-2.67
-7.67
3.0
-1.67
-1.0
-3.67
-1.33
1.67
0.67
1.33
3.33
1.33
-5.33
-1.33
3.67
3.0
2.67
3.0
-4.33
-0.33
1.33
1.0
1.67
-5.33
0.33
4.0
9.33
3.67
-0.33