File: EDX Back Ups and Old Files/Spectra copy 3.3.23/Samples/High pH SF 60C 2d/6.0.txt
0.0
-76.67
70.33
55.67
13.67
105.33
9.33
11.0
-9.33
21.0
8.33
41.33
6.67
-12.67
0.33
6.67
-6.0
-0.33
0.0
0.0
1.67
-0.33
2.33
2.0
-1.0
1.0
-0.67
1.0
0.67
1.0
-0.33
0.67
0.0
0.0
2.0
2.0
0.0
0.0
-0.33
-1.33
-0.67
-0.33
-0.33
-1.0
0.33
0.67
3.0
-1.0
1.33
1.33
-2.0
0.33
1.67
1.33
-0.67
-2.0
1.0
3.0
2.33
-1.0
-0.67
1.0
2.0
4.0
-0.33
4.0
-2.0
2.0
-0.67
1.33
2.67
4.67
-1.33
9.67
-0.67
6.33
0.33
1.33
-4.67
0.67
5.67
10.33
-1.67
6.67
6.67
-5.33
0.0
4.33
3.33
0.33
-4.33
11.0
-3.33
1.0
6.33
4.67
3.67
4.33
1.33
2.0
3.0
-6.0
-2.33
-5.0
2.33
-0.33
5.67
6.33
3.33
-0.33
2.33
6.0
4.67
10.67
0.0
4.33
7.33
7.67
0.67
1.0
5.0
-3.0
6.33
2.67
8.0
-6.67
10.67
1.33
1.0
-0.67
8.67
-2.67
1.33
3.0
2.33
5.67
6.33
7.0
10.33
9.33
9.33
6.67
-0.33
3.33
7.0
8.0
5.0
-0.67
2.0
7.67
1.0
-1.33
7.0
1.33
-4.0
6.33
11.0
5.0
2.33
7.67
-0.67
4.67
-0.67
3.0
6.0
1.67
-2.0
3.67
9.67
9.0
1.0
2.67
-3.67
11.33
4.33
1.33
7.33
3.0
-1.0
0.0
7.33
-4.33
0.0
3.67
8.33
4.67
-1.33
4.33
2.67
3.0
-1.0
-2.67
-2.67
3.0
9.67
3.0
2.33
-1.0
2.33
5.0
5.67
8.0
2.67
-1.0
5.0
4.33
0.67
3.67
0.33
-4.33
-2.67
1.67
1.33
-2.33
4.67
7.67
11.0
8.67
-2.67
3.0
4.0
1.33
2.67
6.67
0.0
3.0
-1.67
6.67
2.67
-0.33
-1.0
2.33
2.33
4.67
10.0
-5.0
5.0
3.33
-1.0
6.33
5.33
0.0
2.33
1.67
3.33
7.67
-2.33
0.0
-4.0
2.0
-2.33
-1.0
-0.67
1.33
12.0
5.67
0.0
-1.0
-0.33
4.67
1.33
-0.67
-0.33
5.33
0.67
2.0
-2.0
2.0
0.33
-1.67
3.67
1.67
5.33
-3.67
-1.0
1.67
2.67
1.67
1.0
0.33
2.0
1.33
-3.67
-2.67
0.0
-2.0
-4.33
3.0
2.33
-0.33
1.0
1.33
2.33
9.0
2.0
1.33
-3.33
2.33
2.33
1.0
-3.67
0.0
1.33
-1.67
1.0
-2.67
-1.67
1.67
3.67
-0.33
1.33
3.67
-2.33
3.67
0.67
0.0
-2.33
0.67
-2.67
-2.33
-1.33
0.67
0.67
-2.67
-0.33
4.0
-0.67
3.33
0.0
1.0
-0.67
-3.33
0.67
-3.0
0.0
-1.33
-6.33
-3.67
2.33
-1.67
1.0
-3.67
1.33
-5.0
-3.67
4.0
-3.0
1.33
0.0
-1.67
2.33
-0.67
1.0
1.0
-5.67
-5.67
-8.0
-3.33
2.67
-6.0
4.67
-2.33
-0.33
2.33
-5.33
-1.33
-1.67
-2.33
2.33
-0.33
-5.33
-0.33
0.67
-6.33
5.33
-8.33
-3.0
-4.67
2.0
-3.33
8.0
-0.67
-5.0
3.0
-4.67
-4.33
-2.0
1.0
1.0
-5.33
-6.0
-0.67
0.67
-5.67
-1.33
-6.67
-3.33
-11.33
3.33
-4.33
6.0
9.33
-0.33
16.0
7.33
27.67
21.33
26.0
2.0
13.67
9.33
11.33
10.33
13.0
4.67
-7.67
-6.0
-4.33
0.0
-0.67
-5.33
-8.0
8.67
4.0
-4.33
1.0
-11.67
2.67
-1.0
-2.33
-5.67
-5.33
-1.0
-5.33
-6.0
0.0
-6.33
-7.0
-6.33
-3.0
-2.33
-4.67
-9.33
-10.0
-0.67
-10.0
-7.67
0.0
-0.67
-10.67
-1.0
-6.33
-1.67
-2.0
0.33
-0.67
1.0
0.0
-5.33
-7.67
0.33
6.0
-1.67
-5.33
-4.33
-10.67
-4.0
-1.33
-8.0
-5.67
-5.33
-3.33
1.67
-13.67
-8.33
-3.67
-4.67
-2.33
-4.0
-3.0
-5.0
-4.33
-5.33
3.67
-5.0
-3.0
-4.33
-3.67
1.67
-4.67
0.67
0.0
-4.0
2.0
-5.33
2.33
-1.33
4.0
1.33
-8.33
0.67
-5.0
-6.33
-3.67
-3.67
-0.67
4.33
1.0
2.33
8.33
3.33
-6.0
-0.67
15.33
8.33
19.0
11.0
22.0
2.33
18.0
16.0
12.67
4.0
3.33
-0.67
0.0
4.33
9.67
-5.0
4.67
8.0
6.0
7.33
1.33
-6.67
-5.0
6.33
6.0
-7.33
2.0
2.0
-3.0
4.0
-3.67
-8.67
9.0
-6.0
11.33
-2.0
7.67
-2.67
11.33
2.33
8.0
5.67
6.33
-4.67
5.0
3.0
-1.0
5.0
-2.67
-4.0
5.67
-1.0
3.0
1.0
12.33
8.33
-1.67
1.0
11.0
21.0
23.67
4.0
11.33
4.33
7.0
9.33
7.33
-0.67
-3.67
13.67
6.0
8.0
14.0
14.67
11.67
13.33
3.67
10.67
19.0
-0.67
19.33
6.33
3.0
19.0
-3.0
5.0
10.0
6.33
-3.67
3.67
1.67
1.0
-2.67
5.67
5.33
0.33
-2.67
9.33
4.0
2.33
8.67
6.33
7.0
5.0
1.33
10.67
5.67
14.33
4.0
13.33
11.33
5.0
5.33
10.67
7.0
5.67
-5.67
9.33
18.0
9.0
11.0
13.33
7.33
14.67
8.33
13.33
15.0
7.67
6.33
10.67
15.67
19.67
28.0
22.0
19.67
22.33
14.33
25.0
35.33
38.0
70.33
76.0
72.33
99.0
105.67
89.67
97.33
78.0
98.33
89.33
82.67
54.67
30.33
19.0
34.33
21.33
26.0
19.67
25.33
4.67
7.0
17.33
16.0
19.67
8.33
-4.33
-2.67
10.67
11.67
0.33
9.67
10.67
8.33
7.33
-6.33
10.0
19.67
18.33
15.67
2.67
17.0
2.33
17.67
9.0
-2.33
2.0
20.33
2.67
16.33
14.0
17.67
11.33
8.67
18.0
-0.33
16.67
14.33
-1.0
0.33
-3.0
10.0
-6.33
1.33
-4.0
14.67
12.0
11.67
9.67
-1.67
6.0
6.67
8.33
21.33
-0.33
15.33
22.33
4.67
8.0
0.0
5.0
-8.0
12.67
-8.67
11.67
-0.67
4.0
5.33
16.33
13.0
17.67
13.67
4.67
12.67
4.0
17.0
12.67
16.67
9.0
15.67
11.67
33.67
15.0
25.0
18.67
25.0
18.67
28.33
18.0
36.67
16.67
22.0
27.33
10.67
21.33
15.0
19.0
13.0
3.67
11.33
2.33
11.0
-11.33
12.0
0.67
-6.67
9.33
1.33
-4.67
13.0
6.0
11.33
-8.33
15.67
17.67
-4.33
13.33
14.67
-2.0
6.67
18.0
-0.67
9.33
2.67
9.67
18.67
21.67
14.33
5.33
-2.0
0.33
-9.0
21.0
3.33
9.0
8.67
7.0
1.33
4.67
8.33
1.67
5.67
-7.67
4.67
20.33
3.67
0.33
-2.33
8.0
-1.0
11.33
4.0
-6.33
1.0
9.67
8.67
-11.0
2.0
6.33
1.67
11.33
3.33
5.0
-1.67
8.0
0.0
7.0
3.0
2.0
-0.67
2.33
8.33
-3.33
-1.0
6.33
3.0
-5.0
8.33
0.67
4.0
10.33
1.67
10.67
-0.33
6.33
10.0
5.67
2.67
0.67
11.0
1.0
7.0
2.67
0.67
-3.0
2.0
5.67
6.33
6.0
-1.0
15.67
7.67
15.33
3.0
2.33
3.33
-0.67
3.67
8.33
2.67
6.67
-0.33
-4.33
-1.33
-1.33
-3.67
0.33
-5.0
7.33
9.67
-2.0
16.67
-0.67
-6.67
3.67
4.0
9.67
-5.67
3.67
3.67
4.0
1.0
-2.0
3.33
-0.33
-2.67
7.67
8.0
3.0
0.33
8.33
3.0
5.33
0.0
3.0
-5.33
1.67
1.0
2.0
-0.33
3.33
4.33
10.0
2.33
4.0
2.33
-8.0
2.33
1.0
7.0
6.0
-1.0
1.67
-6.33
-0.67
0.67
12.67
-4.67
4.33
-0.67
-4.33
-1.67
2.0
5.33
6.0
0.67
7.33
-0.33
7.0
3.0
1.67
9.0
3.67
-5.0
2.0
-0.67
6.0
-1.33
7.67
5.33
0.0
5.33
-1.33
-1.0
3.67
7.33
2.67
2.33
-1.33
6.0
3.0
5.0
7.67
2.67
4.33
3.67
-1.33
4.67
1.67
3.67
4.33
-4.33
7.33
-0.67
2.0
6.33
-2.67
-1.67
-1.67
1.33
0.33
5.33
1.67
2.67
8.33
-6.67
-1.0
-1.67
-2.0
1.33
-0.33
2.67
2.67
7.33
5.33
-0.67
-0.33
-0.33
13.67
-3.0
1.67
-1.0
7.67
2.67
-2.67
-4.0
-2.33
0.67
5.33
3.0
2.33
1.67
-4.33