File: EDX Back Ups and Old Files/Spectra copy 3.3.23/Samples/High pH SF 60C 2d/6.25.txt
0.0
-67.67
12.33
89.67
-35.33
20.33
-11.67
-16.0
20.67
24.0
-23.67
16.33
-10.33
2.33
22.33
-3.33
1.0
3.67
-2.0
2.0
1.67
2.67
-0.67
0.0
-1.0
1.0
-0.67
2.0
0.67
0.0
0.67
-0.33
0.0
0.0
0.0
0.0
1.0
0.0
-0.33
-1.33
-0.67
-0.33
0.67
0.0
-0.67
0.67
2.0
2.0
0.33
0.33
-1.0
3.33
1.67
0.33
-0.67
1.0
6.0
1.0
3.33
4.0
-1.67
0.0
4.0
-3.0
1.67
-1.0
0.0
-2.0
4.33
2.33
1.67
1.67
1.67
11.67
-3.67
2.33
-6.67
5.33
-5.67
-1.33
-2.33
6.33
8.33
6.67
-1.33
1.67
-5.0
4.33
-7.67
-4.67
6.67
10.0
-0.33
2.0
3.33
0.67
2.67
7.33
2.33
0.0
6.0
-2.0
-2.33
5.0
-2.67
-3.33
4.67
0.33
6.33
5.67
0.33
-4.0
0.67
9.67
7.0
7.33
4.33
8.67
6.67
-4.0
7.0
-1.0
4.33
2.67
3.0
0.33
7.67
4.33
-4.0
5.33
0.67
2.33
1.33
7.0
-1.67
-2.33
-0.67
9.0
6.33
13.33
6.33
3.67
0.67
6.33
2.0
-1.0
5.0
-9.67
4.0
0.67
1.0
7.67
3.0
4.33
-4.0
9.33
5.0
2.0
10.33
1.67
-5.67
-1.33
5.33
7.0
-1.0
1.67
-3.0
4.67
3.67
5.0
8.0
-0.33
0.33
2.33
1.33
1.33
-0.67
3.0
5.0
8.0
4.33
-3.33
10.0
0.67
6.33
4.67
-2.33
4.33
3.67
3.0
0.0
0.33
-8.67
3.0
0.67
0.0
4.33
-1.0
3.33
4.0
9.67
7.0
-0.33
2.0
5.0
-3.67
9.67
3.67
-0.67
-1.33
5.33
3.67
-0.67
3.67
9.67
4.67
3.0
2.67
-0.67
-3.0
5.0
3.33
0.67
-0.33
-3.0
6.0
-2.67
2.67
0.67
-3.33
3.0
4.33
6.33
2.67
3.0
-1.0
3.0
1.33
0.0
5.33
1.33
7.0
-1.67
5.67
4.33
-2.33
-3.33
-3.0
1.0
1.0
2.67
1.0
-0.67
1.33
5.0
0.67
-1.0
-3.0
4.67
-0.33
-3.67
3.33
-0.33
3.33
3.67
2.0
-2.0
3.0
2.33
-1.67
-0.33
1.67
-0.67
5.33
-3.0
3.67
4.67
4.67
3.0
-0.67
0.0
1.33
0.33
0.33
1.0
-1.0
-6.33
2.0
1.33
3.67
1.0
3.33
0.33
5.0
6.0
-3.67
-3.33
-1.67
0.33
2.0
-0.67
0.0
-1.67
0.33
5.0
-1.67
2.33
0.67
4.67
0.67
3.33
4.67
-2.33
0.67
2.67
1.0
4.67
-0.33
3.33
-2.33
1.67
-1.33
3.67
-1.67
0.67
-5.0
-3.67
-4.67
-1.0
3.0
0.33
-1.33
4.67
2.0
0.0
-1.33
-6.33
-1.67
4.33
-3.67
2.0
-2.67
-0.67
-5.0
-1.67
1.0
-5.0
-0.67
0.0
-2.67
-2.67
-2.67
0.0
0.0
-4.67
0.33
-4.0
6.67
-2.33
-7.0
-2.33
-5.33
-1.33
1.33
-8.33
-1.33
2.33
2.67
-2.67
-2.33
-3.33
-5.33
-5.33
-5.33
-2.67
3.67
-4.0
2.33
-5.0
-5.33
0.0
2.33
-4.0
1.0
-0.67
-5.33
-6.0
3.0
0.0
-3.33
-6.0
-4.67
-2.33
1.33
-2.33
1.33
0.67
-5.33
1.33
5.67
3.0
12.33
9.67
16.0
17.33
29.67
31.33
28.0
28.0
13.67
6.33
-1.67
15.33
4.0
2.67
3.33
8.0
-0.33
2.0
1.33
-4.33
-3.0
-0.33
16.0
-1.33
3.0
-0.67
1.67
0.0
-9.33
-5.67
-5.33
-4.0
-3.33
3.0
-5.0
-0.33
-9.0
1.67
0.0
-1.33
-6.67
-10.33
-9.0
0.33
8.0
0.33
-1.0
3.33
-7.67
-5.0
-6.33
-3.67
1.0
-5.67
-2.67
-2.0
-9.0
2.67
-8.67
-2.67
-12.0
1.33
-5.33
-8.33
1.33
-3.0
-2.33
-2.0
-2.67
-2.33
2.67
-1.33
-10.67
-5.33
-7.67
-11.67
4.67
-6.0
-6.0
-2.0
-3.33
-2.33
-0.33
0.0
-1.0
-7.33
-1.67
-0.33
-3.67
-4.33
3.0
-8.0
-9.0
-13.33
3.33
-2.33
-1.0
-4.67
-6.33
-3.33
1.0
-1.33
-7.67
-3.67
-0.67
-0.67
-1.0
1.33
-0.67
2.33
10.0
7.33
4.33
3.33
14.0
12.0
21.0
11.33
10.0
11.0
10.67
-2.0
9.33
5.33
5.0
11.33
-0.33
4.0
1.67
5.0
-6.0
-8.67
-1.67
8.33
5.0
-3.67
3.0
-4.33
0.0
-1.0
5.0
8.0
5.33
-4.67
0.0
2.0
4.33
-1.0
-3.33
7.33
14.33
1.33
4.0
5.67
13.33
-0.67
2.0
-2.0
1.0
6.0
3.33
-8.0
14.67
0.0
1.0
8.0
4.33
9.33
-8.67
8.0
3.0
13.0
-0.33
7.0
16.33
1.33
11.0
2.33
11.33
2.33
0.33
10.67
3.0
9.0
1.0
14.67
8.67
8.33
11.67
8.67
-10.0
-10.67
0.33
2.33
9.0
14.0
6.0
15.0
14.0
7.33
0.33
9.67
0.67
7.0
-1.67
10.67
8.33
6.33
2.33
-2.67
0.0
1.33
0.67
-0.67
12.0
0.0
11.33
14.67
5.67
0.33
4.0
3.33
1.33
-1.0
6.33
5.67
7.0
7.67
5.33
8.33
2.0
9.0
2.0
1.33
7.33
11.67
8.33
14.33
13.0
22.67
9.33
5.67
24.67
16.67
16.0
18.0
22.67
23.33
32.33
19.0
47.33
52.0
56.33
76.0
76.33
91.0
87.67
108.67
92.33
106.0
104.33
74.33
77.67
69.67
50.33
30.0
28.33
12.33
21.0
19.67
7.33
13.67
10.0
11.33
6.0
7.67
9.33
4.67
5.33
-0.33
8.67
11.33
9.67
-0.33
5.33
4.33
3.67
3.0
16.67
9.33
-4.33
2.67
8.0
13.33
6.67
5.0
7.67
15.0
6.33
19.67
11.33
15.0
-3.33
14.33
8.67
14.0
-0.33
11.67
18.33
16.0
2.33
9.0
2.0
-1.33
2.33
-13.0
5.67
16.0
10.67
16.67
14.33
15.0
9.67
6.33
2.33
3.67
16.33
12.33
4.67
13.0
8.0
7.0
14.0
12.67
-3.67
1.67
16.33
15.0
12.33
13.33
5.0
2.67
13.67
11.67
9.67
10.0
13.0
-7.33
0.67
24.0
-7.33
3.67
25.67
19.0
23.0
15.67
21.0
21.67
37.33
29.0
28.67
19.67
28.0
28.33
17.67
16.33
15.0
13.0
2.0
24.67
10.33
21.33
20.0
5.67
9.0
0.67
2.33
16.33
0.33
5.33
-5.0
-6.0
2.33
-4.33
5.67
-8.33
9.67
10.33
13.67
6.0
5.67
17.0
-4.67
7.33
8.67
0.67
18.67
16.67
14.33
3.33
6.0
10.33
5.0
9.0
14.33
3.0
3.67
18.0
18.33
1.67
0.33
8.67
3.67
-8.67
7.67
22.33
1.67
9.33
-6.33
-4.0
5.0
-2.67
13.0
-5.33
7.0
8.67
8.67
-2.0
-1.0
-1.67
-2.33
11.33
-3.67
13.0
5.33
3.0
15.0
11.0
-10.0
-6.0
-5.67
-3.67
12.33
-3.33
7.0
-1.67
6.0
5.0
9.33
3.67
4.0
7.33
-6.33
-4.33
14.67
5.33
2.0
-0.33
1.67
13.67
16.0
11.0
1.0
-5.33
-6.33
0.0
8.0
9.67
9.33
-4.0
-4.0
-2.33
-2.33
4.33
6.0
8.33
-7.67
-0.67
4.67
2.33
-6.33
4.67
-2.33
0.67
-7.33
8.67
-3.67
-1.67
-6.0
5.33
8.67
7.0
4.67
-0.67
0.33
-3.33
1.0
10.67
1.33
2.67
1.67
-6.0
-2.0
-1.0
9.33
7.67
3.33
8.67
2.0
4.0
6.33
7.33
1.0
13.33
13.0
5.0
-1.33
-0.33
-7.0
3.0
-3.33
7.33
-9.67
11.0
4.33
7.0
5.33
2.0
5.33
-2.0
3.0
-2.0
-5.0
5.67
3.67
-9.67
-1.33
0.67
0.33
4.33
1.33
-2.33
-5.67
0.0
-0.67
6.0
6.67
3.33
-2.33
7.0
3.0
-1.33
5.0
6.67
4.0
-1.0
2.33
0.0
1.67
-2.33
-2.67
1.0
3.33
5.67
1.0
-1.33
-0.67
3.67
-0.67
0.67
-4.0
0.0
-4.0
-0.33
2.67
-1.67
-0.33
0.67
2.67
6.67
4.67
2.33
-3.33
5.33
4.33
4.0
-2.67
0.33
4.33
5.33
5.33
-3.67
0.33
0.67
-1.33
2.33
-0.67
-7.0
-1.67
-2.0
1.33
10.67
5.67
-1.33
10.33
5.33
-3.67
-1.33
2.67
3.67
3.0
1.67
-3.0
0.67
1.67
-4.67
-5.0
1.67
-1.33
9.33
3.0
7.33
9.67
2.67