File: EDX Back Ups and Old Files/Spectra copy 3.3.23/Samples/High pH SF 60C 2d/6.5.txt
0.0
1.33
-31.67
103.67
-0.33
8.33
-66.67
-54.0
-63.33
-19.0
-3.67
6.33
-19.33
-3.67
0.33
-3.33
-1.0
2.67
-2.0
0.0
1.67
-0.33
-0.67
1.0
1.0
0.0
-0.67
2.0
0.67
1.0
1.67
0.67
0.0
0.0
0.0
0.0
1.0
1.0
-0.33
-1.33
1.33
-0.33
0.67
-1.0
-0.67
-0.33
0.0
3.0
0.33
0.33
-2.0
1.33
1.67
-0.67
1.33
2.0
3.0
3.0
2.33
-1.0
3.33
-1.0
5.0
2.0
0.67
0.0
-1.0
3.0
-0.67
1.33
8.67
6.67
2.67
4.67
-5.67
0.33
-1.67
3.33
0.33
4.67
3.67
2.33
2.33
5.67
4.67
-6.33
3.0
6.33
4.33
-0.67
2.67
4.0
-1.33
6.0
-0.67
0.67
4.67
-1.67
6.33
-2.0
-1.0
2.0
-6.33
2.0
3.33
-0.33
1.67
3.33
2.33
1.67
3.33
-4.0
0.67
4.67
2.0
4.33
2.33
-1.33
5.67
3.0
5.0
-5.0
-3.67
1.67
7.0
3.33
5.67
8.33
2.0
11.33
-6.33
2.33
-0.67
9.0
3.33
0.67
4.33
5.0
0.33
2.33
8.33
3.67
-0.33
-0.67
4.0
3.0
7.0
-11.67
-5.0
4.67
3.0
6.67
1.0
5.33
-5.0
5.33
6.0
-1.0
5.33
-1.33
-4.67
3.67
5.33
7.0
3.0
-2.33
3.0
0.67
3.67
-2.0
2.0
0.67
7.33
6.33
7.33
3.33
3.33
3.0
1.0
3.0
10.33
-0.33
3.0
-0.33
6.33
-0.33
1.67
8.33
3.67
2.0
-3.0
1.33
-2.67
8.0
2.67
0.0
-0.67
5.0
3.33
8.0
6.67
3.0
-2.33
0.0
4.0
-3.67
6.67
0.67
0.33
-4.33
-2.67
1.67
-2.67
0.67
4.67
-2.33
4.0
1.67
3.33
-1.0
3.0
1.33
0.67
3.67
1.0
-4.0
1.33
1.67
-1.33
-0.33
-1.0
0.33
-1.67
9.67
9.0
-1.0
-1.0
3.33
1.0
-3.67
1.33
3.0
2.33
0.67
6.33
0.67
-1.33
2.0
3.0
9.0
2.67
0.0
-2.67
1.33
2.0
2.67
-1.0
0.0
5.67
2.67
1.33
-3.67
-0.33
-0.67
2.67
7.0
-1.0
4.0
5.33
2.33
3.67
0.67
3.33
0.33
-1.0
5.67
-2.33
3.67
2.0
-0.67
1.0
4.33
1.33
-3.67
5.0
1.0
-5.33
5.0
-1.67
0.67
-1.0
-2.67
-0.67
0.0
2.0
-1.67
-0.33
-1.67
-2.67
-3.0
-1.67
1.0
2.33
0.33
-2.0
0.33
-0.67
0.67
4.67
2.67
-2.67
0.67
5.67
0.67
-0.33
1.0
0.67
-1.33
-1.67
-3.33
1.67
-1.33
2.67
-2.67
3.67
1.0
-0.67
0.33
-2.0
0.0
-1.67
-0.33
0.67
-1.0
-3.0
-7.33
-4.33
4.33
3.33
-4.67
1.0
-1.67
6.33
-2.0
-8.67
6.0
-1.0
-1.67
2.0
-4.67
-2.67
-3.67
-1.0
0.0
0.33
-5.67
-1.0
-1.33
-5.33
-7.0
0.67
-4.33
-1.33
-2.67
-5.33
-3.33
-3.67
-3.33
1.33
-3.33
-5.33
-2.33
-1.33
-3.33
5.33
-4.33
-4.0
-2.67
-3.0
-3.33
3.0
-1.67
5.0
-2.0
0.33
-4.33
-1.0
-3.0
-1.0
-2.33
-3.0
-6.67
1.67
-2.67
0.67
-1.67
-5.33
-3.33
5.33
-0.33
-2.0
3.33
2.67
13.0
8.33
26.67
15.33
15.0
11.0
9.67
5.33
9.33
9.33
10.0
4.67
-4.67
1.0
-7.33
-4.0
1.33
2.67
2.0
-2.33
0.0
-1.33
-3.0
-5.67
-5.33
-1.0
1.67
-8.67
-9.33
-4.0
-1.33
-3.0
2.0
-3.33
-3.0
-8.33
-6.0
-0.33
-5.67
-7.33
-11.0
0.33
-4.0
-6.67
-4.0
6.33
-6.67
-1.0
-4.33
-9.67
-5.0
3.33
-4.67
4.0
-2.0
-4.33
-2.67
-0.67
-4.0
-5.67
-2.33
8.67
-8.67
-7.0
-2.33
10.0
-8.67
-4.33
-0.33
-6.33
-4.67
-9.33
-3.67
-2.67
-0.33
-2.0
-5.0
-4.0
-0.33
-0.33
-3.33
-6.0
1.0
-10.33
-5.67
-2.33
-8.67
-1.33
-4.0
-3.0
-1.0
-8.33
11.33
-4.33
-1.0
4.33
-3.33
5.67
-9.0
-5.33
-6.67
-1.67
-0.67
-0.67
3.0
-0.67
-3.67
0.33
10.0
8.33
-0.67
2.33
4.0
16.0
17.0
9.33
8.0
2.0
2.67
-4.0
5.33
1.33
4.0
7.33
12.67
12.0
0.67
12.0
6.0
-2.67
4.33
1.33
-5.0
-2.67
0.0
-8.33
-1.0
11.0
14.0
1.0
5.33
-3.67
9.0
4.0
7.33
1.0
9.67
9.33
3.33
-0.67
1.0
-5.33
4.33
-3.67
10.0
5.0
6.0
4.0
-2.67
6.0
6.67
0.0
4.0
7.0
4.33
3.33
7.33
9.0
11.0
3.0
12.67
4.0
-1.67
-5.67
8.0
-3.67
15.33
3.33
-1.67
0.67
4.0
6.0
3.0
14.67
2.67
16.33
-6.33
4.67
14.0
2.33
19.33
1.33
3.0
13.0
-1.0
6.0
5.0
5.33
15.33
14.67
5.67
-3.0
1.33
1.67
3.33
5.33
6.33
16.33
11.0
6.33
16.67
6.33
1.0
11.0
5.33
8.67
9.67
8.33
0.0
9.33
4.33
14.0
-0.67
14.67
5.0
2.67
-0.67
1.33
-1.0
7.0
8.0
8.33
12.33
5.67
8.33
11.33
14.0
22.67
9.33
22.67
23.67
16.67
16.0
8.0
26.67
25.33
21.33
19.0
53.33
49.0
65.33
65.0
70.33
87.0
86.67
94.67
98.33
77.0
105.33
70.33
67.67
56.67
28.33
22.0
23.33
24.33
15.0
15.67
19.33
17.67
13.0
14.33
6.0
9.67
1.33
-5.33
7.33
12.67
2.67
3.33
9.67
5.67
8.33
5.33
1.67
17.0
12.67
3.33
0.67
10.67
16.0
-2.67
15.67
8.0
3.67
-6.0
18.33
18.67
11.33
8.0
9.67
17.33
11.67
16.0
6.67
9.67
12.33
8.0
-3.67
10.0
4.0
2.67
11.33
2.0
9.67
21.0
9.67
21.67
3.33
-1.0
7.67
8.33
30.33
-2.33
-0.67
15.33
6.67
-5.0
7.0
17.0
15.0
13.67
-6.67
20.67
-0.67
4.0
11.33
16.33
-9.0
2.67
10.67
18.67
17.67
7.0
9.0
3.67
-4.33
11.0
13.67
21.67
23.67
5.0
3.0
19.67
13.0
30.67
26.33
26.0
12.67
18.67
9.0
31.33
32.67
33.33
15.0
20.0
12.0
16.67
11.33
3.33
7.0
-5.33
1.0
10.67
-4.67
12.33
0.33
14.33
11.0
1.0
6.33
-7.33
-0.33
-0.33
5.67
-5.67
10.67
11.0
1.67
4.0
-7.67
0.33
2.67
18.67
23.67
9.67
15.33
16.33
-6.0
6.33
4.0
10.0
12.33
-1.0
20.67
17.0
4.33
6.67
7.33
0.67
17.67
-6.67
2.67
15.33
-4.33
12.33
3.67
11.0
1.0
-2.67
4.0
-3.33
0.0
-0.33
4.67
-8.0
-4.0
0.33
10.67
1.33
-4.67
0.0
3.33
9.0
0.0
3.0
2.0
3.0
8.33
-0.67
8.33
1.67
7.0
3.33
10.0
9.0
1.33
4.67
-4.0
3.33
-14.33
4.67
6.67
-0.67
15.0
11.67
5.67
7.67
13.0
6.0
5.0
6.67
-5.33
4.0
1.0
1.67
4.33
-3.0
-6.0
4.67
4.67
-3.67
-3.0
7.33
8.33
3.33
7.67
4.33
5.67
4.67
-5.33
-0.33
0.67
14.67
-2.67
-0.67
-2.0
0.33
10.67
9.0
0.67
-4.67
-9.67
-3.33
5.0
-0.33
-3.67
4.67
-1.33
-9.0
-5.0
10.0
11.33
0.67
-3.67
1.67
0.0
7.0
-0.67
2.33
3.0
9.33
1.0
10.0
1.67
8.67
1.0
4.0
3.67
4.33
-5.67
9.0
-2.67
-3.0
1.33
1.0
2.33
2.0
1.0
2.0
-3.0
10.67
-10.33
-2.67
-8.33
2.67
-0.67
-1.67
-5.67
-2.33
0.33
0.0
-6.67
1.0
3.67
11.33
5.67
4.0
0.0
4.67
6.0
5.67
-2.0
-3.0
5.33
-1.0
5.67
3.67
1.33
3.0
6.33
2.67
10.0
-0.33
-3.67
4.67
-0.67
-1.33
-1.0
0.0
-5.0
5.67
6.67
-0.67
2.67
-3.33
2.67
3.67
4.67
-0.67
1.67
-2.67
5.33
3.0
4.33
-5.67
3.33
4.33
6.33
-0.67
0.33
5.67
1.67
-1.67
-2.67
1.0
1.33
-8.0
1.33
9.67
-0.33
5.67
1.33
1.33
-1.67
-4.33
0.67
4.67
5.0
-4.33
2.0
-1.33
2.67
-1.67
4.0
6.67
-2.33
3.33
6.0
2.33
11.67
0.67