File: EDX Back Ups and Old Files/Spectra copy 3.3.23/Samples/High pH SF 60C 2d/8.5.txt
0.0
-22.67
-32.67
30.67
30.67
1.33
51.33
-1.0
16.67
65.0
-10.67
6.33
22.67
-4.67
0.33
3.67
-5.0
5.67
-2.0
0.0
-0.33
-0.33
-0.67
1.0
-1.0
0.0
-0.67
1.0
-0.33
0.0
-0.33
-0.33
0.0
1.0
2.0
0.0
0.0
2.0
-0.33
-0.33
0.33
0.67
-0.33
0.0
-0.67
-0.33
0.0
-1.0
0.33
1.33
0.0
-0.67
0.67
-1.67
1.33
1.0
1.0
5.0
2.33
0.0
3.33
0.0
3.0
0.0
0.67
-2.0
-4.0
-1.0
3.33
3.33
-4.33
1.67
3.67
13.67
-2.67
0.33
-7.67
-1.67
-2.67
4.67
2.67
6.33
7.33
4.67
-3.33
-5.33
0.0
0.33
-0.67
7.33
5.67
3.0
5.67
-1.0
4.33
-0.33
6.67
4.33
7.33
-3.0
-4.0
1.0
-0.33
0.0
8.33
3.67
5.67
0.33
5.33
1.67
-1.67
0.0
0.67
8.67
3.0
8.33
3.33
0.67
3.67
3.0
2.0
5.0
-6.67
6.67
3.0
-0.67
3.67
3.33
-1.0
0.33
-0.33
6.33
2.33
2.0
5.33
-1.33
4.33
6.0
5.33
1.33
3.33
5.67
0.67
-1.67
1.0
2.0
-1.0
0.33
-4.0
0.67
3.0
8.67
4.0
1.33
6.0
3.33
1.0
4.0
-1.67
-2.33
-0.67
-2.33
0.33
16.0
3.0
0.67
-2.0
2.67
8.67
5.0
6.0
-2.33
3.33
3.33
10.33
-0.67
4.33
15.0
0.0
5.0
2.33
-0.33
5.0
5.67
6.33
0.67
-0.33
4.33
9.67
-2.0
-2.0
-0.67
0.33
11.0
3.67
8.0
3.33
-5.0
4.33
3.0
-1.33
6.0
-0.33
-3.0
5.0
-2.67
11.67
4.67
0.33
-1.33
-2.67
1.67
5.33
-1.33
5.67
-3.33
4.0
1.67
4.33
6.0
5.0
1.33
5.67
4.67
-5.0
-2.0
-1.67
2.67
0.67
-1.33
3.0
1.33
3.33
1.67
-1.0
-4.0
-1.0
5.33
-6.0
0.33
8.33
1.0
-5.67
-0.33
-1.67
-0.33
-1.33
2.0
1.0
1.0
4.67
-1.0
-0.67
0.33
3.0
1.67
-5.0
0.0
2.67
5.67
0.33
1.33
0.67
-3.67
6.67
4.0
0.0
-1.0
0.33
-0.67
0.67
0.67
0.33
0.33
1.0
0.67
5.67
6.67
-4.0
5.33
5.0
1.33
-0.67
-5.67
-2.0
-3.0
-3.33
9.0
1.33
-0.33
1.0
-3.67
-4.67
3.0
-1.0
-0.67
-2.33
2.33
-3.67
0.0
3.33
3.0
-2.67
-2.67
2.0
-3.67
4.33
-0.33
3.67
-3.33
-0.67
1.67
1.67
3.67
1.67
2.0
1.67
0.67
-3.67
-5.33
-2.33
-2.33
1.67
-5.67
-0.33
2.0
-3.67
-0.67
-2.0
-2.0
-2.67
-2.33
1.67
-3.0
2.0
-4.33
-6.33
1.33
1.33
0.33
0.0
1.33
1.33
-1.0
-4.67
3.0
-3.0
-3.67
0.0
1.33
-1.67
-1.67
0.0
-2.0
5.33
-0.67
-9.0
-2.33
-2.33
-9.0
0.67
-0.33
-7.33
-4.67
-4.33
-1.33
-0.67
-2.33
-1.67
-6.33
-6.33
-0.33
-0.33
-8.33
1.33
-2.33
-8.0
0.33
-2.0
-0.33
4.0
2.33
0.0
3.0
-3.67
-4.33
6.0
0.0
7.0
-3.33
1.0
-1.67
-3.33
-8.67
-2.33
-0.67
-0.33
-4.33
11.33
-3.33
3.0
6.33
12.67
28.0
16.33
19.67
21.33
17.0
22.0
8.67
6.33
14.33
8.33
9.0
6.67
-0.67
11.0
-4.33
-2.0
1.33
-0.33
-8.0
0.67
5.0
-6.33
5.0
-10.67
0.67
-4.0
-5.33
1.33
-2.33
-11.0
-3.33
-6.0
-3.0
-1.33
2.0
0.67
-6.0
-3.33
3.33
-5.33
-4.0
-1.67
-4.0
-10.67
-4.0
6.33
-7.67
-11.0
0.67
3.33
-8.0
-0.67
1.33
-3.0
-5.0
-0.33
-3.67
0.33
-2.0
-1.67
-2.33
-8.33
-7.67
1.0
3.67
5.0
-3.67
-4.33
-0.33
1.67
-7.67
-9.33
-4.67
-7.67
-2.33
-3.0
3.0
-3.0
-8.33
-4.33
0.67
-5.0
1.0
4.67
-3.67
3.67
-7.67
-4.33
9.0
-9.0
-3.0
-8.33
0.33
-3.33
1.0
-3.67
-5.33
0.67
-11.0
-4.33
11.33
-1.67
-3.67
0.33
1.0
1.33
-7.67
2.33
-5.0
7.33
7.33
10.33
23.0
14.0
17.0
17.33
12.0
12.0
10.67
3.0
13.33
11.33
1.0
14.33
12.67
8.0
4.67
3.0
3.0
-0.67
3.33
8.33
3.0
0.33
3.0
-2.33
7.0
3.0
1.0
-7.0
2.33
-9.67
6.0
3.0
6.33
-3.0
3.67
4.33
6.33
6.33
0.0
0.67
14.33
0.33
1.0
-1.0
1.0
4.0
4.33
-1.0
13.67
-4.0
2.0
7.0
4.33
1.33
1.33
-1.0
10.0
9.0
9.67
5.0
8.33
-4.67
6.0
-1.67
6.33
7.33
2.33
6.67
9.0
8.0
3.0
9.67
3.67
7.33
5.67
-0.33
3.0
8.33
8.33
-1.67
5.0
10.0
9.0
18.0
10.0
-6.67
6.33
6.67
9.67
10.0
5.33
9.67
7.33
6.33
11.33
-0.67
6.0
7.33
9.67
8.33
4.0
1.0
6.33
9.67
2.67
9.33
10.0
4.33
7.33
7.0
0.33
7.67
6.0
7.67
1.33
16.33
16.0
0.0
4.0
15.33
10.33
6.67
8.33
15.33
8.0
30.67
18.33
12.67
11.67
20.67
10.0
4.0
27.67
27.33
19.33
31.0
41.33
57.0
62.33
78.0
84.33
102.0
82.67
81.67
104.33
93.0
92.33
82.33
77.67
57.67
35.33
36.0
30.33
18.33
26.0
16.67
4.33
9.67
19.0
16.33
11.0
0.67
21.33
6.67
10.33
4.67
6.67
1.33
7.67
-0.33
9.33
17.33
-1.33
6.0
3.67
10.33
2.67
9.67
14.0
10.33
5.67
11.0
0.67
8.0
10.33
17.67
11.33
0.0
1.67
4.33
16.67
15.0
1.67
5.67
7.33
13.0
4.33
23.0
-4.0
5.67
9.33
14.0
6.67
10.0
-1.33
12.67
10.33
9.0
14.67
11.33
12.33
11.67
3.33
5.33
8.67
2.0
17.0
13.0
11.0
10.67
-7.67
10.67
-6.67
13.0
7.33
6.33
10.0
3.67
-0.33
3.67
8.67
3.0
13.0
-2.33
9.67
6.0
17.67
14.67
15.67
15.0
29.0
21.67
30.0
25.67
25.33
15.0
24.67
21.67
23.0
43.33
40.67
37.33
13.0
12.0
-8.0
11.67
-2.67
8.33
5.0
3.67
7.0
3.67
-3.67
21.33
-8.67
5.33
-4.0
8.0
3.33
-6.33
6.67
14.67
3.67
14.33
20.67
-2.0
2.67
14.0
-0.67
2.33
11.67
13.67
19.67
4.67
24.33
18.33
3.0
-0.67
4.0
3.0
1.33
19.0
7.67
16.0
6.33
3.67
3.33
4.67
6.67
-9.67
10.67
5.33
-1.33
7.33
6.67
-8.0
6.0
10.33
4.0
-0.33
-7.0
1.67
3.67
3.0
8.0
-4.67
-6.33
-0.67
12.33
2.0
8.33
2.0
3.0
5.0
9.0
-1.0
0.33
0.33
17.33
1.67
12.0
-0.67
11.0
-2.0
5.33
0.67
6.0
5.33
-7.33
10.67
4.67
3.33
4.0
3.67
4.67
1.67
20.0
14.0
9.0
5.67
6.67
-1.0
0.0
1.67
10.33
0.0
7.0
-2.33
2.67
4.33
9.0
5.33
-7.67
1.33
4.67
11.33
3.67
3.67
4.67
-1.33
0.67
14.67
5.33
-3.67
-5.0
9.33
3.67
8.0
4.67
-6.67
1.33
-3.33
-1.0
8.67
-2.67
2.67
5.67
-7.0
1.0
1.0
-1.67
3.67
-4.67
3.67
5.0
-2.0
-2.67
3.33
13.0
5.33
5.0
8.0
8.67
2.67
-7.0
7.0
4.67
-1.67
-3.67
3.0
1.33
2.0
4.33
-1.0
-2.67
4.0
-1.0
-1.0
7.0
0.67
-8.33
0.33
-0.33
1.67
-4.67
10.33
3.33
-0.33
-1.67
2.0
-1.67
-6.0
-2.33
10.33
11.67
15.0
-3.0
-4.33
7.0
9.67
4.0
2.0
-0.67
5.0
3.67
4.67
2.33
-3.0
1.33
0.67
3.0
-2.33
-1.67
-2.33
-4.67
1.67
2.0
6.0
2.0
-2.33
1.67
2.33
9.67
-0.33
0.67
3.67
3.67
3.33
-4.33
5.33
-1.67
2.0
2.33
-4.67
3.33
1.33
4.33
-3.67
-1.67
5.67
-2.33
0.33
-1.67
-1.0
-2.67
-4.0
-0.67
6.67
4.67
0.67
2.33
-1.67
1.33
-0.33
-1.33
8.67
-4.0
-1.33
0.0
-5.33
-2.33
-3.67
-2.0
-1.33
-6.33
3.33
7.0
8.33
6.67
2.67