File: EDX Back Ups and Old Files/Spectra copy 3.3.23/Samples/High pH SF 60C 2d/8.75.txt
0.0
-16.67
3.33
57.67
-13.33
54.33
67.33
-12.0
57.67
21.0
29.33
-17.67
-7.33
6.33
11.33
-4.33
-4.0
-0.33
0.0
1.0
2.67
-0.33
-0.67
0.0
-1.0
1.0
-0.67
1.0
-0.33
1.0
-0.33
0.67
0.0
0.0
0.0
0.0
0.0
0.0
0.67
-0.33
-0.67
-0.33
0.67
0.0
-0.67
-0.33
0.0
0.0
0.33
2.33
0.0
0.33
0.67
-1.67
0.33
-1.0
0.0
3.0
1.33
4.0
1.33
0.0
3.0
-3.0
9.67
-3.0
-8.0
-1.0
-0.67
1.33
-2.33
1.67
5.67
2.67
-0.67
2.33
-0.67
-3.67
1.33
2.67
9.67
3.33
0.33
9.67
-1.33
4.67
-6.0
0.33
5.33
-0.67
1.67
3.0
-4.33
-3.0
1.33
-0.33
0.67
3.33
4.33
-2.0
-4.0
-2.0
1.67
4.0
1.33
-0.33
-4.33
0.33
-1.67
-4.33
7.33
-5.0
-4.33
6.67
1.0
5.33
3.33
4.67
4.67
4.0
-2.0
1.0
-1.67
0.67
2.0
-3.67
5.67
0.33
-1.0
0.33
2.67
1.33
-1.67
9.0
2.33
-1.33
3.33
5.0
2.33
3.33
2.33
5.67
2.67
-0.67
5.0
5.0
-3.0
-2.67
0.0
5.67
3.0
-0.33
-1.0
2.33
-2.0
4.33
4.0
6.0
6.33
3.67
-1.67
-3.33
7.33
3.0
0.0
-2.33
0.0
3.67
-0.33
-2.0
6.0
4.67
8.33
2.33
8.33
0.33
-1.67
2.0
-3.0
0.0
6.33
-4.33
0.0
2.67
7.33
-1.33
-2.33
0.33
5.67
3.0
2.0
9.33
-7.67
4.0
1.67
-5.0
4.33
2.0
6.33
6.0
-0.33
3.0
2.67
1.0
7.0
-2.67
0.67
4.67
1.33
-6.33
-0.67
-3.33
3.33
-1.33
-0.33
5.67
6.0
4.67
0.33
-1.0
2.0
2.33
0.67
0.67
2.0
-5.0
0.33
9.67
3.67
-1.33
1.0
1.33
3.33
5.67
4.0
0.0
6.0
7.33
-1.0
-1.67
0.33
7.0
2.33
0.67
0.33
-0.33
-1.33
2.0
2.0
0.0
-1.33
-3.0
3.33
0.33
3.0
0.67
6.0
-3.0
-1.33
5.67
0.33
-0.67
-2.33
4.33
-3.33
3.0
5.0
-1.0
1.33
-0.67
1.67
-1.33
-0.67
-0.67
-2.0
3.67
-0.33
1.67
0.0
0.33
5.0
1.33
-0.67
-0.67
-2.0
2.0
-7.33
1.0
-1.67
1.67
-1.0
-1.67
-2.67
-1.0
4.0
-1.67
1.67
-2.67
-2.67
-1.0
0.33
5.0
-2.67
-0.67
0.0
-2.67
4.33
3.67
2.67
2.67
5.33
4.67
0.67
2.67
-1.33
0.0
-0.33
-4.33
0.33
-4.33
0.67
-1.33
3.67
-4.67
3.67
-2.0
0.33
-1.67
-3.0
1.0
-2.67
-1.33
0.67
-3.0
-2.0
-5.33
-5.33
1.33
-0.67
3.33
-2.0
-2.67
0.33
-6.0
-4.67
-2.0
-6.0
-5.67
3.0
0.33
3.33
-6.67
-1.0
-5.0
0.33
-3.67
-7.0
0.67
-0.33
-8.0
-5.33
0.67
-4.33
-1.67
-3.33
-2.33
0.33
-0.33
-0.67
-5.33
-3.33
-4.33
1.67
-5.33
-1.67
-3.33
-3.0
-5.67
-3.0
-7.33
1.0
-0.67
-3.0
-2.0
0.33
-0.33
-4.0
1.0
1.0
-5.33
-4.0
-1.67
-2.33
-5.67
-1.33
-1.67
-2.33
-5.33
5.33
8.67
5.0
16.33
8.67
21.0
17.33
27.67
26.33
26.0
19.0
18.67
10.33
5.33
9.33
12.0
6.67
2.33
-1.0
-2.33
-8.0
-3.67
-5.33
-3.0
-1.33
-2.0
-0.33
3.0
-0.67
2.67
-5.0
-3.33
-1.67
-0.33
0.0
-9.33
-2.0
-2.0
0.67
1.0
-6.33
-6.0
0.67
-5.67
-18.33
-7.0
-0.67
-2.0
-1.67
-4.0
-0.67
-3.67
-6.0
1.67
-0.67
-7.0
1.33
-3.67
3.0
1.0
-0.33
-3.67
-1.67
-11.0
-1.67
-4.33
-6.33
-6.67
0.0
1.67
4.0
-3.67
3.67
3.67
-2.33
-10.67
-4.33
2.33
-5.67
-1.33
2.0
-3.0
1.0
-2.33
-8.33
-3.33
-8.0
2.0
1.67
-10.67
-3.33
0.33
-1.33
-3.0
-6.0
3.0
-11.33
-1.67
0.67
0.0
-3.67
-11.33
-1.33
-4.0
-3.33
3.33
2.33
-1.67
6.33
4.0
-3.67
-3.67
-5.67
8.0
1.33
11.33
10.33
13.0
15.0
13.0
7.33
13.0
17.0
9.67
8.0
9.33
6.33
4.0
3.33
7.67
5.0
2.67
8.0
3.0
-5.67
-0.67
4.33
10.0
-1.67
3.0
-4.33
-2.0
0.0
-4.0
5.0
9.33
-9.67
12.0
10.0
2.33
8.0
9.67
7.33
14.33
3.33
3.0
1.67
6.33
-1.67
0.0
6.0
0.0
13.0
5.33
-3.0
8.67
5.0
6.0
7.0
-0.67
5.33
-9.67
-5.0
1.0
18.0
8.67
1.0
2.33
4.33
17.0
0.33
2.33
-0.67
-0.67
0.67
8.0
4.0
-4.0
6.67
10.67
9.33
-8.33
10.67
6.0
6.33
21.33
13.33
2.0
9.0
5.0
6.0
3.0
3.33
9.33
10.67
2.67
1.0
-3.67
1.67
-2.67
0.33
3.33
4.33
6.0
7.33
6.67
6.33
11.0
14.0
5.33
13.67
6.67
10.33
4.0
4.33
5.33
4.0
3.33
2.67
9.0
-2.33
3.33
2.33
4.0
3.0
4.0
10.33
3.33
6.67
2.33
12.33
26.0
10.67
18.33
16.67
21.67
17.67
30.0
10.0
28.67
23.33
25.33
26.0
50.33
61.0
70.33
70.0
86.33
96.0
101.67
112.67
102.33
100.0
85.33
73.33
68.67
58.67
51.33
32.0
39.33
18.33
20.0
2.67
-4.67
19.67
4.0
16.33
-2.0
10.67
13.33
4.67
9.33
11.67
-3.33
2.33
10.67
2.67
0.33
1.33
0.67
5.0
9.67
6.33
6.67
10.67
11.0
15.33
2.67
10.0
6.67
10.0
-3.67
16.67
8.33
8.0
8.67
14.33
4.67
13.0
2.67
-0.33
2.33
17.0
9.33
7.0
4.0
-6.33
1.33
11.0
6.67
-7.0
2.67
18.67
3.33
10.0
11.67
8.33
16.33
-3.33
11.33
15.33
4.67
8.0
5.0
1.0
0.0
4.67
1.33
12.67
9.33
14.0
15.33
23.33
7.0
19.67
18.67
-1.33
17.67
3.0
11.0
12.67
-6.33
6.0
11.67
18.67
14.67
20.0
32.0
4.67
20.0
25.67
34.33
28.0
35.67
31.67
32.0
36.33
19.67
26.33
20.0
12.0
10.0
13.67
9.33
14.33
18.0
0.67
12.0
-4.33
15.33
26.33
4.33
18.33
12.0
4.0
0.33
-3.33
9.67
9.67
6.67
8.33
19.67
-8.0
-10.33
7.0
0.33
-5.67
7.67
14.67
4.67
14.67
4.33
1.33
5.0
0.33
-2.0
7.0
17.33
2.0
4.67
5.0
17.33
3.67
11.33
0.67
7.67
-6.67
8.67
17.33
8.67
5.33
10.67
0.0
8.0
3.33
-4.0
-10.33
-6.0
4.67
-6.33
1.0
-7.0
-4.67
4.67
9.33
7.33
-1.0
12.33
6.0
8.0
5.0
-1.0
-6.0
9.33
4.33
1.33
-2.33
8.0
2.33
-4.0
7.0
3.33
9.67
0.0
4.33
-7.33
-7.33
0.67
-5.67
8.0
4.67
-0.33
4.67
5.0
-1.0
5.0
4.67
0.67
3.0
11.0
5.67
6.33
-1.0
2.0
5.67
2.67
12.33
10.0
10.33
5.33
-1.67
12.67
-0.67
-2.33
3.67
-4.33
-5.33
-0.33
0.67
-11.67
-0.67
-2.0
5.33
0.67
7.0
6.67
-2.67
2.33
1.67
4.0
5.67
-2.67
-3.33
-3.33
-9.0
4.0
3.0
5.33
7.67
5.33
8.67
8.0
-1.0
2.33
15.33
-1.0
-1.67
-1.0
18.0
8.67
-2.33
2.0
-6.0
3.67
7.33
-0.67
7.0
-2.67
-4.0
2.33
1.0
-4.67
3.0
6.0
-1.0
7.0
-3.33
0.67
-1.67
-3.33
2.67
-3.67
1.33
8.33
-0.33
1.33
6.0
-1.67
3.0
-2.33
1.33
0.67
2.0
-2.0
0.67
5.0
10.67
7.0
2.0
2.33
4.0
2.67
4.67
-3.67
3.0
4.33
-0.33
1.0
-3.33
-3.67
0.67
-0.67
-0.33
0.0
3.0
-1.0
-2.33
-1.33
3.33
4.67
-2.33
1.67
6.67
2.67
-0.67
3.67
-2.67
-0.67
-2.0
6.33
-1.67
5.33
6.33
4.33
-5.67
-1.67
1.67
-1.33
6.33
-1.67
-1.0
-0.67
-4.0
-2.67
4.67
2.67
-0.33
1.33
5.33
4.33
-1.33
-2.33
8.67
3.0
0.67
0.0
-1.33
3.67
-0.67
5.0
-0.33
-6.33
5.33
6.0
7.33
3.67
6.67