File: EDX Back Ups and Old Files/Spectra copy 3.3.23/Samples/High pH BL Ref/10.75.txt
0.0
28.67
22.0
5.33
102.33
39.67
-1.67
114.67
0.0
-6.67
22.0
21.67
-18.67
10.67
-1.67
-7.33
-2.67
3.33
-2.33
-0.33
-1.33
-0.67
1.0
-1.0
1.0
0.0
-0.33
1.0
-0.67
1.0
-0.33
0.0
1.0
-0.33
0.67
0.0
-0.67
1.67
0.0
-1.33
0.0
0.0
-1.0
0.0
0.0
1.33
0.0
0.67
0.0
1.0
0.67
-1.67
1.67
0.0
-1.0
1.0
-2.33
1.0
-3.0
0.0
-1.33
1.67
3.67
-0.33
-2.0
-0.67
1.33
-0.67
-0.67
1.67
0.67
3.33
4.67
5.67
-3.0
-0.67
2.0
-0.67
7.0
0.67
3.67
1.33
-0.33
1.33
-1.0
-1.67
11.33
4.33
0.33
-2.33
8.67
0.33
1.33
1.0
-12.33
-1.0
2.67
2.33
6.0
-3.67
3.33
4.33
-8.0
0.33
9.67
7.33
5.33
-1.33
0.67
3.33
0.67
3.0
0.0
4.33
-2.0
1.33
0.67
-1.67
6.67
0.0
-3.67
-1.33
6.67
3.0
4.33
1.33
10.0
5.0
3.33
-1.0
4.0
0.0
-1.33
-3.0
7.33
0.67
2.33
-0.67
11.33
4.0
-0.67
2.67
1.0
7.33
6.0
5.67
0.67
0.33
0.0
-0.67
-0.67
-0.33
0.33
3.33
1.33
0.0
5.33
4.33
3.67
-3.33
2.67
3.0
-4.67
3.33
-3.33
-0.67
-3.0
-4.0
-1.33
1.0
3.33
6.67
3.67
4.67
-4.33
0.67
2.33
1.33
-2.33
-0.67
0.0
2.33
-2.67
2.0
2.67
5.33
0.0
-3.67
1.67
9.0
3.33
-2.33
-6.33
-1.67
4.67
1.67
4.33
8.33
4.0
-0.33
7.33
6.0
1.0
3.0
1.33
-1.33
-3.0
1.67
8.33
7.0
2.33
-2.33
0.0
2.67
-2.67
9.67
-2.67
4.0
-1.33
2.67
0.0
-1.0
-1.0
2.67
-0.33
-2.0
6.33
3.33
-4.0
-2.67
4.67
-1.33
0.0
2.67
2.33
6.67
6.33
-2.33
4.33
-0.67
6.67
-1.33
5.0
-1.67
2.67
-4.67
-1.33
-2.0
-1.67
-2.33
-0.67
0.0
3.0
2.67
2.33
-1.0
-1.33
0.33
2.0
1.33
6.33
-0.67
3.0
4.67
-0.67
-3.0
1.67
-1.0
-0.67
2.0
0.67
2.67
-0.67
2.0
0.0
2.33
-3.33
1.67
1.0
2.67
3.67
-2.33
1.33
2.33
-1.33
1.33
0.0
1.0
-0.33
-1.67
-1.0
-0.67
2.33
-0.33
3.0
-4.0
0.33
0.0
-2.0
0.67
-0.33
-3.67
-2.67
-1.33
-1.0
9.33
-1.67
-4.33
-1.0
-2.67
0.0
-2.33
-1.0
-4.0
-1.0
0.33
0.33
0.67
-1.0
5.33
3.67
-3.67
-0.33
-2.33
-4.0
0.33
-2.33
-4.33
-3.0
-2.67
-2.33
-1.67
-1.33
-1.67
3.0
-2.67
-2.33
-6.0
4.0
-2.33
-6.67
-2.0
3.33
1.0
-3.33
-7.0
4.67
-7.0
-0.33
1.67
-5.67
0.0
-2.33
2.0
2.33
1.33
-1.67
4.67
-4.33
-1.0
-6.33
-4.33
1.0
-3.0
2.33
-5.67
-0.67
1.0
-5.67
-3.0
-2.67
-4.33
-1.0
-2.33
-4.33
-3.0
-0.67
0.67
2.0
-8.33
-4.0
-3.33
2.67
-4.33
-4.67
-4.0
-6.0
-6.0
-2.33
-6.33
-4.33
-2.67
2.0
-0.67
-2.0
-3.0
-0.67
5.67
0.33
5.33
8.33
7.0
14.67
25.33
25.0
30.67
36.33
38.67
36.0
24.67
29.33
14.0
24.67
4.33
7.67
-4.0
3.33
3.33
-7.0
0.67
-1.67
-5.0
-4.33
3.67
8.67
-1.33
7.67
-2.0
-3.67
3.0
0.33
1.33
3.33
-2.0
3.0
-6.0
5.67
1.67
-1.67
-3.0
-9.0
-2.0
-5.33
-4.33
-13.0
1.67
2.33
3.33
4.0
-6.0
-10.67
-3.33
-2.67
1.0
-2.33
-3.33
-1.33
2.33
-1.0
-2.67
2.33
6.67
-1.0
-9.0
1.67
-3.67
5.67
3.33
-7.0
1.0
3.0
-4.67
-0.67
3.67
-6.33
-0.67
0.67
-3.33
-6.67
1.0
1.67
0.33
-1.67
-2.67
-4.0
-1.33
2.33
-4.67
8.0
-4.0
-4.33
1.0
-4.33
-1.67
1.0
-2.0
1.67
2.33
-0.33
-5.67
-5.67
-6.0
6.33
-7.0
4.0
0.0
0.0
-2.0
14.67
-0.33
5.33
3.0
-1.0
14.0
18.33
33.33
16.0
27.67
18.33
29.67
20.33
14.67
23.33
10.67
2.67
9.67
11.33
7.67
5.33
10.67
6.0
0.33
13.0
6.33
16.0
11.67
-4.0
2.0
6.67
3.67
9.0
4.0
2.33
-0.67
7.0
-4.33
4.0
9.0
8.67
11.67
2.0
12.67
-0.33
-2.0
2.67
12.0
4.33
15.33
5.0
7.67
6.67
0.33
12.33
-2.67
9.33
4.67
2.0
4.0
8.33
3.67
5.67
13.33
5.33
-6.33
2.67
17.33
4.67
11.33
11.33
8.0
5.67
5.67
3.33
4.67
7.67
15.0
10.67
12.33
1.33
-4.33
14.67
0.67
-10.67
13.67
-4.67
-5.33
5.0
5.33
-3.0
5.0
-2.67
4.0
7.67
-1.0
7.0
10.0
8.0
6.0
2.33
-0.67
4.0
1.67
2.67
7.0
11.33
11.67
11.67
7.0
3.0
4.33
5.33
0.67
24.33
10.0
4.33
4.0
6.33
8.67
9.0
12.67
9.0
16.67
9.33
12.33
2.33
12.33
13.67
26.33
14.33
7.67
11.0
22.0
18.0
22.0
27.33
25.33
18.33
41.0
32.0
24.0
43.67
49.67
58.33
78.33
104.67
94.67
111.67
107.33
101.67
105.33
114.67
101.33
108.0
68.67
71.67
54.67
38.67
22.33
18.67
16.67
18.33
10.0
6.67
8.33
6.33
12.0
8.33
13.0
5.0
8.67
-1.0
9.33
7.0
11.33
12.0
7.33
18.67
11.33
-0.33
1.33
-0.33
6.33
13.0
10.67
3.33
20.33
6.33
6.0
21.0
8.0
9.67
21.0
8.33
5.33
11.33
6.67
2.33
9.33
-0.33
6.33
0.0
9.33
0.67
-0.67
1.67
14.33
13.67
6.33
14.67
2.0
19.67
-0.67
13.33
0.67
13.33
13.33
-4.33
23.0
15.0
2.67
18.0
7.0
9.0
13.33
-1.0
10.67
-5.33
-3.0
-0.33
17.0
2.67
-3.0
1.67
4.67
8.33
5.0
-0.67
21.67
8.0
3.0
12.67
15.33
12.67
21.67
19.0
18.33
37.33
26.67
12.0
26.33
48.67
38.67
31.67
28.33
16.0
20.67
24.0
17.33
12.33
22.67
21.67
-6.33
4.67
19.67
15.0
6.0
-7.33
3.67
10.67
7.0
4.33
8.33
12.33
6.67
5.67
3.67
25.67
15.0
9.0
-1.67
0.67
8.0
-0.67
3.33
1.67
15.0
12.67
22.67
9.0
6.0
9.0
5.67
-5.0
9.67
13.33
13.0
-2.33
3.0
8.67
9.0
5.0
-2.0
-11.0
13.33
-4.67
2.0
-4.33
13.67
9.33
0.67
2.0
1.67
8.33
-1.33
7.0
-4.0
18.33
-1.67
-2.0
-0.33
-2.67
4.0
3.67
2.67
-0.67
4.33
-0.33
1.33
3.33
4.33
-3.33
7.0
-3.0
-4.0
-7.0
-4.0
6.0
-0.67
1.67
8.0
3.33
4.67
11.0
1.0
-3.33
3.33
-2.67
2.0
-4.33
1.0
2.33
-2.67
4.0
-1.0
8.0
2.33
5.33
4.67
2.33
-0.33
8.33
5.33
8.33
10.67
2.67
1.0
9.0
5.0
3.33
6.67
12.0
5.33
1.0
11.67
10.67
8.33
-1.0
5.33
-4.33
1.0
1.67
-0.67
-0.67
6.33
0.67
6.0
-2.0
-4.0
-6.33
7.33
10.67
8.33
2.67
5.67
-5.33
3.67
5.0
3.33
-4.0
15.67
5.33
10.67
2.0
-1.33
4.33
-0.33
3.33
-6.33
-1.33
4.67
-2.67
5.0
1.33
-2.0
-5.0
-9.0
0.0
-3.67
3.33
0.67
2.33
-0.67
2.33
-0.67
-8.33
-1.0
0.0
5.67
0.33
-5.0
-3.33
3.33
3.67
-1.33
7.67
0.0
5.0
4.33
4.0
-7.0
0.33
-1.67
0.0
0.33
7.0
9.33
-2.0
4.0
5.67
2.67
5.33
7.33
-1.0
5.33
1.33
5.0
2.33
-2.0
6.67
2.0
4.33
-1.0
3.67
4.67
0.0
-3.33
-4.0
4.0
4.67
4.33
5.0
3.33
2.0
-2.0
-3.0
2.0
-4.0
6.0
1.33
5.0
5.0
1.33
2.67
-5.67
-3.0
-2.33
5.67
5.33
2.33
0.33
-3.0
-5.67
2.0
1.33
-1.33
-0.67
-3.0
2.67
0.33
-2.33
2.0
6.0
-6.0
-0.67
-2.67
1.0
-1.0
3.67
5.0
-2.0
-1.33
-3.0
2.0
2.0
0.0