File: EDX Back Ups and Old Files/Spectra copy 3.3.23/Samples/High pH BL Ref/11.25.txt
0.0
52.67
132.0
0.33
15.33
117.67
-35.67
28.67
39.0
38.33
18.0
8.67
-14.67
3.67
1.33
2.67
-4.67
-1.67
2.67
-2.33
-0.33
1.33
0.0
-1.0
-1.0
0.0
-0.33
0.0
-0.67
0.0
-0.33
0.0
0.0
1.67
-0.33
0.0
-0.67
-0.33
0.0
-1.33
-1.0
0.0
-1.0
0.0
0.0
0.33
1.0
0.67
0.0
0.0
-0.33
-1.67
0.67
1.0
-1.0
2.0
-4.33
0.0
-3.0
-1.0
1.67
3.67
-4.33
-1.33
1.0
0.33
-1.67
3.33
-0.67
6.67
-0.33
-2.67
0.67
4.67
2.0
1.33
2.0
8.33
7.0
2.67
1.67
3.33
0.67
-3.67
1.0
4.33
0.33
-1.67
1.33
-1.33
4.67
1.33
1.33
7.0
-8.33
-1.0
-1.33
-4.67
2.0
-2.67
2.33
1.33
-2.0
-3.67
3.67
-0.67
2.33
-1.33
2.67
-1.67
-3.33
6.0
-3.0
1.33
9.0
-4.67
-0.33
6.33
-1.33
10.0
-3.67
-2.33
2.67
9.0
13.33
6.33
-1.0
6.0
-4.67
11.0
6.0
1.0
4.67
-2.0
2.33
-2.33
0.33
0.33
-2.67
3.0
-3.67
0.67
-1.0
6.33
0.0
6.67
-3.33
5.33
3.0
4.33
-6.67
-0.33
1.33
0.33
2.33
-5.0
3.33
7.33
9.67
7.67
4.67
-3.0
-9.67
9.33
-0.33
0.33
1.0
0.0
-3.33
9.0
3.33
5.67
4.67
-1.33
-3.33
-0.33
6.33
4.33
-0.33
0.33
7.0
0.33
2.33
-1.0
-3.33
-2.67
-2.0
2.33
-0.33
3.0
4.33
-1.33
-2.33
0.33
-1.33
-0.33
1.33
2.33
3.0
0.67
-3.67
3.0
-1.0
-6.0
5.33
-5.33
4.0
-1.33
2.33
-4.0
1.33
-1.33
0.0
4.67
-3.67
4.67
0.33
1.0
-0.33
2.67
-1.0
-3.0
-1.0
1.67
-3.33
0.0
0.33
-0.67
-6.0
2.33
0.67
1.67
-2.0
5.67
-1.67
0.67
0.33
-0.33
5.33
-2.67
0.67
4.67
4.0
-2.67
-1.33
-3.67
-4.33
-2.0
0.33
2.67
-2.67
3.0
-3.0
3.67
2.33
-3.0
5.67
2.33
1.0
-0.67
6.33
-0.67
-1.0
1.67
0.33
1.0
2.67
-1.0
1.33
3.0
-3.33
-0.33
-3.67
2.0
1.0
-5.67
0.67
6.67
-2.0
1.67
0.67
-0.33
0.33
4.33
0.67
-2.67
0.0
5.0
-3.33
-3.67
0.0
0.33
-0.67
-3.33
1.0
-4.0
-0.67
-1.0
3.0
-2.33
0.67
0.33
-0.67
-4.33
2.0
-0.67
-2.67
-3.33
3.0
0.33
-1.0
0.67
-1.0
3.0
-2.0
2.33
-0.67
0.67
0.0
2.33
0.67
1.33
0.67
-3.33
0.0
0.33
0.67
3.67
-5.0
-0.67
3.67
1.33
-1.33
-1.67
0.0
1.33
-5.33
-7.0
4.0
-4.33
4.33
-1.0
1.33
1.0
-1.33
-3.0
-1.33
-2.0
-2.33
-4.33
-6.67
-4.0
-1.33
-1.0
1.33
-1.67
-2.67
5.67
-8.33
3.0
-2.33
-3.33
0.0
-5.0
3.33
1.33
-1.67
-1.0
-2.67
-1.0
0.33
-3.33
-2.0
-8.33
-0.33
-1.0
-1.67
-1.33
-6.0
-1.33
-10.0
1.67
5.67
-0.33
0.33
-6.0
-8.0
-4.0
-2.33
-6.33
0.67
-5.67
0.0
-3.67
3.0
0.0
3.33
7.67
12.33
18.33
19.33
20.0
27.67
42.33
25.0
43.67
44.33
34.67
26.0
31.67
39.33
24.0
21.67
9.33
6.67
1.0
2.33
2.33
4.0
7.67
-2.67
-6.0
-3.33
0.67
0.67
-0.33
0.67
-3.0
6.33
2.0
-2.67
-2.67
7.33
3.0
-5.0
-7.0
11.67
5.67
-0.67
1.0
-2.0
9.0
2.67
-2.33
1.0
4.67
3.33
-4.67
-3.0
-7.0
-0.67
0.67
-2.67
-3.0
-4.33
-7.33
-9.33
-4.67
-8.0
-1.67
6.33
0.67
-2.0
2.0
-0.33
-1.67
3.67
4.33
5.0
-5.0
-2.0
2.33
-1.67
-1.33
-6.33
10.33
-1.33
1.67
-8.67
0.0
-0.33
6.33
7.33
3.33
4.0
7.67
4.33
-3.67
-1.0
4.0
1.67
6.0
-2.33
1.33
-8.0
13.0
-3.33
-0.67
-2.33
8.33
3.33
2.0
0.33
8.0
-3.0
-2.0
-2.0
6.0
7.67
6.67
4.33
4.0
13.0
7.0
12.33
26.33
25.0
9.67
30.33
29.67
28.33
10.67
11.33
11.67
5.67
6.67
3.33
9.67
-1.67
14.67
5.0
9.33
0.0
6.33
15.0
7.67
1.0
9.0
5.67
15.67
11.0
1.0
-2.67
4.33
8.0
5.67
1.0
-1.0
6.67
6.67
6.0
8.67
11.67
6.0
1.67
12.0
13.33
8.33
0.0
8.67
7.67
-2.67
0.33
8.33
14.33
9.67
-1.0
8.0
7.33
20.67
6.67
12.33
-0.67
-4.33
-6.33
7.33
23.67
10.33
3.33
5.0
13.67
3.67
7.33
16.67
11.67
6.0
3.67
11.33
14.33
3.67
14.67
7.67
5.33
17.67
1.33
7.67
10.0
4.33
4.0
4.0
-4.67
14.0
3.67
5.0
-4.0
3.0
7.0
2.0
-3.67
0.33
3.0
9.67
6.67
15.0
10.33
6.67
-0.33
19.0
6.0
6.33
1.33
8.67
6.33
6.0
12.33
0.0
8.33
16.67
14.0
9.67
1.0
8.67
14.33
13.33
5.33
14.33
9.67
20.33
15.33
24.67
20.0
17.0
26.0
24.0
16.33
30.33
19.33
25.0
40.0
38.0
33.67
54.67
91.33
91.33
107.67
116.67
111.67
139.33
122.67
108.33
134.67
89.33
91.0
80.67
75.67
43.67
42.67
28.33
20.67
24.67
13.33
22.0
13.67
14.33
19.33
5.0
8.33
14.0
-2.0
6.67
2.0
6.33
0.0
13.33
9.0
7.33
13.67
14.33
5.67
0.33
5.67
3.33
-1.0
8.67
3.33
7.33
13.33
-1.0
17.0
10.0
-0.33
13.0
17.33
7.33
6.33
3.67
1.33
11.33
-2.33
18.33
1.0
19.33
7.67
0.33
8.67
12.33
1.67
3.33
-0.33
16.0
6.67
12.33
10.33
6.67
4.33
8.33
8.67
18.0
7.0
6.67
12.0
2.0
9.0
12.33
-8.0
8.67
6.67
1.0
8.67
20.0
3.67
0.0
-5.33
-5.33
23.33
8.0
5.33
19.67
17.0
10.0
15.67
22.33
22.67
12.67
16.0
21.33
27.33
28.67
32.0
31.33
33.67
25.67
28.67
19.33
21.0
14.67
25.0
13.33
32.33
9.67
21.67
7.67
7.67
17.67
6.0
0.0
3.67
-1.33
0.67
-6.0
13.33
4.33
10.33
6.67
13.67
-12.33
18.67
10.0
7.0
-2.67
5.67
15.0
1.33
4.33
6.67
13.0
3.67
3.67
11.0
7.0
-5.0
14.67
14.0
8.67
14.33
9.0
0.67
0.0
6.67
10.0
-5.0
4.0
-4.0
6.33
1.33
-3.0
8.67
-2.33
-6.67
-3.33
4.0
6.67
-5.67
-5.33
-1.0
-9.0
10.33
4.33
1.0
6.67
-1.67
0.0
6.67
-8.33
11.33
4.33
-4.33
2.33
8.33
0.33
2.67
8.0
-4.0
1.0
-12.0
2.0
3.0
0.33
7.67
-1.0
-1.67
12.67
3.0
-6.0
-1.33
-5.67
-7.67
4.0
5.67
1.0
3.33
5.33
-6.0
1.0
5.0
-0.67
3.33
3.67
7.33
5.67
5.33
3.33
0.33
9.67
-1.33
7.0
9.0
8.0
9.33
4.67
2.0
9.33
4.0
0.67
8.67
1.33
0.0
-1.67
1.67
5.0
1.67
4.33
-4.67
6.33
5.67
0.0
-6.0
-7.0
-2.33
-0.67
0.67
-0.67
5.67
11.67
-1.33
-5.33
-1.0
4.33
2.0
9.67
6.33
5.67
2.0
-8.33
1.33
-3.33
-6.67
-8.33
-2.33
9.67
-1.67
3.0
-0.67
2.0
0.0
2.0
3.0
0.33
4.33
-6.33
2.33
0.33
3.33
0.33
-7.33
-3.0
1.0
-2.33
9.33
-6.0
1.67
-6.67
-0.33
-2.33
3.67
1.0
1.0
11.33
3.0
1.0
5.33
4.33
7.0
1.33
5.0
5.33
2.0
8.0
2.67
4.67
-0.67
-3.67
1.0
4.33
-0.67
7.0
-5.67
1.0
1.67
-1.0
5.33
-10.0
-1.33
0.67
-1.0
-2.33
2.0
-1.0
6.67
1.33
2.0
5.33
4.0
4.0
1.0
0.0
-4.0
8.0
3.33
7.0
5.0
8.33
5.67
0.33
0.0
-0.33
1.67
16.33
-2.67
0.33
-3.0
2.33
-3.0
-1.67
1.67
-2.67
0.0
2.67
0.33
0.67
2.0
-1.0
4.0
1.33
5.33
-2.0
-1.0
6.67
5.0
0.0
-0.33
-1.0
1.0
-3.0
-5.0