File: EDX Back Ups and Old Files/Spectra copy 3.3.23/Samples/High pH BL Ref/12.0.txt
0.0
0.67
72.0
19.33
-18.67
8.67
-62.67
34.67
-12.0
-35.67
19.0
-10.33
11.33
-3.33
-8.67
-0.33
-2.67
-1.67
-1.33
-1.33
-1.33
0.33
1.0
-1.0
-1.0
0.0
-0.33
1.0
-0.67
0.0
-0.33
1.0
1.0
-0.33
-0.33
0.0
-0.67
0.67
0.0
0.67
1.0
0.0
-1.0
1.0
1.0
-0.67
-1.0
-0.33
0.0
1.0
-0.33
-0.67
0.67
-1.0
-2.0
0.0
-2.33
3.0
-2.0
-2.0
-2.33
1.67
3.67
-2.33
0.0
4.33
-0.67
0.33
1.33
2.67
0.67
1.33
12.67
-0.33
1.0
0.33
-3.0
-0.67
0.0
-1.33
-0.33
-7.67
-5.33
-0.67
0.0
1.33
-1.67
4.33
4.33
6.67
8.67
3.33
-0.67
-3.0
-5.33
5.0
5.67
2.33
-1.0
2.33
12.33
5.33
-11.0
-0.67
8.67
7.33
0.33
6.67
-2.33
-3.67
2.67
0.0
7.0
3.33
-2.0
6.33
0.67
1.33
1.67
7.0
6.33
-0.33
2.67
3.0
10.33
3.33
3.0
4.0
4.33
0.0
4.0
4.0
3.67
0.0
-2.67
-1.33
-4.67
1.33
2.33
4.0
-5.67
11.67
-4.0
4.33
7.0
1.67
7.67
3.33
5.0
6.33
-1.67
3.67
2.33
0.33
7.33
5.0
8.33
3.33
1.67
2.67
6.67
-3.0
-12.67
6.33
-1.33
2.33
0.0
-4.0
0.67
7.0
2.33
5.67
-0.33
-6.33
-6.33
-2.33
-2.67
5.33
5.67
8.33
1.0
7.33
-2.67
5.0
5.67
2.33
-7.0
1.33
-0.33
-1.0
0.33
4.67
0.67
-1.67
5.67
0.67
-2.67
6.33
4.0
-1.33
2.33
-1.0
3.0
0.0
2.33
-4.33
2.0
-0.33
3.33
-1.0
-0.67
-1.33
2.0
-0.33
1.33
0.67
-1.67
-2.0
-1.33
6.67
6.0
1.0
1.0
2.67
2.67
3.0
5.33
0.33
0.0
-2.67
-1.33
0.67
0.0
2.67
-0.67
0.67
-1.67
-2.33
-1.67
-4.67
3.67
1.67
2.0
2.33
3.67
-2.67
-3.33
5.0
5.33
-3.33
-0.67
-6.0
-3.0
-1.33
-0.67
-1.0
0.67
-1.67
3.0
-1.67
4.33
2.33
1.0
3.67
-0.67
-3.0
1.67
-1.0
1.33
-2.0
-2.33
2.67
-0.67
0.0
5.0
-0.67
0.67
3.67
-2.0
1.67
-0.33
-0.33
-0.67
0.33
-0.33
0.33
1.0
-1.0
-2.33
5.33
0.0
-2.67
1.33
0.67
1.0
-1.0
0.33
-2.0
3.0
1.67
-1.33
-5.67
-0.67
-1.33
3.0
-3.67
0.33
1.67
-4.0
1.33
-3.0
-2.33
4.0
0.0
-4.0
3.33
3.33
-1.33
1.0
5.33
-0.33
0.33
0.67
0.67
-4.0
2.33
-2.33
-1.33
1.0
3.33
-3.33
1.33
-0.33
1.33
-1.0
-3.67
-5.33
-6.0
0.0
0.67
-2.67
2.0
2.33
7.0
-1.33
-8.0
-1.33
-6.0
-3.33
-0.33
-2.67
0.0
1.67
1.0
-0.67
2.33
1.33
4.67
-2.33
0.0
-0.33
-1.33
-2.0
-2.0
0.33
-1.67
-4.67
1.0
-2.67
0.0
0.33
-2.33
-11.0
-4.33
1.67
-5.0
2.33
2.67
-2.0
-1.33
-7.0
-2.33
-1.33
-3.33
-4.67
-4.0
-1.0
-1.0
-6.33
-4.33
-1.33
3.33
7.0
0.33
1.0
3.0
5.33
2.67
9.33
0.33
12.33
22.0
25.67
34.33
23.0
56.67
44.33
37.67
37.0
34.67
36.33
20.0
18.67
15.33
5.67
13.0
0.33
10.33
3.0
9.67
3.33
-2.0
-8.33
-0.33
2.67
5.67
1.67
3.0
0.33
8.0
-5.67
-1.67
2.33
-1.0
6.0
-4.0
-4.33
5.67
-6.67
1.0
-5.0
0.0
-0.33
-8.33
-5.0
5.67
-2.67
4.33
-5.0
-3.0
-1.67
-0.33
-5.67
-4.0
-0.33
-4.33
-9.33
-6.67
-10.0
4.33
5.33
-2.33
2.0
7.0
3.67
-1.67
3.67
6.33
6.0
3.0
8.0
0.33
8.33
-4.33
-2.33
0.33
-6.33
-7.33
-5.67
-6.0
1.67
2.33
-1.67
8.33
-1.0
-4.33
-2.67
-2.67
1.0
-7.0
-5.33
4.0
1.67
7.33
-2.0
4.0
-0.33
9.33
-6.33
-2.67
-0.67
8.0
-0.67
17.0
10.0
3.0
-4.0
-2.0
7.67
1.67
4.33
11.0
0.0
12.0
15.33
25.33
33.0
18.67
23.33
29.67
33.33
22.67
25.33
16.67
15.67
11.67
10.33
17.67
11.33
13.67
12.0
8.33
11.0
-0.67
8.0
4.67
-6.0
8.0
5.67
5.67
9.0
3.0
-1.67
-2.67
8.0
-0.33
2.0
6.0
8.67
10.67
1.0
-4.33
-0.33
-1.0
3.67
11.0
7.33
5.33
17.0
7.67
9.67
3.33
2.33
5.33
0.33
2.67
9.0
7.0
5.33
21.67
3.67
6.33
11.33
0.67
5.67
6.33
2.67
8.33
1.33
5.0
7.67
4.67
9.33
6.67
17.67
-5.0
5.67
11.33
7.33
-6.33
7.67
3.67
19.33
5.67
-0.67
4.67
13.0
8.33
10.0
8.0
8.33
8.0
16.67
15.0
6.0
11.0
3.0
7.0
5.33
-2.67
12.0
12.67
5.67
10.0
12.33
11.67
5.67
12.0
3.0
7.33
4.33
8.67
12.33
6.0
15.33
10.0
27.33
2.67
7.0
6.67
4.0
18.67
5.33
3.33
10.33
11.33
13.67
7.33
24.33
5.67
13.0
11.0
22.0
22.0
22.33
17.33
17.33
23.0
32.0
65.0
69.67
79.67
108.33
138.33
148.67
177.67
184.67
203.33
222.67
208.33
199.67
209.33
169.0
151.67
124.67
106.67
62.67
69.33
27.67
23.67
12.33
-2.0
12.67
10.33
11.33
4.0
5.33
10.0
-3.0
22.67
-2.0
13.33
-1.0
8.33
9.0
15.33
11.67
15.33
15.67
9.33
2.67
16.33
7.0
3.67
2.33
3.33
7.33
9.0
19.0
8.0
11.67
8.0
18.33
13.33
1.33
6.67
-3.67
18.33
-1.33
19.33
8.0
18.33
13.67
12.33
13.67
10.33
12.67
6.33
-0.33
13.0
3.67
6.33
0.33
8.67
21.33
4.33
7.67
15.0
9.0
3.67
12.0
8.0
2.0
0.33
0.0
14.67
11.67
-12.0
4.67
4.0
7.67
-3.0
5.67
0.67
6.33
18.0
3.33
1.67
22.0
-1.0
8.67
9.33
23.67
15.67
22.0
31.33
7.33
22.67
19.0
25.33
21.67
37.67
25.67
12.33
20.0
22.67
18.0
17.33
28.33
15.67
21.67
3.67
4.67
8.67
-3.0
-8.0
-3.33
3.67
11.67
6.0
5.33
14.33
5.33
-2.33
1.67
-5.33
10.67
-1.0
0.0
9.33
-2.33
9.0
6.33
3.33
5.67
-2.0
18.67
3.67
8.0
3.0
11.0
0.67
5.0
-1.33
13.33
13.0
-0.33
18.0
6.67
9.0
-4.0
2.0
4.0
3.33
-0.67
2.0
-0.33
1.67
-0.67
-2.33
1.0
3.67
5.33
-0.33
3.0
2.0
14.33
-3.67
13.0
0.67
8.33
6.0
-0.33
9.67
-4.67
-9.67
-4.33
8.33
-4.67
-1.67
6.67
0.0
0.0
-10.0
-5.0
-1.0
-6.0
8.33
-1.33
7.0
-0.67
-1.33
3.0
-9.0
-0.33
2.33
-7.67
6.0
3.67
4.0
11.33
2.33
2.0
2.0
10.0
-8.67
1.33
-4.33
4.33
-1.33
3.33
7.33
4.33
8.67
1.67
2.0
6.0
1.0
6.33
10.67
2.0
14.33
0.0
18.67
8.67
4.33
-2.0
2.33
3.67
3.0
-4.33
-2.67
5.33
-2.67
1.67
3.0
0.0
-3.0
2.67
11.33
4.67
1.33
0.67
-1.33
1.67
0.67
5.0
6.33
1.0
4.67
-5.67
5.67
2.0
-1.33
1.33
-1.33
2.33
-11.33
-4.33
4.67
-0.67
10.0
-1.67
3.0
-1.0
6.0
4.0
5.33
6.33
-0.33
5.33
-1.67
-5.67
1.33
-8.33
-1.0
-1.0
0.67
2.33
-3.0
-4.33
-0.67
2.67
2.67
3.67
0.0
-5.0
0.33
-1.0
-1.0
4.33
-2.67
-3.0
8.33
11.0
3.33
10.0
-2.0
1.67
2.67
0.33
2.33
5.0
0.33
-0.67
2.0
-4.67
10.0
-0.33
-3.0
5.33
-3.0
-0.33
11.67
-3.0
2.67
-2.0
6.0
3.67
1.33
2.0
2.33
5.0
1.0
-7.0
1.0
1.0
0.0
1.33
3.0
5.0
1.33
1.67
6.33
1.0
1.67
5.67
10.33
-4.67
0.33
1.0
1.33
7.0
-0.67
0.67
2.33
6.0
-0.33
-2.67
-0.33
-1.0
3.0
-4.0
1.33
-1.67
-2.0
-5.0
2.67
6.0
-1.0
0.67
5.0
5.0
-2.0
0.0