File: EDX Back Ups and Old Files/Spectra copy 3.3.23/Samples/High pH BL Ref/12.25.txt
0.0
-60.33
17.0
61.33
-113.67
-51.33
-73.67
-3.33
32.0
1.33
21.0
-10.33
-2.67
-6.33
-7.67
-1.33
-8.67
-3.67
-1.33
-1.33
-0.33
-0.67
1.0
-1.0
-1.0
0.0
-0.33
0.0
-0.67
0.0
0.67
2.0
1.0
-0.33
-0.33
0.0
-0.67
-0.33
0.0
-1.33
0.0
0.0
1.0
1.0
1.0
-0.67
-1.0
-0.33
1.0
2.0
-1.33
0.33
2.67
-1.0
-1.0
0.0
-1.33
0.0
-2.0
1.0
-1.33
-1.33
-1.33
-1.33
4.0
-2.67
-2.67
5.33
3.33
-0.33
-2.33
-0.67
-0.33
0.67
4.0
6.33
2.0
-1.67
-6.0
1.67
2.67
-0.67
0.67
-1.67
-1.0
-3.67
6.33
0.33
-0.67
3.67
-0.33
2.33
-0.67
2.0
-3.33
-3.0
1.67
-1.67
-1.0
2.33
1.33
4.33
-7.0
6.33
2.67
5.33
-0.67
3.67
0.67
-4.67
-2.33
-1.0
2.0
-1.67
1.0
6.33
-4.33
1.33
-1.33
-2.0
4.33
0.67
-0.33
7.0
3.33
-0.67
-1.0
6.0
3.33
1.0
3.0
2.0
-0.33
2.0
1.33
1.67
1.33
5.33
0.33
-1.0
2.33
-0.33
3.0
2.33
-1.0
-2.33
5.67
2.33
2.0
0.33
-2.67
8.67
-1.67
-0.67
-1.67
-2.0
5.33
2.33
2.67
3.67
2.67
5.0
-7.67
4.33
-0.33
0.33
2.0
-2.0
-1.33
4.0
-1.67
0.67
10.67
-1.33
-4.33
-4.33
-1.67
2.33
0.67
-2.67
4.0
3.33
4.33
5.0
3.67
0.33
1.0
-0.67
3.67
4.0
0.33
-3.33
-0.33
1.33
-3.33
1.67
-1.67
3.33
2.0
-2.33
-4.67
-3.0
-2.0
3.0
-0.67
-2.33
-3.0
0.67
8.33
-1.0
3.33
2.67
1.0
2.67
0.33
6.67
-5.67
3.0
0.67
0.67
2.0
0.0
-5.0
0.67
-2.33
2.0
-0.67
0.33
-5.0
-2.67
-0.33
-2.33
-2.0
-0.33
0.33
1.67
1.33
-0.33
0.33
-3.67
-2.33
-1.33
1.0
-3.67
-3.33
0.33
-0.33
4.0
4.33
-2.33
-0.67
-4.0
-3.0
1.67
-3.67
0.0
-1.33
1.33
1.0
1.33
3.33
-3.67
5.0
1.67
-0.67
2.0
-1.33
-2.0
2.33
-1.0
-1.33
-0.33
-4.67
-4.0
-1.0
-4.67
-2.33
1.67
1.0
-2.33
3.67
-2.33
0.33
5.33
-1.33
3.33
1.0
0.0
2.67
-3.67
-3.0
2.33
2.33
-1.33
3.0
1.0
1.33
-5.0
3.0
3.67
-2.33
-3.67
-3.67
-2.33
4.0
1.33
-1.67
-0.33
3.0
-2.67
0.0
-1.33
-1.0
0.0
-6.0
4.33
1.33
5.67
2.0
4.33
5.67
6.33
-1.33
1.67
1.0
-0.67
-2.33
3.67
0.0
-1.67
-3.33
-1.67
-0.33
0.33
-3.0
1.33
-4.33
-7.0
-1.0
-2.33
-0.67
-3.0
5.33
-1.0
-2.33
5.0
2.67
-2.0
-4.33
-3.33
-5.67
0.0
1.67
2.0
1.33
3.33
6.33
-0.33
-4.33
5.0
0.67
2.67
-4.0
1.0
-1.67
-2.67
-2.67
2.0
-0.67
1.0
-4.67
-1.33
-3.0
-6.33
1.67
-1.0
2.33
3.67
-3.0
-2.33
-4.0
-2.33
1.67
-4.33
-1.67
-3.0
-2.0
-2.0
-1.33
-1.33
-4.33
-7.67
4.0
-0.67
0.0
5.0
3.33
6.67
10.33
-2.67
9.33
11.0
22.67
19.33
40.0
53.67
63.33
67.67
75.0
71.67
36.33
27.0
12.67
10.33
9.67
0.0
2.33
2.33
-5.0
-3.33
-3.67
-6.0
-5.33
-0.33
-2.33
0.67
-4.33
2.0
1.33
0.0
11.33
-7.67
4.33
-4.0
2.0
-5.0
-6.33
-5.33
-1.67
1.0
-5.0
3.0
-2.33
-3.33
-1.0
-0.33
-1.67
-4.67
1.0
3.0
-2.67
5.67
-9.67
-1.0
-2.33
-5.33
-4.33
-2.67
-4.0
1.33
0.33
-4.33
0.0
-4.0
7.67
-2.67
4.67
0.33
-1.0
0.0
1.0
6.33
-2.67
-2.33
-4.33
5.33
-6.33
2.67
5.33
-2.0
7.67
19.33
10.33
7.33
-1.0
0.67
11.33
11.33
1.0
3.0
-3.33
9.0
4.67
3.33
2.0
5.0
15.67
9.33
8.67
2.33
8.33
7.0
-1.67
3.0
11.0
13.0
7.0
4.0
26.67
17.67
17.33
22.0
8.0
18.0
14.33
25.33
21.0
33.67
12.33
29.67
26.33
8.67
23.33
22.67
12.67
7.67
19.33
10.67
9.33
10.67
10.0
11.33
4.0
5.33
4.0
9.67
6.0
6.0
1.67
8.67
-5.0
2.0
6.33
3.33
7.0
2.67
9.0
2.0
9.67
10.67
2.0
2.67
4.67
-3.0
5.67
8.0
9.33
6.33
0.0
11.67
-0.33
-4.67
0.33
1.33
10.33
2.67
2.0
14.0
6.33
-2.33
7.67
5.33
0.33
10.67
1.67
15.33
5.67
0.33
7.33
8.0
6.67
8.67
2.33
5.67
6.67
-1.0
0.67
2.33
8.33
-3.33
16.67
4.67
6.33
7.67
5.33
4.67
6.0
5.33
12.0
7.0
3.33
6.0
1.67
6.0
1.0
4.0
0.0
0.0
3.33
-3.67
6.0
-2.33
-3.33
12.0
4.33
-4.33
4.67
9.0
3.0
7.33
4.33
0.67
5.33
13.0
9.33
2.0
4.33
11.67
8.0
3.67
-2.0
7.67
-2.67
5.33
-4.67
3.33
6.67
11.33
8.33
17.67
19.0
4.0
19.0
8.0
22.33
26.33
26.33
21.0
26.0
44.0
50.67
61.67
93.33
100.33
120.67
145.67
136.67
152.33
156.67
135.33
138.67
115.33
110.0
127.67
80.67
70.67
41.67
47.33
33.67
10.67
14.33
11.0
4.67
-5.67
5.33
4.0
4.33
7.0
1.0
6.67
-6.0
3.33
13.0
-0.67
12.0
3.33
11.67
0.33
-3.33
0.33
2.67
10.33
15.0
0.67
5.33
11.33
11.33
2.0
13.0
12.0
6.67
17.0
9.33
8.33
4.33
-4.33
5.33
10.33
-7.33
27.33
-10.0
8.33
15.67
4.33
4.67
8.33
-0.33
-1.67
-3.33
2.0
-0.33
5.33
0.33
-4.33
7.33
14.33
0.67
13.0
-2.0
1.67
5.0
5.0
2.0
4.33
6.0
6.67
1.67
4.0
6.67
0.0
6.67
-7.0
-2.33
-6.33
1.33
5.0
-5.67
1.67
1.0
1.0
14.67
14.33
18.67
24.67
14.0
10.33
21.33
8.67
12.0
14.33
5.67
17.67
23.67
18.33
8.0
15.67
9.0
12.33
10.33
13.67
16.67
-5.33
3.67
1.67
-3.0
0.0
-3.33
9.67
11.67
-6.0
12.33
-5.67
10.33
-3.33
-3.33
-14.33
5.67
12.0
-2.0
9.33
1.67
2.0
13.33
0.33
0.67
5.0
9.67
-1.33
8.0
6.0
10.0
9.67
12.0
2.67
7.33
2.0
-0.33
10.0
8.67
14.0
12.0
-6.0
-5.0
5.33
-1.67
5.0
7.67
-5.33
-8.67
-5.33
0.0
-2.33
5.33
-3.33
-6.0
2.0
3.33
-3.67
-8.0
-8.33
3.33
6.0
-6.33
1.67
4.33
-2.67
-9.33
0.33
15.33
-5.67
7.67
-2.0
0.0
-5.0
1.0
2.0
5.0
-1.67
-1.33
0.0
-5.67
0.67
-4.0
-5.0
-2.33
1.33
4.33
-6.0
0.67
-2.0
0.33
7.33
8.0
2.0
5.0
3.33
10.33
18.67
-2.67
-0.33
8.33
8.33
8.33
16.67
8.67
7.0
12.0
7.0
3.33
-0.33
8.0
12.33
-4.0
5.67
4.67
-3.67
2.0
2.33
3.67
3.0
8.67
5.33
-3.67
1.33
8.67
6.0
-9.0
-6.0
4.67
2.33
-0.33
-4.67
7.67
7.67
-2.33
-6.33
4.0
14.33
-3.0
2.67
-3.67
2.67
1.0
0.67
-4.67
-1.33
-2.67
-2.33
-1.33
1.67
-0.67
3.0
3.33
-2.0
-6.0
-2.0
1.0
-4.67
0.33
-1.33
-0.67
-1.67
-0.67
1.33
2.67
0.0
-2.0
-4.33
8.33
-7.0
-5.33
-3.67
2.67
5.67
-1.33
7.0
2.0
7.33
3.0
0.0
7.33
-2.67
-4.0
3.33
9.0
2.33
7.0
1.0
-4.33
0.67
-0.67
5.33
-4.0
-4.67
4.33
5.0
0.33
2.0
3.67
5.0
-2.67
-8.0
1.67
2.67
-3.0
9.67
1.0
5.0
-1.33
3.33
1.0
3.33
5.0
5.0
0.0
1.0
3.0
3.0
1.33
4.0
1.0
-2.67
0.67
-4.67
1.0
-0.33
-1.33
8.33
8.33
-0.67
0.0
-3.67
11.0
5.33
0.67
2.33
-4.0
-4.33
1.33
5.67
0.0
3.0
2.0
-5.67
0.33
2.0
-1.0
11.67
2.0
3.0
-3.33
1.0
0.0
0.0
-1.0