File: EDX Back Ups and Old Files/Spectra copy 3.3.23/Samples/High pH BL Ref/8.25.txt
0.0
103.67
96.0
19.33
15.33
-5.33
-41.67
36.67
64.0
22.33
30.0
2.67
9.33
-8.33
2.33
4.67
1.33
-0.67
-1.33
-1.33
-0.33
-0.67
1.0
0.0
0.0
0.0
0.67
1.0
0.33
0.0
-0.33
1.0
0.0
0.67
0.67
0.0
-0.67
-0.33
0.0
-0.33
0.0
2.0
0.0
1.0
0.0
1.33
0.0
0.67
2.0
-1.0
-0.33
2.33
2.67
0.0
-1.0
1.0
-2.33
-1.0
-2.0
2.0
0.67
0.67
-1.33
-1.33
2.0
2.33
-0.67
3.33
3.33
-0.33
5.67
4.33
1.67
0.67
-2.0
6.33
2.0
3.33
-1.0
0.67
-3.33
5.33
5.67
-2.67
-4.0
8.33
-1.67
1.33
4.33
1.67
-0.33
3.33
-2.67
6.0
-6.33
3.0
2.67
4.33
7.0
3.33
7.33
10.33
-1.0
1.33
8.67
5.33
5.33
-1.33
1.67
6.33
-0.33
7.0
3.0
8.33
2.0
0.33
9.67
0.33
3.67
6.0
2.33
4.67
-4.33
5.0
3.33
0.33
0.0
3.0
1.33
7.0
5.0
10.0
-1.33
6.0
5.33
1.67
1.33
4.33
2.33
0.0
-1.67
-3.33
-1.0
4.33
11.0
7.67
4.67
3.33
5.0
-0.67
-0.67
-0.33
-3.67
-0.67
0.33
5.0
5.33
1.33
6.67
5.67
2.67
8.0
-4.67
1.33
1.67
10.33
1.0
1.0
-0.33
9.0
0.33
9.67
3.67
1.67
-5.33
1.67
0.33
-1.67
2.67
1.33
-2.0
6.33
0.33
0.0
5.67
3.33
1.0
-2.67
2.67
5.0
3.33
-5.33
3.67
1.33
8.67
-2.33
0.33
3.33
3.0
-6.33
5.33
0.0
0.0
-1.0
1.33
-0.33
4.0
3.67
3.33
0.0
-1.67
2.67
7.0
4.67
-4.67
2.67
-2.67
3.0
0.67
4.67
3.0
0.0
4.0
0.67
2.67
1.0
8.33
5.33
-2.0
2.33
1.67
1.67
3.0
5.67
-1.67
2.67
5.33
-1.33
4.33
1.33
4.67
-1.33
5.0
-0.67
1.67
-3.67
-2.33
0.0
0.33
4.67
-0.67
-2.0
-2.0
1.67
-5.67
0.0
4.67
4.33
-4.0
3.33
3.33
-0.67
-3.0
-1.33
1.33
-4.0
-0.33
0.0
-2.67
0.0
0.67
7.67
0.33
3.0
-3.0
-2.67
0.67
5.67
-2.0
7.67
-0.33
4.67
8.33
2.33
5.67
-4.67
4.0
2.0
-1.33
-3.67
-2.0
0.33
4.33
-1.33
5.0
-1.0
5.33
-3.0
1.0
1.67
-3.33
-7.67
-2.67
-2.33
-1.0
-0.67
-0.67
1.67
-1.0
5.33
-2.0
-3.33
4.0
-1.0
-2.0
1.33
-3.67
1.67
2.0
-0.67
2.67
1.33
-5.33
0.67
0.0
4.33
-3.33
0.67
0.0
1.33
-2.33
-3.67
-1.33
-0.67
2.0
2.33
2.67
-4.0
-1.0
-1.33
-1.67
2.0
3.33
3.0
-1.33
-5.0
-0.33
-3.0
-1.33
1.67
-3.67
0.0
-5.33
4.0
-0.67
0.33
-2.67
-0.33
-5.33
-3.0
-1.33
-2.33
-3.0
-7.0
0.33
-5.67
-4.67
-1.0
-3.67
1.0
-4.67
-0.33
0.0
-4.33
-4.33
-2.0
0.33
-1.33
-1.0
-7.33
0.0
-2.33
6.67
-8.33
-1.67
-7.0
3.0
-2.0
-4.33
-3.33
0.67
-0.67
0.0
-2.67
1.0
4.0
8.33
-1.33
11.33
8.33
14.33
10.0
8.67
21.33
9.0
22.67
17.33
22.67
10.0
23.67
16.33
4.0
6.67
1.33
3.67
-3.0
2.33
2.33
1.0
7.67
-2.67
0.0
-6.33
1.67
-5.33
5.67
-5.33
1.0
0.33
1.0
2.33
3.33
-0.67
1.0
5.0
1.0
-2.33
-4.33
-0.67
-4.0
-5.0
-1.0
-1.33
2.67
-7.0
-2.33
-10.67
-10.67
-3.0
-7.0
4.33
-3.33
-3.67
2.0
-0.33
-4.33
-10.33
-6.67
-2.0
-4.67
2.33
-3.33
7.0
-4.0
-3.33
-6.67
3.67
-4.67
4.0
-3.0
-5.0
7.33
5.33
-8.33
-5.33
5.33
-2.33
-1.33
0.33
-2.0
1.67
4.33
4.33
4.33
-10.0
-5.33
5.33
5.33
5.0
-9.0
0.67
2.0
-2.33
-5.67
0.0
1.0
-3.33
8.33
1.67
-3.67
0.33
5.0
-6.67
-5.0
4.0
-2.0
-4.0
1.0
3.67
-1.33
4.33
1.0
10.0
1.0
18.33
26.33
15.0
22.67
14.33
25.67
23.33
13.67
15.33
11.67
-2.33
12.67
7.33
5.67
6.33
-1.33
2.0
12.33
6.0
0.33
9.0
5.67
-1.0
1.0
1.67
-1.33
3.0
-3.0
6.33
-5.67
4.0
-2.33
5.0
3.0
-1.33
5.67
-1.0
8.67
3.67
0.0
17.67
2.0
1.33
9.33
6.0
2.67
10.67
-1.67
4.33
-1.67
8.33
9.67
4.0
6.0
0.33
14.67
2.67
7.33
6.33
7.67
7.67
4.33
25.67
-0.67
5.33
15.0
11.67
1.67
4.33
13.67
9.67
6.0
2.67
7.33
0.33
4.67
8.67
8.67
2.33
8.67
13.33
15.67
13.0
3.33
11.0
0.0
9.33
-1.0
-0.33
12.0
-3.0
-1.0
0.0
5.0
6.33
15.33
6.0
10.67
9.67
13.0
17.33
8.67
10.67
7.0
12.0
5.33
-2.67
13.67
9.33
8.0
18.33
4.0
13.33
-1.33
10.0
11.67
5.0
11.67
2.33
4.33
6.33
14.33
-0.33
7.33
17.33
23.67
21.0
17.0
28.0
13.0
8.33
22.33
5.33
22.0
23.0
28.0
36.67
30.67
34.33
52.33
59.67
56.67
80.67
92.33
96.67
76.33
81.67
70.33
85.0
45.67
66.67
40.67
25.67
31.33
20.67
18.67
3.33
19.0
4.67
6.33
11.33
10.0
0.33
10.0
-6.0
14.67
-2.0
7.33
12.0
12.33
11.0
7.33
12.67
8.33
0.67
13.33
-0.33
10.33
9.0
14.67
10.33
6.33
9.33
8.0
16.0
11.0
11.67
17.0
0.33
4.33
13.33
7.67
9.33
19.33
7.67
13.33
3.0
3.33
1.67
1.33
16.67
-4.67
9.67
6.33
11.67
9.0
4.67
3.33
14.33
10.67
2.33
7.33
10.67
9.0
7.0
-3.33
10.0
10.0
3.0
10.33
1.0
-5.33
6.67
-2.0
16.67
13.0
8.67
7.0
-3.33
-0.33
11.33
6.0
-2.67
8.67
15.0
7.0
10.67
3.33
8.67
8.67
32.0
15.33
21.33
21.67
14.0
37.33
25.67
31.67
15.67
8.33
12.0
30.67
24.0
11.33
15.33
7.67
21.67
7.67
1.67
-3.33
-4.0
4.0
6.67
7.67
0.67
15.0
1.33
4.33
14.33
2.67
11.67
-0.33
7.67
10.0
7.0
-1.67
12.67
9.0
5.33
7.33
14.67
21.0
21.67
4.67
1.0
13.0
4.0
15.67
5.0
3.67
9.33
16.0
0.67
7.0
6.67
-5.0
0.0
-3.0
-12.0
6.33
8.33
0.0
1.67
5.67
-7.67
-2.33
-1.0
2.67
-5.67
-1.33
1.0
10.0
8.33
-1.67
6.0
-3.33
1.33
-1.0
-4.33
-0.33
10.33
-3.67
-1.33
-1.67
9.33
-0.67
-1.33
-3.0
-6.0
-1.0
2.0
-4.0
6.0
0.33
-8.33
8.0
5.33
-0.33
-2.0
6.0
9.67
1.33
0.33
10.0
0.67
2.0
2.33
6.33
-3.0
2.0
11.0
5.33
8.33
4.67
3.33
6.67
1.33
14.33
6.33
8.67
-3.33
5.0
5.0
4.0
2.33
10.67
5.0
-2.67
5.0
8.67
5.67
5.33
5.0
3.33
2.67
6.0
-2.33
-3.67
-2.67
5.33
5.67
2.0
-2.0
2.0
4.67
4.33
6.67
2.33
3.67
4.67
4.67
8.67
11.0
9.33
-2.0
6.67
-1.67
9.67
4.0
4.67
0.33
5.67
0.33
0.67
5.67
8.67
12.33
10.0
-4.67
5.0
-5.0
6.0
2.0
0.33
13.33
2.67
5.33
0.33
0.33
9.33
4.67
3.0
-3.0
-1.33
9.33
-3.0
3.67
-0.67
-2.33
1.67
-1.33
-5.0
-4.0
0.33
7.0
4.0
11.33
1.33
7.0
9.33
10.0
9.33
3.0
1.0
5.67
-0.33
-2.67
-1.67
4.0
0.33
-4.67
1.0
3.33
9.0
8.67
2.0
2.33
-1.0
0.67
-1.33
-5.0
0.67
0.0
6.0
0.67
-2.67
3.0
0.33
3.0
0.0
1.0
-4.0
0.0
1.0
-1.67
-2.0
5.0
3.33
-0.33
-0.67
4.0
1.67
5.67
2.33
5.33
-0.67
-3.0
-3.67
4.0
2.33
0.67
-4.67
4.0
2.67
5.33
0.67
5.0
8.0
-1.0
-0.67
0.33
0.0
-3.0
4.67
5.0
-4.0
4.67
2.0
7.0
1.0
-1.0