File: EDX Back Ups and Old Files/Spectra copy 3.3.23/Samples/High pH BL Ref/9.5.txt
0.0
58.67
71.0
11.33
-35.67
31.67
15.33
49.67
98.0
31.33
18.0
14.67
-5.67
22.67
-1.67
4.67
-7.67
3.33
-0.33
-0.33
-0.33
-0.67
0.0
-1.0
1.0
2.0
-0.33
0.0
0.33
1.0
0.67
1.0
0.0
1.67
-0.33
0.0
-0.67
0.67
0.0
-1.33
-1.0
0.0
-1.0
0.0
0.0
-0.67
0.0
-0.33
2.0
1.0
-0.33
-1.67
-0.33
0.0
-2.0
0.0
-3.33
-1.0
-1.0
-3.0
0.67
-1.33
-5.33
-0.33
3.0
8.33
4.33
0.33
1.33
1.67
-4.33
-2.67
0.67
-3.33
-2.0
6.33
0.0
3.33
-3.0
-0.33
-1.33
7.33
6.67
-0.67
0.0
-2.67
5.33
-1.67
2.33
-0.33
-0.33
3.33
5.33
3.0
0.67
-4.0
3.67
4.33
7.0
0.33
8.33
5.33
-4.0
3.33
4.67
5.33
7.33
7.67
-2.33
1.33
0.67
6.0
6.0
0.33
2.0
-3.67
-2.33
-2.67
5.67
2.0
-0.67
1.67
2.67
3.0
5.33
5.33
-1.0
5.0
-4.67
-2.0
6.0
4.0
-3.33
4.0
6.33
-0.33
-0.67
5.33
-0.67
6.0
-0.67
-0.33
-1.0
9.33
3.0
0.67
-1.33
-0.67
6.0
5.33
-2.67
5.67
0.33
2.33
4.33
5.0
4.33
-0.67
5.67
2.67
3.67
0.0
-9.67
0.33
3.67
7.33
1.0
-1.0
-1.33
3.0
4.33
3.67
0.67
2.67
-2.33
-4.33
-1.67
1.33
-1.33
-0.67
2.0
6.33
3.33
-1.0
5.67
10.33
5.0
3.33
4.67
4.0
6.33
-4.33
3.67
1.33
3.67
2.67
5.33
0.33
-2.0
-0.33
-3.67
-4.0
-2.0
1.0
4.33
-0.33
5.0
2.67
2.33
1.0
1.33
4.67
3.0
3.67
3.33
5.67
-1.67
1.0
7.67
6.67
2.0
5.0
1.0
-0.33
-2.33
1.0
-2.67
-1.67
-3.0
0.33
-0.33
-0.33
-1.0
-0.33
-0.67
4.67
-0.67
-4.33
-2.67
0.33
-1.33
1.67
9.0
-1.67
0.67
-1.67
5.67
3.0
1.33
-0.33
-2.67
1.0
-1.0
-0.33
-5.67
-4.0
2.67
2.33
-3.0
1.33
2.33
-0.67
0.0
1.67
0.33
-2.0
-3.33
0.0
-1.67
0.0
3.67
5.67
-0.67
0.0
1.0
3.33
-2.33
2.67
2.0
-2.33
-1.33
-2.33
0.33
-1.67
7.67
1.33
-3.0
0.0
-1.33
0.33
1.0
-0.67
2.33
-2.33
0.0
1.0
-0.67
1.0
2.0
-3.33
2.67
-5.67
-3.67
-4.33
-2.0
-4.67
0.33
-2.33
0.0
-3.67
1.0
0.67
4.0
1.0
0.0
-1.67
1.33
5.67
-4.0
-1.67
3.67
0.33
-1.33
1.67
-1.0
1.33
-1.33
0.67
2.0
-0.67
-6.33
-0.67
0.67
0.33
0.0
1.33
3.67
-6.0
-1.0
-2.33
-3.67
3.0
-1.67
-3.0
-0.33
1.0
-1.33
-6.0
-1.33
-4.33
-6.67
0.0
-3.33
-1.0
-2.67
-3.67
2.33
3.67
-8.33
5.0
-3.33
4.67
0.0
-2.0
-0.67
-3.67
-1.67
-3.0
0.33
-1.0
-3.67
-4.33
-5.0
-1.33
0.67
-6.0
-5.67
-5.33
-1.0
2.67
-4.0
-0.33
2.67
-2.33
-2.67
-4.0
-6.0
-6.0
-9.33
-4.33
-1.33
-3.67
1.0
-2.67
-1.0
-5.0
5.33
4.67
1.33
7.33
23.33
9.0
4.67
18.33
24.0
25.67
23.33
18.67
23.0
19.67
9.33
14.0
13.67
-2.67
2.67
1.0
7.33
1.33
3.0
5.67
2.33
-4.0
-2.33
2.67
4.67
1.67
-1.33
-3.0
1.33
-1.0
-1.67
-4.67
3.33
-4.0
0.0
-3.0
-3.33
-6.33
2.33
-3.0
0.0
6.0
7.67
-0.33
0.0
-6.33
0.33
-1.67
5.0
-8.0
-6.67
-3.33
-8.67
-2.0
-0.33
-4.33
-11.33
-3.67
-12.0
-1.67
-0.67
-7.33
2.0
-10.0
-6.33
-9.67
4.67
3.33
11.0
4.0
3.0
11.33
3.33
1.67
-4.33
5.33
-0.33
-10.33
-7.67
-3.0
4.67
-0.67
2.33
-4.67
6.0
-1.33
1.33
-2.67
-2.0
-6.0
-1.33
4.0
-2.33
2.33
0.0
0.0
-2.33
5.33
1.67
-2.67
-2.67
-8.0
-6.67
1.0
-5.0
-1.0
1.0
0.0
8.67
-0.33
1.33
6.0
1.0
13.0
8.33
17.33
18.0
20.67
21.33
31.67
12.33
23.67
11.33
7.67
1.67
4.67
3.33
1.67
2.33
9.67
-1.0
6.33
2.0
4.33
6.0
-1.33
-4.0
-2.0
2.67
1.67
3.0
0.0
4.33
1.33
12.0
5.67
12.0
2.0
5.67
1.67
5.0
-1.33
10.67
4.0
8.67
9.0
9.33
8.33
7.0
12.67
4.67
5.33
1.33
-2.67
3.33
0.67
1.0
12.0
5.33
10.67
5.67
17.33
12.33
0.67
0.67
17.33
18.67
7.33
6.33
10.0
10.67
-0.33
7.33
0.67
9.67
13.0
0.67
-4.67
2.33
9.67
20.67
4.67
8.33
12.67
3.33
-7.33
1.0
9.33
7.0
7.0
0.33
6.0
3.67
19.0
7.0
6.0
12.0
1.0
4.33
6.33
7.0
4.67
-1.33
10.0
13.33
0.67
4.67
11.0
8.0
5.33
1.33
6.67
7.33
5.0
10.33
10.0
8.33
12.67
7.0
0.67
4.0
13.67
14.33
10.33
2.33
17.33
11.67
8.33
18.33
9.67
20.0
14.0
18.0
16.0
26.33
32.33
10.33
26.0
25.0
29.0
27.67
63.67
63.33
71.33
58.67
98.67
76.67
98.33
97.67
93.33
98.67
95.33
89.0
60.67
53.67
36.67
34.67
35.33
10.67
17.67
14.33
30.0
8.67
5.33
14.33
6.0
8.33
11.0
-2.0
10.67
5.0
7.33
7.0
14.33
15.0
11.33
-1.33
6.33
8.67
11.33
5.67
14.33
22.0
9.67
10.33
9.33
11.33
1.0
11.0
6.0
2.67
9.0
9.33
10.33
9.33
9.67
10.33
5.33
-4.33
14.33
10.0
19.33
6.67
8.33
15.67
3.33
9.67
-4.67
18.67
-2.0
7.67
5.33
0.33
14.67
30.33
-0.67
6.67
9.0
17.0
1.67
8.0
6.0
7.0
5.33
-4.0
6.67
3.67
15.0
4.67
23.0
19.67
14.0
-4.33
-1.33
10.33
3.0
1.33
4.67
10.0
8.0
9.67
17.33
33.67
14.67
25.0
33.33
23.33
17.67
20.0
24.33
34.67
27.67
20.67
24.33
21.0
18.67
23.0
20.33
20.33
19.67
21.67
12.67
-1.33
4.67
-5.0
6.0
-14.33
-5.33
9.67
9.0
1.33
3.33
14.33
9.67
8.67
-14.33
14.67
11.0
2.0
4.33
5.67
9.0
3.33
12.33
3.67
9.0
17.67
8.67
14.0
2.0
13.0
3.67
-6.0
12.67
14.33
7.0
-6.33
1.0
11.67
15.0
10.0
-2.0
6.0
1.33
4.33
10.0
0.67
-0.33
1.33
1.67
10.0
15.67
10.33
-1.33
-4.0
-2.0
7.33
7.33
3.0
10.67
4.33
-1.0
-7.33
9.67
4.33
0.33
4.67
-6.67
6.33
-3.67
9.67
1.0
-2.0
-11.0
-5.0
6.0
2.0
3.33
5.67
2.0
-1.67
4.67
2.0
-3.0
-3.33
1.33
8.33
9.0
4.67
-1.0
12.33
3.33
0.0
1.0
2.0
0.33
3.33
0.67
3.33
0.67
10.33
2.33
5.33
9.67
9.67
2.0
4.0
2.0
12.33
-3.33
19.0
6.33
-5.0
16.67
-3.33
-1.67
7.0
1.33
4.67
2.0
0.67
4.33
5.33
4.33
1.67
-3.0
-6.0
1.0
-3.33
-0.67
4.67
8.33
9.67
3.67
-2.33
-1.33
7.0
6.33
-5.0
0.67
2.33
-1.33
2.0
0.67
-2.67
-5.33
2.33
-4.33
0.67
6.67
-9.67
-3.0
-3.67
1.0
9.0
1.0
1.0
-2.67
7.33
-6.33
-4.67
2.33
0.33
5.33
0.67
-2.0
0.0
3.67
1.33
-5.0
0.67
-1.67
-2.33
6.67
-1.33
-1.0
0.0
5.33
4.0
3.0
-0.67
1.33
2.0
0.33
-2.0
6.33
4.0
3.0
13.67
2.67
12.33
3.33
1.0
0.33
6.33
5.0
-1.67
2.0
2.67
4.0
2.33
0.0
6.67
-2.33
-1.0
0.67
4.0
1.0
7.67
-0.67
3.0
7.33
5.0
1.0
2.0
1.0
2.0
3.0
1.33
3.0
2.0
2.33
5.67
-4.67
-3.0
-1.33
-1.33
6.33
2.33
2.33
-2.0
-0.67
-1.0
1.33
-2.33
-0.67
-5.0
1.67
4.33
-3.33
7.0
1.0
-3.0
0.33
5.33
-1.0
5.0
5.67
2.0
-1.0
1.67
2.0
5.0
-3.0
2.0