File: EDX Back Ups and Old Files/Spectra copy 3.3.23/Samples/High pH BL Ref/9.75.txt
0.0
49.67
104.0
62.33
28.33
2.67
43.33
69.67
75.0
10.33
12.0
-1.33
12.33
21.67
9.33
0.67
-4.67
6.33
-1.33
-0.33
1.67
2.33
0.0
-1.0
-1.0
0.0
-0.33
1.0
0.33
0.0
-0.33
1.0
0.0
-0.33
-0.33
1.0
0.33
0.67
0.0
-1.33
-1.0
0.0
1.0
1.0
0.0
0.33
0.0
-0.33
1.0
-1.0
-1.33
-0.67
0.67
-1.0
3.0
1.0
-2.33
0.0
-2.0
-1.0
-0.33
4.67
-2.33
1.67
1.0
3.33
-2.67
-3.67
2.33
8.67
4.67
-1.67
-0.33
-2.33
-5.0
-0.67
-1.0
-1.67
-2.0
-3.33
1.67
1.33
2.67
-1.67
-6.0
-2.67
10.33
1.33
2.33
2.67
-1.33
3.33
5.33
1.0
-6.33
5.0
-3.33
1.33
-2.0
0.33
-0.67
11.33
-2.0
-2.67
6.67
3.33
4.33
-4.33
4.67
-0.67
-4.33
7.0
1.0
-0.67
4.0
5.33
0.67
0.33
-2.33
-1.0
2.33
-0.33
2.67
4.0
1.33
3.33
-4.0
8.0
-2.67
2.0
2.0
0.0
2.67
6.0
6.33
3.67
-1.67
4.33
-0.67
0.0
-4.67
7.67
0.0
1.33
1.0
1.67
1.67
2.33
1.0
1.33
-4.67
3.67
-5.67
0.33
1.33
5.0
2.33
2.33
5.67
3.67
6.67
2.0
-2.67
10.33
3.67
7.33
3.0
-5.0
-2.33
3.0
4.33
1.67
0.67
-3.33
-3.33
-3.33
1.33
1.33
1.67
5.33
3.0
9.33
3.33
1.0
1.67
-1.67
-2.0
5.33
-2.33
9.0
5.33
-3.33
2.67
5.33
-2.33
-2.33
-0.67
6.33
2.0
-0.33
1.33
5.0
2.0
1.0
2.33
-1.33
5.0
-1.33
3.33
6.0
-0.67
-3.33
1.0
8.67
0.33
2.67
-1.67
-2.0
-3.33
6.67
1.0
-3.0
-4.0
3.67
-1.33
2.0
0.33
-1.67
1.0
0.33
-2.33
-2.33
2.0
-1.33
1.33
2.67
0.33
-2.33
1.33
-1.67
4.67
3.67
2.0
-1.67
2.67
-2.67
-1.33
1.0
6.33
1.67
0.33
1.0
-2.0
1.67
3.33
-1.0
1.67
1.33
-2.0
0.33
3.33
0.33
7.0
2.67
4.33
2.0
0.67
-1.0
-0.67
-1.0
-3.33
6.67
0.33
2.0
0.0
3.33
1.67
0.67
1.0
3.67
-1.33
-2.33
1.33
3.33
1.67
-2.67
-1.0
3.0
-2.33
-0.67
-1.0
2.33
5.33
-0.33
5.0
0.0
1.33
3.0
-1.0
0.67
-2.33
-5.67
-2.67
-7.33
1.0
0.33
-1.67
1.67
0.0
3.33
1.0
3.67
2.0
3.0
-3.0
3.33
-2.67
-1.33
1.0
0.33
-0.33
0.33
-1.33
-0.33
2.0
3.33
-0.33
4.67
0.0
-0.67
-3.33
3.33
4.67
-1.67
-1.0
-2.67
-1.33
-2.0
1.0
-3.33
0.33
-1.0
2.33
0.0
-5.33
-6.0
0.67
0.0
-1.33
-4.33
-8.67
-2.0
-5.33
1.0
1.33
6.33
-4.67
-0.33
-3.33
1.0
-6.33
-0.33
-7.0
-3.0
4.33
-1.67
-5.67
-1.0
-3.67
-3.0
-4.67
-2.33
-3.0
-1.33
-6.33
1.0
3.33
2.67
-2.0
-4.33
-5.0
0.67
6.67
-1.33
-4.67
0.0
-2.0
-9.0
-9.33
-7.33
-5.33
-3.67
3.0
3.33
-5.0
2.0
3.33
5.67
2.33
8.33
10.33
13.0
7.67
21.33
26.0
31.67
20.33
28.67
22.0
20.67
23.33
13.0
17.67
7.33
3.67
10.0
3.33
5.33
-8.0
-1.33
-7.67
-8.0
-4.33
4.67
-2.33
2.67
-0.33
1.0
-4.67
-2.0
3.33
1.33
0.33
-4.0
0.0
-2.0
1.67
-9.33
-1.67
0.0
-2.0
-6.0
-5.33
-5.33
-6.0
1.67
-7.67
-3.67
1.0
-3.0
1.33
-3.33
-7.67
0.0
-4.33
2.67
-2.33
3.33
-11.0
-2.67
-5.67
-0.33
3.0
1.0
3.67
-4.67
2.67
4.33
-4.0
8.0
1.0
0.33
-3.67
2.67
-9.33
-1.67
-3.33
-8.33
-0.67
-3.0
1.67
1.33
-1.67
1.33
-6.0
-1.33
7.33
1.33
2.0
-7.0
-6.33
0.0
-1.33
-5.67
-3.0
-3.0
4.67
6.33
1.67
-1.67
0.33
-4.0
3.33
-4.0
2.0
-4.0
-5.0
-2.0
5.67
-2.33
6.33
1.0
15.0
6.0
7.33
34.33
27.0
23.67
18.33
22.67
17.33
5.67
7.33
13.67
2.67
10.67
7.33
3.67
3.33
14.67
19.0
5.33
4.0
3.33
8.0
2.67
-6.0
8.0
8.67
1.67
8.0
0.0
1.33
2.33
9.0
5.67
8.0
5.0
2.67
13.67
17.0
14.67
-0.33
9.0
0.67
5.0
10.33
11.33
0.0
12.67
-2.33
-0.67
3.33
5.33
-2.67
-2.33
7.0
13.0
9.33
8.67
6.67
8.33
3.33
0.67
3.67
12.33
14.67
-7.67
6.33
10.0
10.67
5.67
8.33
6.67
13.67
8.0
-1.33
14.33
10.33
4.67
10.67
1.67
13.33
15.67
8.33
-4.33
8.0
8.33
2.0
-6.0
9.33
1.0
10.67
6.0
1.0
3.0
1.0
5.0
6.33
-9.67
13.0
12.67
2.67
14.0
10.33
6.67
19.67
10.0
4.0
9.33
1.33
6.67
6.33
14.0
5.33
7.0
13.33
7.67
3.0
14.67
-4.0
6.67
16.33
9.33
7.33
16.33
17.67
11.33
22.33
14.67
8.0
17.0
16.0
16.0
33.33
21.33
16.33
35.0
24.0
26.0
54.67
36.67
73.33
72.33
87.67
80.67
85.67
92.33
108.67
99.33
102.67
92.33
89.0
72.67
63.67
42.67
40.67
19.33
7.67
18.67
2.33
18.0
9.67
5.33
9.33
1.0
9.33
16.0
6.0
19.67
9.0
9.33
-4.0
16.33
6.0
4.33
12.67
6.33
3.67
2.33
-1.33
15.33
17.0
4.67
5.33
13.33
6.33
1.0
9.0
13.0
16.67
10.0
9.33
17.33
20.33
7.67
13.33
18.33
9.67
2.33
1.0
2.33
17.67
8.33
6.67
3.33
2.67
6.33
3.67
4.0
9.67
8.33
7.33
12.67
8.33
21.33
4.67
5.0
21.0
6.67
7.0
13.0
2.0
1.33
7.0
9.67
2.67
-1.0
10.67
5.0
9.67
-2.0
4.67
5.67
6.33
2.0
-2.67
21.67
18.0
13.0
10.67
16.33
13.67
4.67
29.0
21.33
16.33
18.67
32.0
28.33
30.67
26.67
32.67
27.33
29.0
18.67
16.0
11.33
18.33
16.67
8.67
15.67
-6.33
4.67
4.0
4.0
9.67
3.67
1.67
3.0
-0.67
-2.67
6.33
-2.33
12.67
-5.33
2.67
4.0
5.0
9.33
9.67
18.0
5.33
16.33
7.67
13.0
8.67
9.67
9.0
3.0
-5.0
8.67
5.0
2.67
6.33
-4.0
-1.33
0.0
6.67
2.0
16.0
-5.0
3.0
3.33
-6.67
3.0
3.67
2.67
8.33
-11.33
7.0
0.67
2.33
-1.33
-10.0
12.0
6.33
-2.67
9.0
6.67
3.33
-5.0
-3.33
4.67
3.33
6.33
14.67
-5.67
-5.67
5.33
3.67
6.0
4.0
4.0
-7.0
3.0
4.0
-2.67
-5.33
-4.0
6.33
1.67
6.0
8.0
-2.33
8.33
12.33
-2.0
5.67
-1.0
-1.67
-3.67
1.0
-4.0
10.0
3.33
6.33
4.67
15.33
12.67
-1.67
3.33
-0.67
6.67
11.67
8.0
-4.0
8.0
7.33
3.67
0.0
-1.67
4.0
13.67
6.67
8.33
6.0
-1.67
5.67
9.0
4.67
2.33
2.33
8.33
-1.33
2.0
1.0
2.0
-1.33
1.33
10.67
0.33
0.67
-5.33
-0.33
-2.33
5.0
10.33
2.0
5.67
2.33
-2.33
3.0
-3.33
-1.67
-4.33
0.33
-5.33
-0.33
5.67
-7.67
12.0
-6.67
4.0
0.0
9.0
-8.0
1.33
3.33
-8.33
6.33
-3.67
-1.67
5.33
1.67
-1.0
-1.0
2.67
-2.67
0.0
-0.33
4.33
1.67
3.67
-0.33
-4.0
-3.0
-2.67
1.0
4.0
4.33
-0.67
5.0
6.33
4.0
2.33
10.0
-1.0
0.67
-1.33
3.33
0.33
6.0
-0.67
-2.67
3.0
-3.67
2.0
4.67
-5.0
3.33
1.0
-0.33
5.67
3.0
-0.33
-1.0
3.0
5.67
2.33
4.0
7.33
2.0
3.0
-8.0
0.0
1.0
0.0
9.33
-1.0
-5.0
10.33
0.67
3.33
-4.0
0.67
0.67
3.33
-0.67
0.33
1.0
-2.67
0.0
5.33
2.67
1.33
-2.0
-3.33
6.33
-2.33
0.0
9.0
-2.0
-1.67
4.33
-1.0
2.0
10.67
6.0
12.0
0.67
-1.0
4.0
6.0
0.0