File: EDX Back Ups and Old Files/Spectra copy 3.3.23/Samples/High pH BL 60C 4d/10.25.txt
0.0
-53.0
52.67
122.67
127.67
27.67
9.33
-50.33
-32.33
-44.33
14.0
29.33
3.33
26.33
-3.33
-5.0
-1.0
-5.0
4.33
2.0
1.33
-0.33
-1.0
0.0
0.0
-0.33
-0.33
0.0
0.0
-0.33
2.0
0.0
-1.0
0.0
0.0
-0.33
-1.0
-0.67
-0.33
-1.0
-0.33
0.0
0.0
-0.33
0.33
-0.33
-0.33
1.67
0.0
0.0
0.67
0.67
-1.67
0.33
-0.67
-0.33
-0.33
-2.33
0.67
0.67
-2.33
-2.33
-2.0
-2.0
-0.33
-0.33
-0.33
2.33
-0.67
-2.0
-1.0
1.33
0.67
1.0
4.0
11.0
-0.67
2.33
7.67
2.67
1.67
-3.33
0.0
0.33
2.0
-6.67
8.33
0.67
3.0
3.0
-0.67
2.67
-6.67
8.0
-1.33
4.0
-6.67
-3.0
-8.33
13.67
1.33
4.33
-3.0
-6.67
-2.67
-1.33
5.67
-2.67
1.33
-1.67
1.33
3.33
5.67
8.33
4.67
4.0
5.33
3.0
3.0
8.33
2.33
-1.0
4.33
5.67
-4.33
3.0
-2.33
-1.33
-0.67
-1.33
1.33
1.0
6.33
-3.33
0.0
4.33
6.0
0.0
7.67
2.67
-1.0
6.33
1.33
4.67
1.67
3.33
3.33
7.0
0.33
0.67
0.33
9.33
4.67
1.0
-2.0
-3.0
3.0
6.67
4.33
-0.33
2.33
-1.0
2.67
8.0
-6.33
1.33
4.33
9.67
0.33
5.67
-4.0
2.33
-0.33
-0.67
0.33
-0.67
0.67
0.33
-1.67
10.0
0.0
-2.0
1.0
3.67
5.33
-0.67
2.33
8.33
4.0
5.33
4.0
-1.0
4.33
6.67
-4.33
0.67
3.33
-2.0
0.0
-4.33
-2.67
-1.0
2.33
1.67
-10.33
-1.33
4.33
6.33
7.33
-3.0
1.0
-3.33
0.67
-0.33
9.33
6.67
4.33
2.33
2.33
-0.33
-4.0
-2.0
0.67
-6.0
-2.67
-0.67
-0.33
-2.0
-2.0
-0.33
2.67
3.0
0.67
7.33
-2.67
-1.0
7.33
0.0
0.33
0.0
-1.0
1.0
-0.33
-0.67
1.0
-5.67
2.0
-2.67
2.0
-0.67
3.33
-2.0
-1.67
-3.33
-1.0
3.33
-0.67
0.67
1.33
6.33
4.67
-0.33
-2.0
-1.0
2.33
1.67
-1.67
0.33
1.67
0.33
1.67
-4.67
0.33
5.33
0.33
-0.67
-1.67
0.67
0.33
3.0
2.33
-3.67
2.67
1.33
4.67
-0.33
2.0
-1.67
-1.67
-1.33
1.33
0.33
3.67
1.33
-3.0
0.67
-5.0
2.33
-4.0
2.67
-1.0
-2.67
-3.67
-3.33
-2.67
0.0
2.67
-3.0
2.33
-4.0
-0.67
-2.67
1.0
-0.67
-1.67
-2.67
-4.0
-1.67
-3.33
-2.0
-1.0
-2.33
1.33
0.67
-3.33
-1.67
3.0
-3.67
1.33
-5.0
0.0
-0.67
-4.33
-8.0
1.67
-0.33
1.33
-2.33
2.33
0.33
-2.67
-3.67
-5.0
-2.67
1.0
-1.0
0.33
-1.0
-6.0
-3.33
0.0
0.0
-6.0
-7.0
-4.33
-3.67
-2.67
-3.67
1.33
6.67
-3.33
-4.33
-2.67
-1.33
0.67
-3.67
0.0
-5.0
-2.0
-9.0
-10.0
-8.67
-1.67
-9.33
-6.67
-3.0
-0.33
-8.67
-6.0
-6.33
-10.0
-1.33
-12.0
-5.0
-3.67
-1.0
0.0
-8.0
-6.0
1.67
-7.0
-7.67
2.33
-0.67
1.0
1.0
-3.67
2.67
-2.67
2.33
6.67
15.33
10.33
19.67
22.33
45.67
45.33
34.0
38.33
24.67
23.33
21.0
8.33
2.0
0.67
6.0
-4.0
1.67
0.33
1.67
-4.33
-6.67
-3.0
-5.33
-3.67
-0.33
-1.0
0.67
-1.67
-6.67
-9.67
-9.67
-1.0
-4.67
-7.33
-2.0
-7.67
-4.0
-0.33
-6.33
5.67
-1.0
-5.33
-11.0
-12.33
-10.0
2.33
-7.33
-4.67
3.33
-2.0
-4.0
-7.0
-8.0
-4.0
-4.67
-7.67
3.67
1.0
-0.33
0.67
-7.67
-5.67
-4.67
-12.33
-2.33
-10.67
-12.67
-1.0
-5.67
0.67
-10.0
-17.33
-18.0
-9.0
-10.0
-3.67
4.67
-6.67
-9.33
-6.67
-5.0
-10.33
3.33
-3.67
-11.67
-10.0
2.67
-5.33
-6.0
-0.67
-6.0
-7.67
-2.0
-18.33
-7.33
-5.0
-1.0
-6.33
-1.0
-5.67
0.67
-2.33
-2.0
-7.67
-6.33
-9.33
-3.67
-1.67
1.0
4.33
-2.33
9.33
9.0
8.67
18.33
8.67
14.0
9.33
15.33
12.33
9.67
-1.0
10.0
9.33
3.0
10.67
-1.67
-4.0
-1.0
14.67
-6.33
3.67
-2.0
2.0
-4.67
-5.67
6.0
-0.33
7.0
-8.33
-10.33
4.67
3.67
-5.33
2.33
12.67
-5.67
6.33
6.33
8.33
-2.33
7.33
-3.0
7.0
-1.33
3.33
1.67
-7.0
8.67
-4.67
7.33
-1.33
1.0
2.33
2.33
5.67
1.33
1.67
7.33
3.33
-2.67
-2.67
1.67
3.67
-1.33
7.0
-2.0
3.67
13.0
6.0
2.33
1.33
3.0
8.33
5.33
1.33
17.0
6.33
-2.33
11.0
7.67
-3.0
11.33
5.67
0.67
-1.0
3.67
-3.0
6.0
9.33
-1.67
0.0
2.33
2.0
-0.33
2.33
9.33
-2.67
-2.33
11.67
3.33
7.0
3.0
-2.0
0.33
9.0
7.0
6.0
-4.0
10.0
7.67
2.67
12.33
3.67
-1.33
3.0
0.33
1.33
6.33
4.67
6.67
3.0
6.0
2.67
19.33
12.33
9.33
7.0
10.67
18.67
9.67
25.0
14.67
22.67
25.0
28.0
4.67
32.33
26.33
58.67
61.33
97.0
90.67
96.67
119.0
140.67
149.0
136.33
151.67
131.0
138.33
103.67
96.0
79.67
51.33
39.0
41.33
18.67
18.0
13.0
2.67
5.33
10.0
11.33
7.67
7.67
1.33
0.67
-2.0
12.67
-7.33
8.33
7.0
5.67
8.0
17.33
-2.67
7.33
3.0
11.67
13.0
-1.33
12.0
9.33
10.67
5.33
12.0
-0.33
8.67
0.67
9.67
6.67
9.0
0.67
12.0
18.33
-1.33
-6.67
1.0
3.33
11.0
5.0
-0.67
-6.0
19.33
13.67
14.67
-0.33
-5.67
6.67
0.0
6.67
-0.33
12.0
5.0
5.67
9.33
1.0
2.0
11.33
20.0
4.0
9.33
3.0
11.33
4.0
18.67
0.67
5.33
-8.67
-1.0
7.33
1.33
6.0
-4.33
1.0
0.67
10.67
11.0
28.67
17.0
21.67
18.0
18.33
7.0
29.0
39.33
31.33
27.0
18.0
44.33
18.33
20.33
25.67
28.33
18.0
23.67
6.67
25.33
23.33
22.67
-4.0
6.67
1.67
6.0
23.0
20.67
8.33
10.0
6.0
9.67
3.33
-1.67
12.0
15.67
-3.67
11.0
4.0
-1.0
6.33
2.67
-5.33
-1.0
-11.67
8.33
11.33
-2.0
6.67
5.33
-1.0
14.0
-3.0
9.33
1.33
-4.67
4.33
10.33
14.33
18.0
-6.33
1.0
-1.0
4.67
13.67
5.33
-12.33
-0.67
10.67
5.0
4.33
6.0
15.0
4.33
-2.0
-4.67
-0.67
3.33
9.67
-2.33
0.33
1.33
-1.67
-3.67
6.0
0.33
-4.0
-0.33
-4.0
-7.0
9.67
2.33
6.33
6.67
5.33
1.67
2.67
7.0
5.33
-3.33
-3.0
0.33
6.33
12.67
9.33
-3.33
-0.33
-4.0
0.67
3.0
3.33
-3.33
-0.67
-4.67
-4.67
-3.33
11.0
-0.33
1.0
-0.33
9.33
7.33
-5.33
-0.67
6.67
6.33
6.0
11.33
-6.67
11.67
2.33
1.67
8.67
2.0
0.0
-9.33
5.33
5.67
-0.67
-1.67
0.33
0.33
4.0
-3.67
0.67
4.33
-5.33
-1.67
3.33
0.33
-0.67
-5.33
-4.67
-2.33
8.33
-4.67
2.67
-9.67
1.0
1.67
2.67
6.0
13.33
-2.67
1.33
-4.33
4.0
0.33
5.67
10.0
-3.0
4.33
-3.67
-10.33
9.0
-5.67
0.0
-1.67
-1.0
-1.67
4.0
-6.33
-4.33
-6.33
5.0
0.67
4.67
1.0
-2.67
-3.67
0.0
1.0
3.33
-4.67
8.0
2.67
-2.0
0.0
-3.0
-3.0
-1.67
5.0
4.0
0.67
2.0
6.67
8.67
2.67
-2.0
1.67
-2.33
-2.0
4.33
-0.67
0.67
3.0
-7.33
-1.0
6.0
5.33
7.33
3.67
-2.33
-2.0
-1.33
-3.67
1.0
5.67
2.0
3.67
2.33
-5.0
-1.67
-2.33
3.33
0.33
-2.0
3.0
1.0
6.33
4.33
-1.67
0.67
-0.33
-3.33
-1.0
5.67
-0.67
5.33
-2.67
4.33
1.0
0.67
-1.33
0.0
-1.33
-3.0
1.33
-5.0
-4.33
5.0
3.67
5.0
3.33
6.0
2.67
-4.67
3.67
0.67
-1.0
-2.0
3.0
-1.67
0.33
6.33