File: EDX Back Ups and Old Files/Spectra copy 3.3.23/Samples/High pH BL 60C 4d/10.75.txt
0.0
-4.0
22.67
79.67
71.67
69.67
100.33
-50.33
49.67
-0.33
35.0
23.33
14.33
7.33
-2.33
-2.0
-1.0
-3.0
0.33
-1.0
1.33
0.67
-1.0
1.0
0.0
-0.33
-0.33
1.0
0.0
-0.33
1.0
1.0
-1.0
1.0
0.0
-0.33
0.0
1.33
-0.33
-1.0
-0.33
0.0
-1.0
-0.33
-0.67
-0.33
0.67
-0.33
0.0
1.0
0.67
-0.33
-2.67
0.33
0.33
1.67
-0.33
-2.33
2.67
-2.33
-0.33
1.67
1.0
-2.0
0.67
1.67
4.67
4.33
1.33
2.0
-1.0
2.33
6.67
9.0
10.0
2.0
-4.67
-3.67
9.67
1.67
3.67
-2.33
4.0
3.33
-3.0
-2.67
7.33
5.67
4.0
4.0
-6.67
0.67
-10.67
2.0
0.67
4.0
-4.67
-3.0
-4.33
-1.33
-1.67
2.33
2.0
7.33
-3.67
1.67
3.67
-0.67
4.33
-0.67
1.33
12.33
4.67
0.33
-6.33
3.0
-5.67
7.0
-3.0
6.33
-3.67
1.0
3.33
-0.33
-1.33
-2.0
0.67
-4.33
1.33
1.67
2.33
-3.0
5.33
-0.33
3.0
1.33
6.0
-4.0
4.67
4.67
2.0
2.33
0.33
2.67
4.67
-2.67
1.33
4.0
0.33
4.67
4.33
-0.67
-1.33
3.0
-1.0
4.0
7.0
1.67
-0.67
0.67
8.33
5.0
1.67
8.0
0.67
7.33
2.33
6.67
-4.67
1.67
-2.0
1.33
0.67
8.33
4.33
-0.67
-0.33
-0.67
3.33
6.0
0.0
-3.0
-5.0
1.67
0.33
5.33
1.33
10.33
5.0
1.33
3.0
-3.0
9.33
-1.33
0.67
-0.33
2.33
-2.0
2.0
0.67
-4.67
-1.0
-0.67
2.67
-3.33
-0.33
0.33
2.33
11.33
-2.0
-3.0
1.67
0.67
2.67
-0.67
3.67
0.33
4.33
7.33
0.67
-4.0
-3.0
-2.33
-5.0
2.33
4.33
-0.33
0.0
-1.0
2.67
4.67
1.0
1.67
2.33
-3.67
1.0
-1.67
4.0
2.33
-1.0
4.0
4.0
-1.33
-3.67
-2.0
-2.67
2.0
-4.67
-2.0
-0.67
6.33
-3.0
3.33
-2.33
-2.0
-0.67
0.33
-1.33
-2.67
-1.67
3.67
2.67
-3.0
1.0
5.33
-0.33
-3.67
4.33
0.67
1.33
-2.33
-1.67
0.33
1.33
0.33
3.33
0.33
3.67
-1.67
0.0
3.33
-5.67
0.67
4.33
1.67
0.67
4.0
-4.67
0.33
2.67
-0.67
2.33
-1.33
-1.67
4.0
0.67
-4.0
-0.67
3.0
2.67
4.0
4.33
-2.67
4.67
0.33
-2.0
3.67
0.0
0.33
-1.0
0.33
-3.67
4.0
5.33
2.33
-1.67
-5.0
-3.67
-1.33
-2.0
-4.0
-3.33
2.33
2.67
-5.33
-2.67
0.0
-3.67
0.33
0.0
-3.0
-0.67
-3.33
-3.0
-0.33
-2.33
-1.67
2.67
2.33
2.33
1.33
-1.67
-4.0
-0.67
-2.0
-1.0
-0.67
-7.0
-3.0
-5.33
-2.0
-4.0
-4.0
-1.0
-3.33
-5.67
3.33
-7.67
1.33
-1.33
0.67
-3.33
5.33
0.67
-0.33
-1.67
-5.0
-2.0
-5.0
-8.0
-7.0
-6.67
0.33
-2.33
-2.67
-3.0
-0.33
5.33
-6.0
-12.33
-10.0
-2.33
-8.0
-5.0
-8.67
-1.0
-3.0
-2.0
-4.0
3.67
0.0
-7.67
-5.67
-0.67
2.0
-3.0
-0.67
-1.33
-1.67
0.33
-0.33
0.33
13.33
15.67
18.33
17.67
33.33
36.0
24.33
15.67
11.33
15.0
10.33
-2.0
0.67
-6.0
-4.0
-5.33
2.33
-4.33
-0.33
-0.67
-9.0
-3.33
-11.67
0.67
-2.0
-2.33
-2.67
-0.67
-3.67
4.33
0.0
-5.67
-6.33
-10.0
-3.67
1.0
2.67
-2.33
-4.33
-9.0
-3.33
-8.0
-6.33
-7.0
-1.67
-15.33
-5.67
2.33
0.0
-2.0
-5.0
-3.0
-5.0
-5.67
-10.67
-4.33
0.0
1.67
3.67
-2.67
-1.67
-7.67
-3.33
-3.33
-12.67
-8.67
-3.0
-5.67
-6.33
-3.0
-6.33
-10.0
0.0
5.0
-5.67
-10.33
-2.67
-6.33
-8.67
-9.0
-13.33
-5.67
-3.67
-14.67
-15.0
-7.33
-3.33
-4.0
2.33
-1.0
-5.67
-4.0
-16.33
-7.33
-2.0
3.0
-2.33
-9.0
-7.67
0.67
-12.33
-8.0
-6.67
-5.33
1.67
1.33
-2.67
-1.0
1.33
-4.33
11.33
14.0
19.67
18.33
25.67
17.0
5.33
25.33
21.33
21.67
17.0
-8.0
19.33
3.0
12.67
-0.67
1.0
2.0
0.67
-5.33
-1.33
8.0
-2.0
6.33
-9.67
4.0
8.67
7.0
-3.33
-2.33
1.67
-0.33
2.67
-2.67
5.67
-3.67
6.33
6.33
6.33
1.67
-0.67
0.0
1.0
-4.33
2.33
2.67
-6.0
7.67
1.33
1.33
-0.33
5.0
-4.67
8.33
4.67
1.33
3.67
6.33
9.33
-3.67
17.33
15.67
-0.33
12.67
6.0
3.0
5.67
3.0
-3.0
6.33
-6.67
1.0
13.33
7.33
4.33
2.0
-0.67
0.67
8.0
14.67
9.0
-9.67
3.67
6.67
10.0
4.67
-5.0
6.0
3.33
-1.67
11.0
6.33
14.0
2.67
1.33
7.33
6.33
10.67
6.67
1.33
-2.0
2.0
-6.0
1.33
9.0
2.0
13.0
10.0
9.0
-2.33
-6.33
4.33
3.67
1.67
3.0
-3.67
6.33
-3.67
11.67
6.67
7.0
16.0
9.67
13.33
4.33
11.33
11.0
9.67
6.67
5.67
15.0
16.67
33.67
18.0
22.0
40.67
33.33
49.33
44.67
53.33
67.0
77.67
120.67
126.0
114.67
139.0
154.33
133.67
127.0
148.33
116.67
102.0
90.67
72.33
39.0
15.33
13.67
8.0
3.0
12.67
5.33
10.0
9.33
10.67
21.67
20.33
9.67
3.0
1.67
10.67
7.33
11.0
1.67
7.0
12.33
1.33
12.33
15.0
8.67
4.0
5.67
11.0
8.33
6.67
1.33
2.0
10.67
20.67
16.67
5.67
8.67
14.0
6.67
12.0
18.33
4.67
-2.67
4.0
4.33
1.0
11.0
5.33
13.0
15.33
12.67
4.67
-3.33
-3.67
-5.33
0.0
10.67
1.67
10.0
0.0
12.67
8.33
12.0
8.0
-0.67
7.0
10.0
7.33
10.0
10.33
4.0
7.67
-1.33
7.33
-0.67
-1.0
7.33
1.33
7.0
-1.33
2.0
-1.33
14.67
7.0
22.67
12.0
22.67
15.0
8.33
14.0
29.0
22.33
19.33
16.0
40.0
27.33
16.33
12.33
37.67
13.33
20.0
17.67
10.67
3.33
7.33
2.67
6.0
2.67
10.67
-5.0
11.0
5.67
12.33
11.0
12.0
4.67
0.33
3.33
2.0
5.67
12.33
16.0
17.0
-2.0
8.33
0.67
4.67
1.0
12.33
7.33
13.33
6.0
2.67
13.33
9.0
13.0
5.0
9.33
18.33
-10.67
-6.67
3.33
3.33
9.0
-14.33
11.0
6.0
4.67
5.67
12.33
-11.33
5.33
-4.33
6.0
2.33
7.0
-3.0
-5.67
-5.0
8.33
3.33
5.33
7.67
-2.33
4.33
-2.67
0.33
0.33
-3.0
4.33
5.0
-3.33
-1.0
3.0
6.67
-1.67
1.33
3.67
-0.67
6.67
-4.33
-8.0
0.33
-1.33
1.0
11.33
-2.67
-0.33
-1.67
-5.33
-4.33
-5.0
-6.33
2.0
6.33
10.67
-0.67
15.33
0.33
0.67
1.0
2.67
1.0
-5.33
9.33
4.33
3.67
-8.67
10.67
10.33
4.0
0.33
11.33
2.67
4.33
-2.33
-4.33
0.0
2.0
-3.33
2.33
3.67
-1.67
1.33
-0.67
12.33
-4.0
0.33
2.67
0.33
1.67
-1.67
2.33
-3.67
7.33
1.67
4.33
-2.33
1.33
0.33
-2.33
-3.67
-5.0
3.67
4.67
-1.0
4.33
9.33
-2.67
-5.33
-8.0
3.33
2.67
-6.0
0.0
6.33
-2.67
-7.33
3.0
-1.67
1.0
2.33
-2.0
-3.67
-2.0
-9.33
8.67
-0.33
-6.0
-0.33
6.67
1.0
-3.67
4.33
2.0
0.0
0.33
-5.67
5.0
1.67
2.0
4.0
2.0
13.0
-1.67
2.0
-1.0
-2.33
6.0
11.67
-0.33
4.67
0.0
1.67
-1.33
-3.0
2.33
3.33
-0.33
1.0
-5.33
-5.0
3.0
-0.67
1.33
2.67
0.67
-1.0
-0.33
2.33
-2.0
3.67
3.0
11.67
6.33
-6.0
-2.67
-3.33
-2.67
-1.67
2.0
7.0
-2.0
5.33
1.33
1.33
1.67
-5.33
-1.33
-5.0
-1.33
1.33
-0.67
-1.67
5.33
-4.0
-6.33
-0.33
-1.0
2.67
-1.0
-0.67
-2.0
1.67
-1.0
0.67
3.0
4.33
-2.0
5.67
0.33
-1.33
4.67
-1.0
-2.0
1.0
-0.67
1.33
-0.67