File: EDX Back Ups and Old Files/Spectra copy 3.3.23/Samples/High pH BL 60C 4d/11.5.txt
0.0
-11.0
11.67
-101.33
-65.33
-10.33
-64.67
-53.33
-4.33
8.67
7.0
4.33
-7.67
23.33
0.67
-4.0
3.0
3.0
0.33
2.0
-0.67
0.67
-1.0
0.0
0.0
-0.33
-0.33
0.0
0.0
0.67
1.0
0.0
-1.0
1.0
0.0
0.67
-1.0
-0.67
-0.33
-1.0
-0.33
1.0
0.0
-0.33
-0.67
-0.33
0.67
-0.33
1.0
0.0
-0.33
-1.33
-0.67
-1.67
4.33
1.67
-2.33
0.67
2.67
-0.33
-1.33
4.67
-1.0
1.0
-1.33
1.67
1.67
1.33
0.33
0.0
-1.0
1.33
5.67
3.0
3.0
2.0
-6.67
-8.67
5.67
-3.33
0.67
-0.33
-2.0
4.33
3.0
-4.67
-1.67
3.67
2.0
-2.0
-6.67
-0.33
1.33
-1.0
-0.33
-2.0
0.33
-4.0
5.67
4.67
-3.67
-0.67
4.0
-1.67
1.33
-0.33
4.67
2.33
4.33
0.33
0.33
8.33
-0.33
1.33
2.67
-1.0
3.33
1.0
-4.0
2.33
2.33
-2.0
4.33
1.67
-6.33
-3.0
0.67
0.67
0.33
1.67
6.33
0.0
3.33
-2.33
10.0
-2.67
-1.0
-4.0
7.67
1.67
-2.0
3.33
0.33
3.67
-0.33
-4.67
0.33
6.0
3.33
-0.33
7.33
-1.67
2.67
12.0
2.0
2.0
2.0
3.67
-4.67
-0.33
5.33
11.0
0.67
0.0
-4.33
11.33
1.33
2.67
-3.67
1.67
-5.0
-0.67
-7.33
-4.67
7.33
0.33
-3.33
-2.67
1.33
0.0
-4.0
1.0
-1.0
-0.33
1.33
4.33
0.33
0.33
0.0
3.33
4.0
-4.0
2.33
-5.33
-0.33
5.67
-3.67
0.0
-2.0
-0.33
-1.67
2.0
6.33
3.67
-4.33
-6.33
5.33
7.33
4.33
1.0
-4.0
1.67
-1.33
5.67
2.33
-2.33
-1.67
8.33
1.33
2.67
0.0
0.0
1.67
-2.0
0.33
-3.67
0.67
1.0
10.0
6.67
3.67
8.0
1.67
-0.67
-3.67
-2.0
-1.67
-3.0
-3.67
3.0
-3.0
-3.0
-1.33
-1.67
2.0
-1.67
0.0
1.33
-3.0
-0.67
1.33
-4.0
0.33
-4.33
1.0
0.33
-1.67
0.67
1.33
0.33
-2.33
3.67
-2.0
1.0
-0.67
0.67
-2.67
-1.67
2.67
-2.67
-5.33
-2.67
2.33
6.33
-4.67
5.33
-2.67
-2.33
-0.67
-3.0
-2.67
-2.67
-3.33
0.33
0.67
3.67
0.0
-4.67
-3.67
-3.33
0.33
1.33
-0.33
-3.67
-4.0
-4.33
-3.0
0.33
-7.0
6.67
1.0
1.33
-2.67
-1.33
-0.67
0.0
2.67
-1.0
-4.67
-2.0
1.33
0.33
-2.0
-2.67
-1.67
-1.67
2.0
0.33
-6.33
-2.0
2.0
-2.33
-4.67
-4.33
-5.33
1.33
-1.0
-1.67
-4.67
-4.0
-2.0
-4.67
-4.33
-3.0
0.67
0.67
0.33
-0.33
-2.67
0.33
-3.67
-4.67
-5.0
-3.67
-3.0
0.0
-2.67
-2.0
1.0
-2.33
-2.0
0.0
-4.0
-4.0
-4.33
-4.67
-5.67
-1.67
-2.67
1.67
-5.33
-2.33
-1.67
-2.33
-3.33
-5.67
-4.0
-9.0
-5.0
-11.0
-10.0
-4.67
1.33
-9.33
-3.67
-3.0
-2.33
-6.67
0.0
-10.33
-6.0
1.67
-1.0
-8.0
-2.67
6.0
4.0
-5.0
2.0
0.67
-3.0
-10.67
-4.67
-3.67
-8.0
4.0
-7.67
-0.33
-7.67
4.33
-4.33
2.33
1.33
2.67
11.33
7.67
8.33
16.0
8.33
0.67
4.33
5.0
8.33
0.0
-2.33
-6.0
-1.0
-6.33
-1.67
-9.33
-8.33
1.33
-7.0
-1.33
-4.67
-4.33
-4.0
-1.33
1.33
0.33
-5.67
-1.67
0.0
0.33
-5.33
-7.0
-11.67
-13.0
-3.33
-3.33
0.67
-6.0
-7.33
-13.0
-3.33
-4.0
4.33
-4.33
-2.67
2.33
-3.0
-6.0
5.0
-5.0
-2.0
-4.67
-8.67
-4.33
-2.0
-3.33
1.67
-6.67
-2.67
-10.67
-12.33
-3.33
-8.67
-6.67
-8.0
-7.67
-9.33
-6.0
-7.33
-10.0
-8.0
-4.0
-7.67
-6.33
-3.67
-2.33
-2.67
-9.0
4.67
-8.67
-8.67
-7.67
-6.0
2.67
-4.33
-6.0
-7.67
-5.0
-14.67
0.0
-11.33
-5.33
-2.0
-3.0
-0.33
-12.0
-6.67
-4.33
-11.33
-1.0
-4.67
-6.33
6.67
-5.67
4.33
2.0
2.33
3.67
3.33
9.0
19.67
31.33
29.67
30.0
34.33
12.33
34.33
10.67
8.0
7.0
14.33
14.0
0.67
2.33
-5.0
0.0
8.67
-2.33
1.67
-2.0
2.0
7.33
1.33
3.0
7.67
2.0
0.67
-8.33
5.67
-2.33
-8.33
0.33
4.67
-3.67
1.33
1.33
6.33
3.67
-0.67
0.0
-2.0
0.67
2.33
-6.33
3.0
4.67
1.33
5.33
-1.33
1.0
-0.67
4.33
-1.33
0.33
3.67
10.33
-2.67
5.33
3.33
8.67
13.67
1.67
-4.0
9.0
6.67
1.0
-5.0
4.33
9.33
-1.0
2.33
-0.67
5.33
2.0
5.33
22.67
10.0
0.67
6.0
12.33
5.67
-1.33
7.0
-2.33
6.0
12.0
2.33
2.33
7.0
-1.67
15.0
2.67
6.33
3.33
-2.67
8.67
15.67
1.33
-1.0
8.0
6.0
4.33
5.0
0.0
11.0
5.0
8.0
12.67
-3.33
8.33
2.67
5.67
6.0
3.33
4.33
5.33
5.67
7.67
6.0
14.0
3.67
9.33
10.33
9.33
-12.0
16.67
11.67
6.67
9.0
12.67
14.67
14.0
23.0
24.67
37.33
56.33
62.67
88.33
115.0
140.67
140.67
168.0
194.67
191.0
188.33
187.67
187.0
172.33
143.67
126.0
116.67
84.33
64.0
39.33
24.67
20.0
16.0
14.67
11.33
-2.0
16.33
12.67
10.67
14.33
4.67
7.0
13.67
4.67
12.33
6.0
15.67
7.0
3.33
5.33
15.33
12.0
-3.33
3.0
8.67
26.0
8.33
17.67
-3.67
8.0
5.67
-0.33
6.67
12.67
12.67
13.0
14.67
18.0
17.33
3.67
13.33
7.0
14.33
6.0
10.0
10.33
7.0
9.33
2.67
13.67
0.67
4.33
2.67
4.0
-1.33
15.67
10.0
7.0
13.67
10.33
3.0
6.0
3.33
12.0
-4.0
8.33
9.0
9.33
2.0
8.67
-7.33
-6.67
5.33
-3.0
5.33
10.33
1.0
-2.33
4.0
-6.33
5.67
-4.0
6.67
0.0
13.67
8.0
-2.67
-6.0
27.0
-2.67
20.33
3.0
18.0
20.33
9.33
16.33
14.67
11.33
32.0
0.67
-1.33
-3.67
3.33
6.67
1.0
0.67
1.67
-2.0
3.0
-2.33
14.33
15.0
3.0
-1.33
7.33
2.33
9.0
9.67
10.33
7.0
1.0
0.0
2.33
7.67
11.67
2.0
2.33
-5.67
-0.67
0.0
9.67
10.33
15.0
18.0
2.0
7.33
25.33
-9.67
16.33
13.33
10.33
11.0
2.67
7.0
0.0
6.67
3.67
0.33
4.67
6.33
5.67
14.0
8.33
2.0
4.0
6.33
-3.0
-7.67
6.33
-4.67
6.67
11.67
12.33
0.33
7.33
-3.67
-2.0
5.33
1.0
-8.33
-6.0
11.0
11.67
-0.67
1.33
1.67
-7.67
-2.33
8.67
5.0
-2.67
14.67
-6.0
1.33
5.33
-6.33
-2.67
-3.33
-1.33
3.0
-3.33
-5.0
-0.67
8.67
7.33
3.33
-8.67
7.67
1.0
8.67
12.0
2.67
8.33
6.33
5.67
1.33
4.67
10.33
31.0
10.33
6.33
5.67
1.33
1.67
4.67
1.0
0.0
6.67
-2.67
-7.33
-3.67
1.33
8.33
-0.67
9.0
2.33
-4.33
0.33
5.67
0.33
1.33
-3.67
-1.67
-3.33
-9.67
4.67
-2.67
4.33
-3.33
1.33
-4.0
-9.33
-4.33
0.0
6.33
-8.67
-5.67
7.67
-5.0
5.33
-2.33
-3.0
-9.0
-0.67
2.33
0.67
4.0
-2.67
5.0
-3.67
-5.0
3.33
4.0
-5.33
-1.33
3.67
-4.0
0.67
2.67
-3.0
-3.67
5.33
9.0
4.0
-1.67
-8.67
2.0
5.67
0.0
4.0
4.0
8.0
3.33
1.0
3.0
1.67
7.0
4.67
1.67
4.67
1.0
3.67
-0.33
2.0
6.33
1.33
4.67
4.0
4.67
-3.0
7.0
0.33
2.33
4.67
2.67
-4.0
-5.33
-1.67
-4.0
0.67
3.0
-0.33
2.33
-1.0
4.33
4.67
1.33
1.33
3.0
5.0
-4.0
3.33
0.33
-2.67
6.67
2.67
-1.33
-2.0
2.67
-0.67
2.33
6.33
1.33
7.0
-0.33
3.67
2.0
-0.33
1.0
5.33
-4.0
-0.33
2.0
2.67
-1.0
0.33
9.0
-1.33
-4.67
-2.33
1.67
0.0
6.0
5.0
-0.67
4.33
1.33