File: EDX Back Ups and Old Files/Spectra copy 3.3.23/Samples/High pH BL 60C 4d/11.75.txt
0.0
22.0
65.67
7.67
8.67
26.67
56.33
-18.33
3.67
-3.33
10.0
9.33
28.33
10.33
-2.33
-1.0
12.0
-1.0
5.33
0.0
1.33
0.67
-1.0
0.0
1.0
0.67
-0.33
0.0
1.0
-0.33
0.0
0.0
-1.0
2.0
1.0
-0.33
1.0
1.33
-0.33
-1.0
-0.33
0.0
0.0
-0.33
1.33
-0.33
0.67
-0.33
1.0
-1.0
0.67
0.67
0.33
-1.67
-0.67
0.67
0.67
-1.33
1.67
1.67
-1.33
1.67
-2.0
0.0
-0.33
5.67
3.67
0.33
-0.67
-2.0
5.0
4.33
-1.33
-4.0
3.0
4.0
-2.67
-1.67
7.67
0.67
-5.33
-1.33
0.0
0.33
3.0
-2.67
2.33
1.67
9.0
1.0
-6.67
2.67
-4.67
4.0
0.67
1.0
0.33
4.0
-0.33
-1.33
-0.67
2.33
7.0
3.33
1.33
-2.33
-2.33
4.33
4.33
-6.67
4.33
5.33
-3.33
6.33
2.67
1.0
4.33
3.0
-2.0
7.33
0.33
-1.0
2.33
3.67
2.67
2.0
-0.33
-3.33
3.33
2.67
2.33
1.0
2.33
4.67
7.0
3.33
6.0
-7.0
1.67
4.67
-1.0
7.33
2.33
4.67
1.67
-4.67
2.33
-2.0
0.33
2.67
1.33
1.33
-1.33
8.0
4.0
1.0
11.0
8.67
0.33
-1.33
2.33
0.0
1.67
8.0
-3.33
5.33
10.33
3.67
4.33
0.67
-2.0
-1.67
-3.33
-2.67
0.33
5.33
-8.33
3.33
6.33
0.0
5.0
-4.0
-2.0
-2.33
8.33
4.33
-0.67
0.33
2.0
0.33
4.0
0.0
6.33
-1.33
3.67
-2.33
0.33
-7.0
1.0
-3.33
-5.67
-3.0
-2.67
-1.33
-4.33
2.67
2.33
1.33
2.33
-3.0
-1.0
-6.33
-1.33
-2.33
-1.67
0.67
-1.67
1.33
6.33
4.67
-1.0
0.0
-3.33
1.0
0.33
-0.67
-2.33
-3.0
1.0
0.67
5.67
4.0
-1.33
2.33
4.33
4.0
0.33
0.0
2.33
-1.0
4.0
1.0
-4.33
-1.67
-2.0
-3.67
0.0
-0.67
2.0
0.33
3.33
-2.0
0.33
-2.33
1.0
-2.67
-0.67
-0.33
1.33
1.33
-3.33
-1.33
3.0
2.0
1.33
3.67
0.33
1.33
-0.33
-0.67
-3.33
1.33
-0.67
2.33
-1.67
3.33
-0.67
4.67
-2.67
0.0
-2.67
-4.67
0.67
3.33
1.67
3.67
-2.0
5.33
4.33
3.67
-3.67
-1.67
-1.33
-0.67
-2.0
2.67
2.0
-1.67
-4.0
5.67
1.0
0.33
0.33
-0.33
-1.67
0.0
4.67
2.0
0.33
-3.0
6.33
1.33
-3.0
-2.67
-2.67
-2.67
1.0
0.33
-3.33
0.0
-4.0
-1.33
-0.67
-3.33
-5.33
3.33
-4.0
-0.67
-1.67
-2.0
-2.0
-2.67
-3.33
-1.0
-2.33
-5.33
-1.67
-1.33
-1.67
4.33
-7.67
-6.67
3.0
-4.67
0.0
-4.0
1.33
2.0
-2.0
-1.33
0.0
-2.0
-2.0
-5.0
1.67
1.33
-3.67
-5.67
-2.67
-1.33
-2.33
1.67
-3.67
-4.33
-3.33
-2.67
-5.0
-8.0
-2.0
-9.0
-6.0
-5.67
0.33
-9.33
-4.67
-5.0
-3.33
6.33
-6.0
-12.33
-6.0
-2.33
-7.0
-8.0
-5.67
2.0
-4.0
-11.0
-7.0
-5.33
-1.0
-7.67
-4.67
-5.67
-10.0
-5.0
-0.67
-7.33
-7.67
-3.67
-2.33
-0.67
-2.67
0.67
0.33
2.67
11.33
4.0
14.33
8.67
-3.67
-3.0
-6.67
-1.0
-8.33
-10.0
-12.0
-5.33
-3.67
-4.33
-5.33
-10.67
0.0
-5.33
-5.67
5.67
-6.0
-3.33
-2.67
-0.67
-2.67
-5.67
1.0
2.33
-8.33
-9.0
-4.67
-8.0
2.67
0.67
-5.33
-6.0
-9.33
-10.0
-6.33
-8.0
-2.67
-9.33
-9.67
3.33
-5.0
1.0
2.0
3.0
3.0
-7.67
-5.67
-5.33
-7.0
-3.33
-2.33
3.33
-1.67
-5.67
-5.33
-1.33
-6.67
-9.67
-10.0
-5.67
-12.33
-9.0
-18.33
-3.0
-6.0
-1.0
-7.67
-3.33
-8.67
-6.33
-3.67
-10.0
-1.33
2.33
-2.67
-8.67
-10.0
-1.33
-2.33
-10.0
-3.67
2.0
-9.67
-2.0
-10.33
2.67
-7.0
3.0
-10.33
-7.0
-9.67
-0.33
-8.33
-9.0
-11.67
0.67
8.67
-8.67
-1.67
1.0
11.33
3.67
14.33
19.0
24.67
24.33
24.67
17.0
16.33
32.33
51.33
25.67
11.0
12.0
13.33
17.0
11.67
-6.67
5.0
9.0
6.67
-5.33
3.67
4.0
2.0
2.33
-8.67
5.0
1.67
10.0
2.67
-5.33
4.67
7.67
0.67
4.33
3.67
1.33
-0.67
-2.67
3.33
-4.33
-2.67
4.0
3.0
-3.33
4.33
1.67
-5.0
11.67
1.33
-0.67
5.67
-4.0
0.33
3.33
7.67
6.33
13.67
0.33
-5.67
6.33
8.33
-2.33
9.67
-4.33
5.0
5.0
2.67
7.0
8.0
3.33
4.33
1.0
6.33
8.33
9.33
10.0
0.33
10.67
11.0
17.67
1.0
6.33
9.67
4.67
0.0
0.67
-2.0
5.0
2.33
1.33
6.0
3.33
9.0
3.67
1.33
5.33
2.33
3.67
9.67
9.33
-5.0
3.0
-2.0
2.33
12.0
14.0
7.0
2.0
9.0
-2.33
-2.33
8.33
2.67
1.67
6.0
0.33
9.33
8.33
11.67
2.67
4.0
9.0
7.67
4.33
6.33
9.33
15.0
5.67
3.67
19.67
17.0
26.67
20.67
13.0
24.0
24.67
39.33
59.33
80.67
98.33
97.0
154.67
164.67
176.0
214.67
199.0
195.33
200.67
217.0
208.33
155.67
136.0
110.67
101.33
69.0
29.33
32.67
22.0
6.0
13.67
2.33
9.0
25.33
9.67
12.67
1.33
12.67
7.0
3.67
4.67
8.33
-6.0
5.67
5.0
12.33
2.33
4.33
14.0
-7.33
-3.0
-3.33
5.0
-1.67
5.67
6.33
4.0
6.67
-0.33
6.67
5.67
12.67
8.0
21.67
4.0
20.33
5.67
5.33
-2.0
5.33
7.0
11.0
7.33
3.0
2.33
9.67
15.67
-5.33
-1.67
-2.33
9.0
-0.33
17.67
8.0
10.0
-0.33
11.33
8.0
8.0
2.33
8.0
-6.0
11.33
-5.0
14.33
5.0
10.67
-1.33
4.33
-1.67
3.0
1.33
-0.67
3.0
9.67
-9.0
-9.33
8.67
2.0
13.67
-7.0
10.67
10.0
13.33
-16.0
18.0
2.33
8.33
4.0
4.0
12.33
6.33
1.33
3.67
5.33
-1.0
1.67
-1.33
-1.67
15.33
-1.33
0.0
5.67
13.67
5.0
11.0
-3.33
16.33
7.0
8.0
6.67
14.33
-10.67
-2.0
4.67
10.33
5.0
8.0
-11.0
2.33
1.67
7.67
9.0
-2.67
5.33
18.33
-11.0
2.67
22.33
16.0
20.0
-1.0
10.33
2.33
5.33
2.33
12.33
9.33
17.0
-11.33
3.0
2.0
2.67
-1.33
2.33
-7.33
0.33
4.67
12.0
8.33
-3.0
3.0
4.33
-6.0
-4.67
8.33
4.33
14.67
8.67
1.33
0.33
3.33
-5.67
-2.0
3.33
8.0
-0.33
-2.0
-1.0
-5.33
2.33
11.33
0.67
5.33
-5.33
14.67
-3.0
16.33
8.67
0.0
2.33
-4.67
-3.33
5.33
-2.33
-3.33
-7.0
-6.33
-1.0
6.33
-6.33
-0.67
1.33
12.33
8.67
7.0
7.67
4.0
5.67
6.33
5.33
9.67
7.33
5.67
-1.67
-4.0
5.33
3.33
11.67
10.33
9.67
12.67
3.0
6.0
0.67
0.33
4.67
-2.67
1.33
5.33
7.33
3.0
-4.67
-1.33
-2.67
1.67
3.33
1.33
1.33
2.33
2.67
-7.67
4.67
4.33
2.33
-1.33
-5.67
-2.0
4.67
3.67
-6.0
5.33
-8.67
4.33
-5.33
-4.0
0.33
-2.33
-4.0
4.0
-0.67
-4.67
-9.33
-5.0
-2.67
5.0
-1.67
-7.0
-2.67
-1.0
-7.33
-4.33
-3.33
-2.0
-3.33
-5.33
-3.0
-2.67
8.33
2.0
9.0
-4.67
-5.67
-3.0
1.67
0.0
6.0
4.0
-1.0
-0.67
8.0
11.0
12.67
3.0
8.67
3.67
6.67
2.0
6.67
-4.33
2.0
0.33
0.33
-4.33
0.0
-4.33
1.0
9.0
-1.67
1.33
0.67
5.67
-7.0
0.67
1.33
-11.0
1.67
0.0
-1.33
2.33
-5.0
-0.67
-1.33
-3.67
-2.67
6.0
3.0
-1.0
1.33
-2.67
0.33
-0.33
2.67
2.67
-2.0
-5.33
4.33
6.33
-2.67
1.33
0.0
0.67
-1.33
1.0
-0.33
7.0
4.33
-1.0
3.67
-1.0
1.67
0.0
-0.67
3.0
2.67
-0.67
-1.33
3.67
-7.0
-2.0
1.0
-0.67
-4.67
-0.67