File: EDX Back Ups and Old Files/Spectra copy 3.3.23/Samples/High pH BL 60C 4d/12.25.txt
0.0
-35.0
11.67
12.67
113.67
20.67
27.33
-20.33
55.67
85.67
-16.0
-0.67
2.33
3.33
4.67
3.0
-1.0
3.0
-1.67
0.0
2.33
-0.33
-1.0
0.0
1.0
0.67
-0.33
1.0
0.0
0.67
1.0
0.0
-1.0
0.0
0.0
0.67
-1.0
-0.67
0.67
-1.0
-0.33
0.0
0.0
0.67
0.33
-1.33
1.67
0.67
0.0
0.0
0.67
-0.33
-1.67
0.33
-0.67
0.67
-1.33
1.67
1.67
-0.33
1.67
-0.33
1.0
0.0
3.67
0.67
1.67
4.33
-0.67
5.0
-2.0
-3.67
-1.33
-1.0
8.0
6.0
-3.67
-3.67
4.67
1.67
-0.33
-0.33
2.0
3.33
2.0
-3.67
1.33
-3.33
-1.0
2.0
-8.67
1.67
2.33
-5.0
2.67
0.0
-3.67
-2.0
-1.33
-0.33
-2.67
0.33
1.0
-4.67
4.33
-6.33
1.67
8.33
-0.67
4.33
-1.67
1.33
-0.33
2.33
0.67
7.0
0.33
2.0
6.0
-2.67
-0.67
0.0
2.33
0.67
-5.33
3.0
0.67
-5.33
-1.67
-0.33
9.33
2.0
8.33
-1.33
2.0
1.33
0.0
-2.0
4.67
-4.33
5.0
0.33
9.33
3.67
-3.33
-6.67
4.33
5.0
-4.67
-0.33
5.33
-1.67
4.67
4.0
3.0
-2.0
6.0
2.67
-7.67
2.67
1.33
-3.0
-4.33
0.0
-4.33
0.33
1.33
-0.33
-5.67
-2.33
4.0
-3.67
-0.33
-0.67
0.33
2.33
-0.33
0.33
-0.67
4.0
1.0
-2.0
-6.0
5.67
1.33
3.33
3.33
14.33
5.0
-0.67
4.0
2.0
0.33
0.67
-0.33
1.67
-0.67
-2.0
0.0
-2.33
-3.67
0.0
-0.67
5.67
-0.33
-2.33
1.33
3.33
10.33
2.0
-4.0
-3.33
0.67
1.67
0.33
-1.33
1.33
2.33
7.33
-3.33
-4.0
3.0
3.67
-6.0
0.33
-1.67
1.67
1.0
0.0
3.67
2.67
3.0
1.67
5.33
0.33
-2.0
-3.67
3.0
-0.67
-2.0
-3.0
3.0
0.67
0.33
1.0
-3.67
0.0
-0.67
5.0
0.33
1.33
-2.0
0.33
-2.33
4.0
-2.67
2.33
1.67
8.33
0.33
-2.33
0.67
4.0
3.0
-0.67
1.67
-2.67
1.33
-0.33
0.33
-1.33
-4.67
1.33
2.33
5.33
5.33
0.33
1.67
3.33
-2.0
0.33
-5.67
-5.33
2.33
4.67
0.67
3.0
-5.67
-1.67
1.67
1.33
-0.67
1.67
-4.67
6.0
-2.33
-5.0
-2.67
-3.0
2.67
-1.0
1.33
-2.67
-3.33
1.33
-3.0
6.67
0.0
2.33
-1.0
0.33
-0.67
-1.0
3.33
-1.67
-1.67
0.0
-1.67
-6.33
-5.0
1.0
-0.33
-0.67
-1.33
-2.33
-1.67
5.0
-3.67
-3.67
2.0
-1.0
-3.67
-4.33
-5.0
-1.33
-2.33
1.33
-1.33
-2.67
1.33
-2.67
-1.67
-4.0
-3.67
-4.0
3.0
-5.67
-1.0
-2.0
-2.33
-6.0
-3.0
2.0
-5.0
-3.33
-3.67
-4.67
-7.67
-1.67
-4.33
-7.33
-1.33
-3.67
-1.33
-4.33
-3.67
-1.0
-7.0
1.0
-7.0
-11.0
-8.67
-3.67
0.67
-4.67
-7.0
-3.33
-3.67
2.0
-11.33
-7.0
-5.33
-9.0
-9.0
-1.67
-5.0
-7.0
-10.0
-4.0
0.67
-3.0
-7.67
-2.67
-5.67
-7.0
-5.0
1.33
-6.33
-9.67
0.33
-2.33
1.33
1.33
1.67
7.33
17.67
9.33
18.0
13.33
9.67
14.33
9.0
12.33
1.0
-1.33
-9.0
-4.0
-8.33
-3.67
-3.33
-3.33
-7.67
-7.0
-5.33
-8.67
0.67
-3.0
-4.33
-9.67
-4.67
-8.67
-7.67
-1.0
-4.67
-4.33
-5.0
-10.67
-9.0
-0.33
-3.33
-0.33
-10.0
-10.33
-16.0
-11.33
-3.0
-2.67
-12.33
-8.67
-4.67
-5.0
-1.0
-8.0
-3.0
-2.0
-4.67
-10.67
-3.33
0.0
-6.33
-5.33
-8.67
-13.67
-3.67
-3.33
-8.33
-7.67
-13.67
-5.0
-3.67
-7.33
-9.0
-4.33
-13.0
-4.0
-7.0
-10.67
-7.33
2.33
-0.33
-11.67
-4.0
-4.33
-4.67
-6.67
-18.67
-6.0
-0.33
-9.33
-7.0
-10.67
-3.0
-10.67
-3.0
-13.33
0.67
-5.0
-8.0
-12.33
-11.0
-3.67
-6.33
-9.33
-3.0
0.33
-14.33
-1.33
-6.67
-10.67
-1.0
-0.67
4.67
5.33
9.0
8.67
14.33
8.67
13.0
0.33
8.33
12.33
-0.33
-7.0
2.0
3.33
-1.0
1.67
-7.67
-3.0
-5.0
-5.33
-10.33
1.67
-6.0
-5.0
-0.67
0.33
2.0
2.67
4.0
-6.33
-4.33
-7.33
-6.33
9.67
-1.67
-7.33
2.33
1.33
-5.67
0.33
-4.33
0.33
0.0
-5.0
-12.33
0.33
-1.33
-8.0
6.67
-2.67
-1.67
-7.33
-5.0
1.33
0.33
2.67
-6.67
5.67
5.33
-0.67
-0.67
7.33
-2.33
5.67
-3.33
6.0
-5.0
-2.33
-3.0
-5.0
-1.67
-0.67
4.0
-2.67
-5.67
0.33
2.0
5.33
-1.33
-2.0
11.67
10.0
-4.67
-3.33
-8.33
-3.0
-0.33
-3.0
6.0
3.33
-5.67
17.0
-2.67
11.0
-3.33
7.33
0.33
7.33
-1.33
3.67
4.33
-7.0
-2.0
-13.0
5.33
4.0
1.0
-5.0
5.0
10.0
-2.33
-8.33
-2.67
-3.33
3.67
2.0
-2.67
8.33
10.33
-3.33
6.67
1.0
-1.0
2.67
1.33
-6.67
-0.67
-5.0
4.67
-2.33
5.67
6.0
-1.33
4.67
6.0
13.0
11.67
34.33
45.33
39.67
85.33
82.0
84.67
118.67
141.0
127.67
124.0
138.33
143.67
132.0
111.33
117.67
132.0
84.67
70.33
66.0
18.33
27.67
14.0
13.0
16.67
3.33
-5.0
6.33
8.67
2.67
9.33
-7.33
1.0
5.67
-3.33
4.33
3.0
-7.33
-1.0
6.33
-4.67
6.33
8.0
-5.33
3.0
-3.33
4.0
7.33
4.67
-0.67
-3.0
-0.33
4.67
4.67
0.67
10.67
4.0
3.67
12.0
4.33
-5.33
7.33
5.0
0.33
3.0
12.0
-8.67
4.0
6.33
-0.33
-0.33
-8.33
-10.67
5.67
3.0
-2.33
-2.33
-2.0
2.0
-1.33
12.33
-3.0
-4.0
3.33
1.0
-3.0
6.33
3.0
6.33
6.0
-8.33
-5.33
8.33
-6.67
0.0
-3.67
1.33
-4.0
-2.33
-11.0
-6.33
3.67
0.0
13.67
-7.0
-2.33
8.0
0.33
-4.0
-6.0
-0.67
7.33
5.0
9.0
3.33
-5.67
15.33
7.67
3.33
4.0
9.67
-3.33
3.33
-5.67
9.67
6.0
0.67
8.67
-3.0
-5.0
13.67
11.33
6.0
-3.0
1.67
2.33
4.33
-2.0
7.67
4.33
2.0
3.0
9.0
1.33
2.67
1.67
-11.0
6.33
7.33
7.33
-2.0
17.67
19.33
10.0
5.0
1.0
-3.67
17.33
-19.67
4.33
5.33
-1.67
13.0
-15.33
-10.0
-7.0
-5.33
12.67
-5.67
-14.33
5.33
0.67
4.0
7.33
-3.0
2.0
7.33
-4.0
10.33
3.33
-11.67
2.67
-5.33
-7.67
-3.67
5.33
5.33
-5.0
3.33
-5.0
1.67
-4.0
-4.0
2.67
6.33
5.33
-1.33
6.33
-4.33
0.67
-9.0
-7.67
-2.33
-1.0
-6.67
-6.67
-3.33
6.33
2.67
2.67
3.0
-2.33
2.0
4.33
1.67
12.33
5.33
-1.67
2.67
7.0
1.67
2.0
-1.33
16.33
2.33
1.67
1.33
8.67
15.33
12.0
5.33
5.33
9.67
-1.67
6.67
1.67
1.0
2.0
0.67
1.33
0.67
-7.67
-2.67
3.33
3.33
5.0
1.33
-0.33
7.33
5.67
-1.67
5.33
-3.67
7.33
0.67
-1.67
-0.33
-0.67
-0.67
-2.33
-7.67
8.0
0.67
-6.33
3.0
8.33
-3.67
7.33
-3.33
-1.0
1.33
-1.33
-3.0
2.0
7.33
2.33
-1.33
5.0
8.33
2.0
-4.67
-8.0
-2.67
-3.0
-5.33
-2.33
-1.33
-6.0
-3.33
3.67
2.0
-2.67
2.33
-3.0
7.0
-1.67
-11.67
-2.0
-1.33
-2.0
2.0
-3.0
-5.0
-3.67
-1.0
8.0
-0.33
-2.0
5.67
0.67
6.67
-3.0
7.67
-3.33
-1.0
8.33
-3.67
-7.33
-2.0
-1.33
-6.0
3.0
6.33
7.33
4.67
2.67
-4.0
-4.33
0.33
-3.0
4.67
-5.0
4.67
8.33
-3.0
-1.67
4.67
-1.67
-5.67
6.0
1.0
-6.0
3.33
2.33
-0.67
-3.33
-2.33
-0.33
-1.0
-4.33
1.33
9.33
2.33
3.33
3.0
-7.33
2.67
-3.0
-1.33
-1.0
-0.67
-8.0
-1.33
7.0
2.67
6.0
-0.67
6.0
0.67
-2.67
2.67
2.67
-1.0
2.0
5.0
3.33
2.33
-0.67