File: EDX Back Ups and Old Files/Spectra copy 3.3.23/Samples/High pH BL 60C 4d/6.0.txt
0.0
29.0
27.67
6.67
77.67
54.67
45.33
-63.33
44.67
39.67
14.0
-5.67
-12.67
21.33
6.67
-4.0
5.0
2.0
-0.67
-1.0
-0.67
0.67
0.0
0.0
1.0
-0.33
1.67
1.0
0.0
-0.33
0.0
1.0
-1.0
0.0
1.0
0.67
-1.0
-0.67
1.67
1.0
-0.33
1.0
-1.0
-0.33
0.33
-1.33
0.67
-0.33
1.0
1.0
0.67
2.67
-2.67
-1.67
0.33
-0.33
0.67
-0.33
1.67
-3.33
0.67
0.67
-2.0
-3.0
-3.33
3.67
-0.33
7.33
1.33
-3.0
3.0
2.33
0.67
1.0
2.0
6.0
0.33
0.33
8.67
-0.33
3.67
0.67
-3.0
1.33
2.0
-2.67
4.33
4.67
5.0
-5.0
-4.67
7.67
-0.67
6.0
9.67
11.0
3.33
-4.0
0.67
-0.33
-0.67
2.33
9.0
1.33
3.33
7.67
3.67
3.33
-3.67
3.33
-1.67
10.33
8.67
3.33
1.67
3.0
2.33
8.0
1.0
7.33
-1.67
-1.0
1.33
1.67
-11.33
0.0
3.67
-0.33
2.33
2.67
3.33
1.0
7.33
-1.33
4.0
4.33
4.0
2.0
-0.33
-0.33
3.0
0.33
5.33
3.67
4.67
-3.67
3.33
3.0
-3.67
-1.33
1.33
0.33
4.67
0.0
5.0
2.0
3.0
6.67
7.33
3.67
7.33
2.0
3.67
1.0
-3.33
0.33
3.33
3.67
-0.67
-2.33
1.0
7.33
-3.33
1.33
1.33
-3.67
-4.33
8.33
1.33
3.0
-1.0
0.0
-3.0
4.67
6.33
8.33
4.33
5.33
2.0
-3.67
4.0
-3.0
9.33
7.67
3.67
1.67
2.33
-1.0
5.0
1.67
-2.67
2.0
-0.67
1.67
-2.33
2.67
4.33
2.33
6.33
-3.0
1.0
-1.33
0.67
4.67
-1.67
0.67
5.33
3.33
-1.67
2.67
-6.0
9.0
-0.33
0.0
12.33
1.33
-1.33
1.0
7.0
0.67
5.67
1.0
4.67
-0.67
0.33
-1.0
1.33
0.0
1.33
2.0
3.0
3.0
2.67
-3.67
-1.0
4.33
9.0
-2.67
-3.0
3.33
2.33
1.0
-1.67
-2.33
-1.0
-0.67
-0.67
-1.33
1.33
1.33
-0.33
-0.33
4.0
1.0
4.33
0.67
-5.67
3.33
2.67
-1.67
-5.33
1.33
-1.67
0.33
-0.67
1.33
-2.67
-2.33
1.33
8.0
2.33
0.33
2.67
1.33
-0.33
2.67
4.0
-2.67
-1.67
2.67
2.33
-2.67
-1.33
-0.67
3.0
0.67
-4.0
-1.67
-4.0
2.67
3.0
-1.67
1.33
2.67
0.33
-2.0
3.67
1.0
3.33
-1.0
5.33
-0.67
-3.0
-1.67
1.33
0.33
0.0
2.33
-0.33
3.0
-1.0
0.67
5.33
-4.33
-6.33
-3.67
2.0
-4.67
-4.67
0.0
-5.0
-6.67
-0.33
-7.0
-1.33
-3.33
-4.67
0.67
0.33
1.33
-4.67
-3.67
2.0
-3.67
-3.0
0.0
0.33
-2.0
-2.0
-0.33
4.0
1.0
2.0
-7.0
4.67
0.33
2.33
-4.67
-0.67
0.67
-5.33
-3.33
3.33
-5.33
1.67
-3.67
-1.0
-7.0
-1.0
-3.0
-9.0
-7.67
2.33
-8.33
7.33
-3.0
-4.33
-2.67
-2.0
-9.33
-6.0
-4.33
-8.0
-5.0
-4.67
1.0
-5.0
-7.0
-8.0
4.67
-6.0
-6.67
-4.67
-1.67
-10.0
-8.0
-6.67
-3.33
0.33
-0.67
4.67
8.33
6.33
12.67
15.33
13.67
25.33
15.0
39.33
17.67
5.33
12.0
6.33
-2.0
2.67
-8.0
0.0
-3.33
-4.67
-5.33
-0.33
-9.67
-4.0
-4.33
3.33
-0.33
-6.0
-7.33
-2.67
-3.67
-7.67
-8.67
1.0
-4.67
-3.33
-8.0
-13.67
-5.0
2.67
0.67
-8.33
-9.0
-9.33
-5.0
-12.33
-9.0
-0.67
-9.33
-8.67
-3.67
-5.0
-8.0
-7.0
-2.0
0.0
-5.67
-5.67
2.67
4.0
-1.33
-4.33
-6.67
1.33
-11.67
0.67
-6.33
-1.67
-10.67
-4.0
-2.67
-16.33
-6.0
-16.33
-17.0
-9.0
0.0
-5.67
-5.33
3.33
-9.33
-7.67
4.0
-11.33
-3.67
-7.67
-7.67
-12.0
-0.33
-1.33
-13.0
-0.67
9.0
-10.67
-4.0
-17.33
-8.33
-6.0
1.0
-13.33
-7.0
-1.67
-0.33
-1.33
0.0
-10.67
-2.33
-5.33
-4.67
-5.67
-1.0
7.33
-3.33
10.33
10.0
12.67
12.33
6.67
11.0
10.33
14.33
14.33
4.67
5.0
6.0
4.33
-3.0
5.67
-6.67
-7.0
-3.0
8.67
3.67
-1.33
-7.0
5.0
-5.67
6.33
-7.0
4.67
-5.0
3.67
-9.33
-4.33
-0.33
3.67
3.33
8.67
-2.67
-1.67
10.33
0.33
0.67
3.33
6.0
4.0
2.67
-2.67
2.67
4.0
3.67
4.33
-4.67
9.67
-5.0
-7.67
7.33
5.67
2.33
8.67
11.33
5.33
-2.67
-3.67
9.67
15.67
-2.33
19.0
4.0
6.67
0.0
-3.0
12.33
1.33
-2.0
8.33
0.33
3.33
21.0
-6.67
8.67
5.0
13.67
5.0
13.33
5.67
4.67
1.0
3.67
3.0
14.0
11.33
2.33
14.0
7.33
12.0
5.67
2.33
6.33
12.33
10.67
9.67
1.33
1.0
9.0
2.0
-0.67
5.0
-2.0
8.0
1.0
2.0
6.67
-3.33
1.33
5.67
6.67
7.0
1.33
14.33
-1.67
3.67
5.67
12.0
9.0
7.67
15.33
11.33
1.33
-2.0
9.67
11.67
14.67
13.0
10.67
12.67
20.0
23.0
8.67
28.33
30.33
23.67
41.33
43.0
68.67
70.67
56.0
70.67
81.0
71.33
93.67
76.0
70.33
53.67
52.0
43.67
35.33
37.0
26.33
38.67
12.0
16.0
8.67
2.33
6.0
2.33
11.67
9.67
8.33
4.67
-2.0
5.67
4.67
3.33
8.0
6.67
13.0
9.33
5.33
-2.67
3.0
5.67
-6.0
10.67
22.0
6.33
12.67
2.33
0.0
9.67
11.67
8.67
4.67
5.67
11.0
10.67
3.0
6.33
-3.33
8.33
9.0
-5.67
3.0
7.0
-17.67
5.0
13.33
11.67
15.67
3.67
10.33
-3.33
9.0
4.67
13.67
2.0
7.0
9.67
15.33
11.0
8.0
10.33
16.0
17.0
19.33
2.0
6.33
-2.0
11.67
0.67
9.33
5.33
-7.0
18.33
8.33
7.0
3.67
1.0
2.67
16.67
7.0
9.67
9.0
26.67
22.0
6.33
7.0
29.0
30.33
21.33
17.0
25.0
35.33
18.33
28.33
26.67
29.33
26.0
17.67
19.67
20.33
12.33
19.67
-1.0
2.67
22.67
11.0
11.0
9.67
3.33
12.0
6.0
0.67
2.33
-1.67
-1.0
3.67
8.33
21.0
15.0
3.0
-2.67
17.67
7.67
-3.0
-1.67
5.33
20.33
4.0
-0.33
14.33
4.0
4.0
8.0
7.33
9.33
-0.67
8.33
11.33
15.33
5.0
5.67
-2.0
-3.0
-3.33
10.67
10.33
-5.33
5.33
12.67
-5.0
15.33
8.0
8.0
6.33
-10.0
-1.67
8.33
-4.67
0.67
14.67
13.33
4.33
10.33
-1.67
2.0
0.33
14.0
3.67
4.0
-3.0
-0.33
0.33
3.33
4.67
13.33
1.67
2.67
8.0
0.33
-4.33
7.0
-0.67
12.33
-1.33
5.33
5.67
4.67
-4.0
-2.33
6.0
7.33
0.67
1.33
3.33
2.33
0.67
12.0
10.67
3.0
7.67
1.33
13.33
2.67
3.33
9.67
1.33
0.0
7.33
-1.67
-2.33
-2.67
7.67
-2.33
4.0
3.0
0.67
-2.67
-1.33
4.33
13.33
6.33
10.33
7.0
1.33
3.67
5.33
5.67
5.33
6.33
1.33
4.33
-1.33
-8.67
0.67
11.33
1.33
2.67
-5.67
-1.0
5.67
5.67
7.0
5.33
0.33
6.33
-2.33
4.0
4.33
-1.33
5.0
5.0
-0.67
-1.67
-4.33
5.0
3.33
10.0
5.33
-4.0
-3.67
8.0
-7.33
3.67
0.67
3.0
-0.33
-1.33
5.0
3.33
-1.67
-3.0
0.0
-0.67
-5.67
0.0
8.67
1.0
2.0
2.0
-4.0
-5.67
2.0
0.0
1.67
9.0
5.67
-3.33
4.67
-1.0
2.67
1.67
2.0
6.33
7.33
3.67
3.0
-7.33
-6.0
4.0
1.33
6.33
9.67
3.67
-4.0
-0.33
3.33
-2.0
3.67
-1.0
2.67
3.33
0.0
-4.67
-1.33
2.33
2.33
6.0
5.0
-2.0
3.33
4.33
2.33
14.67
3.67
4.67
8.0
0.67
3.33
10.33
8.33
6.33
1.0
0.67
0.67
-1.0
1.67
-2.0
3.33
-2.0
3.67
0.0
3.67
2.0
-2.67
4.0
5.67
-1.67
-1.33
6.67
4.0
-3.0
1.0
2.33
2.33
-3.67