File: EDX Back Ups and Old Files/Spectra copy 3.3.23/Samples/High pH BL 60C 4d/8.5.txt
0.0
24.0
42.67
40.67
88.67
104.67
-25.67
-31.33
-62.33
-20.33
6.0
7.33
-1.67
10.33
0.67
-3.0
1.0
-1.0
3.33
1.0
2.33
0.67
-1.0
0.0
0.0
-0.33
-0.33
0.0
0.0
0.67
0.0
2.0
0.0
0.0
0.0
-0.33
0.0
0.33
1.67
-1.0
-0.33
1.0
0.0
-0.33
0.33
-1.33
-0.33
-0.33
0.0
1.0
-0.33
-1.33
-1.67
-0.67
0.33
2.67
1.67
1.67
0.67
5.67
4.67
-1.33
1.0
1.0
2.67
3.67
3.67
5.33
-1.67
3.0
2.0
2.33
4.67
-2.0
2.0
8.0
0.33
-3.67
5.67
-3.33
-1.33
0.67
6.0
6.33
-4.0
1.33
0.33
3.67
-1.0
2.0
-4.67
-0.33
-1.67
2.0
5.67
8.0
-1.67
-8.0
1.67
0.67
3.33
3.33
-1.0
-9.67
2.33
-3.33
1.67
3.33
6.33
-3.67
4.33
0.33
9.67
3.33
1.67
11.0
1.33
5.0
-4.0
6.33
1.33
9.0
3.33
5.67
-3.33
0.0
-0.33
2.67
-0.67
-0.33
2.33
5.0
-1.67
1.67
1.0
-4.67
0.0
-1.0
7.67
-0.33
-1.0
4.33
-5.67
-0.33
2.67
0.33
5.33
1.0
-0.67
-3.33
1.33
0.33
7.67
11.0
8.0
1.0
3.0
1.67
1.33
-1.33
3.33
-1.0
0.67
-1.0
2.67
10.33
6.33
4.67
2.33
4.67
2.0
1.33
-3.33
2.33
7.33
-1.67
-6.33
2.33
3.33
0.0
2.0
-1.0
-2.0
9.67
0.33
10.33
1.33
4.33
1.0
-0.67
8.0
4.0
4.33
-3.33
1.67
-2.33
4.33
-2.0
4.0
-2.33
-6.67
1.0
0.33
5.67
-5.33
-1.33
3.33
7.33
1.33
2.0
0.0
5.67
-2.33
-2.33
6.33
3.67
2.33
4.33
4.33
0.67
1.0
3.0
2.67
-1.0
-0.67
1.33
-0.33
1.0
0.0
-3.33
-0.33
2.0
-2.33
3.33
-1.67
3.0
2.33
2.0
-0.67
0.0
2.0
6.0
-0.33
4.33
1.0
-1.67
2.0
1.33
0.0
-2.67
2.33
0.0
-3.67
-3.33
2.0
-3.67
-4.67
2.67
-2.67
3.33
-1.33
-2.33
3.0
-3.0
6.33
0.67
-3.67
5.33
-0.33
-1.67
-1.33
0.33
1.33
-0.67
1.33
3.33
0.33
0.67
-3.67
-2.0
-0.67
-6.67
0.67
6.33
-1.33
2.67
4.0
6.33
3.33
0.67
-2.67
-1.67
-2.33
-5.67
4.0
-5.33
0.0
-4.67
-2.0
4.67
-1.0
-1.67
-2.67
-0.33
-1.67
-1.0
4.67
0.0
0.33
-2.0
-1.67
4.33
0.0
1.33
-3.67
3.33
-5.0
2.33
-3.33
1.0
-2.0
-3.33
2.33
-2.33
-6.33
-1.67
4.0
-2.67
-3.67
3.0
-1.0
3.33
-5.33
-2.0
-2.33
3.67
-1.67
-3.33
-1.67
-1.67
1.33
-3.67
-5.0
-0.67
-4.0
-3.0
-5.67
-1.0
-3.0
-5.33
-2.0
-2.0
-3.0
-5.0
-7.33
-4.67
-1.67
-4.67
-1.67
0.67
-3.33
-1.33
-1.67
-3.33
-3.33
-1.67
-1.0
-9.0
-2.0
-9.0
-7.0
-11.67
-3.67
-6.33
-3.67
-7.0
-2.33
-2.67
-7.0
-10.33
-6.0
-4.33
-7.0
-6.0
-2.67
-2.0
-4.0
-6.0
4.0
1.67
-7.0
-13.67
-5.67
-2.67
-5.0
2.0
1.33
1.67
-9.67
7.33
4.67
6.33
14.33
19.67
12.33
8.67
11.33
23.0
30.33
16.67
20.33
13.0
3.33
12.0
5.67
-5.0
-1.0
-2.33
5.33
-2.33
0.67
-2.67
-3.0
-10.33
-12.67
-3.33
-1.0
-8.33
-4.67
-1.67
-10.67
-8.67
-6.0
-2.67
-9.33
-5.0
1.33
-2.0
-4.33
-7.33
-3.33
-5.0
-3.33
-13.0
-12.33
-10.0
0.33
-6.33
-0.67
1.33
-7.0
5.0
2.0
-4.0
-3.0
-6.67
-5.67
-2.33
-5.0
-3.33
-0.33
-2.67
-4.67
-4.67
-8.33
-1.33
-8.67
-12.67
-8.0
-9.67
-4.33
-11.0
-14.33
-10.0
-7.0
-6.0
-6.67
-3.33
3.33
-11.33
-6.67
-7.0
-8.33
-7.67
-8.67
-10.67
-2.0
-3.33
-1.33
-12.0
-1.67
-2.0
-8.67
-4.0
-5.33
-5.33
-4.0
-8.0
-4.33
-2.0
1.33
-1.33
-8.33
-8.0
-12.67
-2.33
-1.33
-6.67
5.33
-5.0
0.33
0.67
-4.67
-1.0
5.67
17.33
4.67
15.0
12.33
1.33
28.33
16.67
6.0
0.0
5.33
3.0
7.67
2.33
5.0
13.0
0.67
-6.33
-2.33
4.0
-1.0
-8.67
-3.67
8.0
0.67
-4.0
2.67
-0.33
-1.33
-2.33
4.67
0.33
7.67
4.33
3.33
4.33
3.33
-1.33
2.33
3.0
1.0
-5.33
0.33
-2.33
-7.0
8.67
3.33
6.33
-2.33
2.0
2.33
6.33
0.67
1.33
2.67
0.33
-7.67
7.33
9.33
9.67
5.67
5.67
-2.0
10.0
1.67
6.0
-1.0
-4.67
-1.67
4.0
8.33
18.33
11.33
2.0
-1.67
5.67
8.0
3.67
2.0
-0.67
-0.33
-0.33
0.0
6.67
17.0
0.0
4.33
0.33
17.0
6.33
1.0
15.67
-0.67
3.33
9.33
-0.33
8.67
0.33
0.0
-1.0
11.0
-0.67
20.0
3.0
12.0
12.0
10.0
-1.33
-0.33
3.33
2.67
4.67
8.0
1.33
12.33
-2.67
0.67
-2.33
5.0
13.0
5.67
19.33
7.33
9.33
15.0
9.67
14.67
23.67
7.0
8.67
20.67
12.0
15.0
17.67
20.33
28.33
30.67
46.33
48.0
61.67
68.67
82.0
97.67
92.0
83.33
83.67
87.0
88.33
76.67
48.0
50.67
44.33
30.0
13.33
32.67
5.0
5.0
7.67
6.33
8.0
18.33
8.67
12.67
4.33
9.67
5.0
9.67
2.67
10.33
3.0
-1.33
14.0
9.33
-1.67
9.33
16.0
-7.33
1.0
3.67
6.0
4.33
5.67
9.33
1.0
1.67
9.67
13.67
11.67
2.67
5.0
8.67
9.0
11.33
1.67
17.33
9.0
19.33
1.0
10.0
-6.67
13.0
6.33
13.67
18.67
7.67
2.33
1.67
5.0
-1.33
15.67
11.0
7.0
-3.33
2.33
5.0
-7.0
6.33
5.0
-2.0
5.33
-3.0
10.33
-4.0
5.67
-0.33
12.33
-1.67
15.0
10.33
7.33
14.0
4.67
4.0
2.67
20.67
15.0
21.67
5.0
3.67
28.0
15.33
26.0
27.0
21.33
30.33
23.0
20.0
41.33
24.33
37.33
19.67
25.33
22.0
16.67
18.67
12.33
4.33
9.67
10.0
-7.33
16.67
8.0
5.0
16.67
1.33
-8.0
7.0
-2.33
0.33
-5.67
1.0
7.67
20.33
-3.0
0.0
1.0
-1.67
0.67
6.67
-3.0
-5.67
-10.67
17.33
14.0
18.67
13.33
16.0
22.0
3.0
19.33
1.33
-7.67
11.33
13.33
11.33
11.0
-5.33
-2.0
6.0
1.67
10.67
-0.67
-0.33
-2.67
1.67
14.0
9.33
10.0
4.0
-4.67
-7.0
9.33
4.33
5.33
3.67
8.67
4.33
1.33
4.33
-6.67
4.0
-6.67
3.0
-3.33
2.0
6.0
3.67
-0.67
-5.67
6.67
-9.67
-1.33
6.67
8.0
2.33
-1.33
2.0
16.33
-1.67
-0.33
13.33
10.67
-2.33
-2.0
-4.33
2.0
2.33
-12.33
8.33
-0.67
-0.67
4.67
9.0
2.67
-1.0
-9.33
4.33
5.33
-3.33
4.33
5.67
12.33
2.0
9.33
1.33
0.67
-1.67
0.67
1.67
1.0
3.0
-4.33
-5.67
4.67
-1.67
-0.67
0.33
6.33
-1.0
6.33
3.67
5.33
0.67
0.33
2.33
-3.67
6.33
3.67
-3.67
-4.33
7.33
7.33
-2.33
-3.67
0.0
4.67
-2.33
4.0
3.33
-2.67
4.33
-4.33
-3.0
2.33
-0.33
-6.0
-2.0
-1.67
3.33
-6.33
0.0
-3.67
5.0
-2.67
0.0
6.33
0.0
-1.33
2.67
0.67
-2.0
-1.33
0.67
9.0
-0.67
2.33
1.0
1.0
-2.67
4.33
-2.0
1.67
1.0
3.0
4.0
1.0
5.33
-1.0
4.0
4.67
8.0
5.67
7.67
6.67
5.0
6.67
0.67
-1.0
1.33
-5.67
2.67
3.0
1.67
-3.0
4.0
2.33
6.33
4.67
-1.33
7.0
-1.33
-1.67
-6.0
6.67
-2.0
1.67
6.33
3.0
-5.67
0.67
3.33
-1.67
6.0
6.0
1.0
1.33
3.33
-1.67
5.67
-1.33
5.67
0.0
-1.33
1.33
7.33
6.33
-0.67
1.0
2.67
4.67
-3.0
4.67
4.0
-1.67
-2.0
-3.33
1.0
7.67
-1.0
-2.67
7.0
1.67
-3.67
-0.33
-3.33
-2.0
1.0
3.0
0.33
4.33
1.33