File: EDX Back Ups and Old Files/Spectra copy 3.3.23/Samples/High pH SF 25C 4d/10.0.txt
0.0
18.0
11.0
-31.0
-48.67
-7.0
-20.33
-97.33
23.67
62.67
1.33
37.33
14.33
-23.33
2.67
4.33
-4.0
4.33
-0.33
0.67
1.0
1.33
-0.33
0.67
0.0
-0.67
-0.67
0.0
-1.0
-0.33
-0.33
0.0
0.0
0.0
-0.33
-0.33
0.0
-1.0
-0.67
1.0
1.0
-0.33
0.67
-0.33
-0.33
1.0
-0.67
-0.33
2.67
0.67
-1.0
0.0
1.33
0.0
-1.33
0.67
2.67
-1.33
-1.0
1.0
0.0
-3.0
3.67
2.67
0.33
1.33
6.33
-1.33
3.33
0.33
1.67
1.0
2.33
-3.67
5.67
3.67
13.67
6.0
-3.33
-3.0
8.33
-2.67
-1.0
-3.67
2.67
2.67
2.33
2.33
4.33
-5.67
-2.33
0.67
-0.67
-1.0
-1.0
-1.0
-0.33
7.33
6.67
3.67
-3.0
0.0
3.33
2.0
-0.67
-4.67
2.33
7.33
2.67
2.67
-5.67
5.0
7.33
0.0
6.0
4.0
-4.0
-2.33
1.0
-4.0
-3.0
3.0
4.67
2.0
-1.67
7.33
5.33
-6.33
-1.0
-5.33
-0.67
6.33
0.33
-3.33
-2.33
-4.33
2.67
7.0
-1.33
-2.33
0.33
-1.0
-0.67
-1.0
3.33
2.0
0.33
-7.0
11.67
2.67
-2.33
5.67
-1.0
1.0
-1.33
9.33
4.33
9.0
0.0
2.33
1.0
5.33
-4.0
0.67
0.67
-4.33
-2.0
-1.33
2.0
7.33
-5.67
8.33
-4.0
3.33
-0.67
0.0
4.33
-1.33
-2.67
1.67
3.33
-1.33
1.67
-3.67
4.33
1.33
1.67
5.67
4.0
2.33
-2.0
0.33
5.33
4.0
0.33
-2.33
-5.67
8.0
4.0
2.33
3.0
1.67
3.33
0.0
1.0
-1.33
3.33
4.67
5.33
3.67
7.0
8.33
0.67
-1.67
3.67
-1.0
-1.0
6.33
-5.33
-2.67
3.33
-4.33
-2.67
-2.0
0.33
2.33
1.0
-2.0
6.33
4.67
3.0
-1.67
0.33
0.67
4.67
-6.0
2.67
-4.0
0.67
2.0
5.67
-1.33
1.33
-3.0
0.33
-1.67
-2.67
4.0
0.67
1.67
0.33
-4.33
-5.67
2.0
0.33
6.0
-2.33
3.0
1.67
1.0
0.0
-3.67
0.0
1.33
3.67
1.0
2.67
-3.33
-0.33
-5.33
0.67
2.67
3.33
2.0
-0.33
2.0
-6.0
-2.33
-0.67
-1.67
-0.33
1.0
3.33
2.0
-1.0
-3.0
-1.0
-1.67
-0.33
-0.67
4.33
-1.0
-2.33
1.0
0.33
0.0
2.0
-3.0
-1.0
3.0
-5.33
-1.33
1.67
-2.0
4.33
-5.33
2.67
1.67
-4.33
-1.33
1.33
7.0
-2.0
-0.33
0.67
-3.0
-1.0
-1.0
-3.33
-3.0
0.67
1.33
-5.33
-4.33
-5.33
-2.0
-2.0
-3.67
3.33
-1.33
-1.33
-4.0
-6.67
4.33
-0.33
2.67
-3.33
-6.33
-6.67
-2.33
0.67
-5.0
-5.33
-5.0
2.33
0.33
1.33
-3.67
4.0
-6.67
-2.67
-1.67
-4.33
-4.33
-1.67
-2.0
1.67
-4.0
-4.33
-3.67
2.67
0.67
-8.33
0.0
-0.33
-2.0
-4.33
-5.67
-7.0
2.67
-0.67
-1.67
-10.33
-2.33
-5.0
-8.67
0.67
-6.0
-9.0
-3.33
5.0
-3.0
-11.0
-3.67
-1.0
-2.0
-3.67
-3.67
3.33
1.0
2.67
2.67
-1.67
-3.0
-1.33
7.33
5.0
-1.33
5.33
-0.67
9.33
13.33
16.0
18.33
20.0
29.0
32.67
38.33
27.0
33.33
20.67
21.67
10.0
1.67
7.0
0.33
-3.33
5.33
-9.33
-3.67
-0.33
1.33
5.33
-4.0
6.67
-6.67
-4.0
-7.0
8.67
-1.0
-1.67
-3.67
-6.0
0.0
-9.0
-7.33
6.67
-3.0
-10.67
-7.0
1.67
5.0
0.0
-3.33
8.0
-6.67
-2.67
-5.0
-8.0
-5.0
-0.67
-7.67
-0.33
-9.0
-1.33
-6.67
-2.0
-1.67
-2.67
-10.33
-4.67
4.33
0.0
-4.0
-1.67
-2.0
3.33
-9.0
-7.33
7.33
0.33
-7.0
-7.67
0.67
9.67
-3.0
5.0
-6.67
-0.33
-15.33
-6.67
-5.33
-0.67
3.33
-2.0
-7.33
-4.67
2.33
-1.0
7.67
-4.0
-5.67
0.67
-1.33
3.0
6.67
4.0
-10.67
0.33
-7.33
-3.0
2.67
6.67
-8.0
-1.0
-1.67
2.33
-1.33
-0.67
5.0
4.33
0.0
13.33
8.33
16.33
19.33
22.0
17.67
13.67
12.33
16.67
19.33
31.67
4.0
7.0
-3.0
-6.67
1.67
3.0
7.0
7.33
-0.67
12.0
-2.0
11.33
2.0
3.33
6.33
-11.67
-6.67
-3.0
0.33
-0.33
2.0
4.0
8.67
1.67
8.0
8.67
13.67
10.0
0.33
8.33
4.0
9.0
15.33
6.67
14.67
3.0
3.67
4.0
3.0
2.0
2.0
-2.67
8.67
3.67
-0.67
9.0
5.0
1.67
-2.67
6.67
10.67
10.33
17.33
10.33
2.33
3.67
6.0
9.67
5.33
14.67
9.33
0.0
12.0
1.0
11.67
11.33
-4.67
5.67
20.0
14.33
12.67
18.67
2.0
2.67
9.33
4.67
11.0
4.67
9.33
-2.0
4.33
10.33
-3.0
3.67
2.67
6.0
15.33
11.33
0.33
9.67
2.0
-1.33
18.0
-3.33
-4.33
0.67
13.33
1.67
3.33
8.67
13.33
-1.0
15.0
9.67
8.67
9.67
2.0
24.0
-0.67
13.0
17.0
5.67
20.33
10.0
11.33
9.67
13.67
22.0
23.33
11.67
27.0
22.67
28.0
31.0
18.33
23.33
44.0
35.33
53.33
80.0
62.67
94.33
128.0
127.0
104.33
118.67
124.33
118.0
109.33
99.67
95.33
66.33
65.33
34.67
58.0
-0.67
26.33
26.33
6.67
17.33
0.67
5.33
4.67
14.0
1.33
3.33
21.0
16.0
8.33
18.67
17.67
11.33
16.0
13.0
0.67
4.33
6.67
11.33
3.0
7.67
6.67
13.67
-2.33
3.33
5.33
12.33
1.33
23.0
4.67
5.67
19.67
9.33
20.0
13.33
6.0
20.67
-1.0
3.0
12.33
11.0
8.67
7.67
3.0
18.0
2.33
3.0
8.33
7.33
-0.33
9.0
5.0
6.33
1.0
7.67
-0.33
0.0
12.0
3.33
4.33
1.0
6.33
10.33
-0.67
4.33
-1.0
0.67
7.0
5.67
3.0
0.33
4.67
10.0
0.33
5.33
4.67
16.33
18.0
11.0
19.0
23.33
19.33
32.0
13.33
22.33
32.0
39.67
26.33
16.67
25.0
22.67
31.33
39.33
27.67
19.33
21.0
24.33
2.33
21.33
7.0
15.0
-2.67
-4.33
1.67
6.67
14.67
-0.67
8.33
21.67
0.0
10.67
4.33
-2.33
-6.33
-0.67
5.0
-3.0
-2.67
8.33
-1.67
8.67
-5.67
8.33
7.67
9.0
13.67
8.0
8.0
-1.33
16.67
5.33
9.0
9.0
6.33
3.67
9.0
-9.33
10.0
8.0
-0.67
0.0
3.33
8.33
-1.67
18.33
3.67
3.67
15.0
2.33
-5.33
13.67
3.0
0.67
-3.67
5.0
7.33
9.0
-8.0
-8.0
1.67
11.33
-6.0
12.33
4.67
4.33
9.33
1.0
0.33
4.67
-2.0
11.67
-11.0
3.33
2.33
4.0
2.67
1.33
4.33
-5.67
10.67
4.33
-1.0
14.33
-1.0
3.0
9.33
2.67
0.0
-0.67
2.33
-0.67
9.67
4.0
3.67
-0.67
6.67
5.67
7.0
2.33
5.67
6.0
2.67
7.33
6.0
5.67
-1.67
0.0
19.0
3.67
8.0
0.0
-13.33
1.33
6.33
1.0
9.67
0.67
-1.33
-8.67
1.67
0.0
2.33
-6.0
11.0
3.33
-2.33
2.67
3.0
-2.67
1.67
3.0
1.0
0.67
5.33
-0.67
-2.33
1.0
3.0
-1.67
5.0
3.33
5.0
6.33
3.33
1.0
0.0
0.33
2.67
0.67
0.33
-6.33
-0.33
-7.0
6.0
6.33
-2.67
0.0
-6.33
7.0
0.67
0.67
-0.33
3.0
8.0
0.0
2.33
1.0
2.0
4.0
6.67
6.67
3.0
2.0
5.0
4.0
4.67
-0.33
-0.67
-0.33
9.67
3.0
-0.67
-2.0
6.67
-5.33
-0.67
4.0
2.0
-1.0
5.67
-0.33
-1.0
2.0
4.0
1.0
0.0
1.67
-4.33
-3.33
-2.33
6.0
0.0
2.33
5.67
6.67
2.67
6.0
-2.0
1.67
-1.67
3.0
4.0
-3.33
-2.33
1.33
-7.67
2.0
1.67
2.33
1.67
0.0
-1.67
5.67
3.33
-2.67
-2.67
1.67
2.67
-1.67
-1.67
4.33
0.33
0.67
1.67
-1.0
1.33
1.67
-2.67
3.0
5.33
-0.33
0.33
-1.67
-2.67
1.0
2.33
-2.67
2.0
0.67
5.67
-1.0
1.67
4.0