File: EDX Back Ups and Old Files/Spectra copy 3.3.23/Samples/High pH SF 25C 4d/11.0.txt
0.0
22.0
102.0
-20.0
-40.67
-49.0
33.67
7.67
-79.33
7.67
-0.67
-1.67
30.33
-16.33
4.67
-4.67
-1.0
0.33
3.67
0.67
1.0
-0.67
-0.33
-0.33
0.0
0.33
0.33
0.0
-1.0
-0.33
-1.33
0.0
0.0
0.0
2.67
-0.33
0.0
0.0
0.33
0.0
0.0
-0.33
-0.33
-0.33
0.67
-1.0
-0.67
-1.33
0.67
0.67
1.0
2.0
-0.67
0.0
1.67
-0.33
-0.33
3.67
-4.0
-2.0
-3.0
-3.0
-1.33
-1.33
3.33
1.33
-1.67
-2.33
-3.67
-0.67
0.67
0.0
1.33
-3.67
4.67
-2.33
2.67
2.0
-2.33
2.0
11.33
-1.67
3.0
0.33
7.67
3.67
1.33
9.33
1.33
3.33
2.67
-0.33
1.33
4.0
4.0
4.0
-2.33
1.33
2.67
4.67
-1.0
5.0
5.33
5.0
-1.67
-0.67
-7.67
3.33
-4.33
-2.33
-6.67
4.0
1.33
-1.0
-1.0
0.0
5.0
-6.33
0.0
-11.0
4.0
4.0
2.67
2.0
2.33
3.33
8.33
-2.33
-4.0
1.67
3.33
10.33
-3.67
3.67
5.67
6.67
-0.33
-1.0
1.67
3.67
1.33
-4.0
-1.67
9.0
-1.67
3.0
2.33
0.0
9.67
8.67
-0.33
8.67
-3.0
-1.0
5.67
8.33
1.33
3.0
3.0
1.33
-3.0
3.33
4.0
4.67
-0.33
0.67
3.0
-0.33
2.0
4.33
-2.67
4.33
1.0
1.33
4.33
1.0
-3.67
6.67
-4.67
0.67
3.33
-5.33
2.67
-3.67
1.33
-1.67
-1.33
5.67
4.0
-4.67
-2.0
-2.67
-0.67
1.0
-0.67
-0.33
-2.67
3.0
2.0
-3.67
-3.0
-0.33
-3.67
0.0
5.0
1.67
2.33
-0.33
1.33
-1.33
4.0
-0.67
0.67
2.33
1.67
1.0
0.0
1.33
-3.33
-5.67
5.33
-3.33
-1.67
3.0
1.33
-1.67
-2.0
-4.0
-0.67
-0.33
-5.0
2.33
4.33
0.67
0.67
0.0
8.67
-1.0
-2.33
4.0
1.67
6.67
-1.67
-4.0
-0.67
0.33
2.33
-2.0
-0.33
-1.33
-0.67
-3.33
-5.67
-3.0
0.33
-3.0
-2.33
2.0
2.67
3.0
8.0
-2.67
-3.0
2.33
1.67
0.0
3.67
-0.33
-0.33
0.67
3.67
0.67
2.33
-2.0
0.67
1.0
-2.0
2.67
0.33
-2.67
-1.33
4.0
-2.67
-1.0
0.0
-3.0
4.0
1.33
-2.33
-5.67
-2.67
-1.0
-0.33
-1.0
-2.67
1.0
-2.0
2.0
-1.0
3.0
1.67
4.67
1.67
3.0
-0.67
2.67
-0.33
0.67
-0.33
0.67
-3.67
3.0
-2.0
-2.33
-2.33
-2.0
1.0
4.0
-0.33
-2.0
4.67
1.33
-4.33
1.67
1.67
-4.0
4.0
-4.67
5.33
0.67
-1.33
0.0
-1.67
-3.67
-4.33
-0.33
-0.33
-3.33
-0.67
-1.33
-3.33
-3.0
-4.33
-4.0
0.33
0.33
-3.67
-1.67
3.0
-5.67
-1.67
1.33
2.67
-1.33
-6.67
4.0
-2.33
-5.0
-1.33
-2.67
-3.33
0.67
-3.33
-3.0
-2.33
0.0
-1.33
-4.67
-7.0
-0.33
-0.67
-4.67
-3.33
-2.33
-5.0
-6.67
-6.33
-4.0
-6.0
0.67
3.0
-7.0
-5.0
-6.67
-7.0
-8.0
-7.67
-7.67
-2.67
-3.0
6.67
2.67
-5.67
-6.0
0.67
4.33
-6.0
0.67
-2.67
0.33
14.33
15.33
13.0
25.33
30.0
25.0
29.67
31.33
44.0
21.33
15.67
15.67
9.0
2.67
1.0
6.33
-5.33
-5.67
-7.33
1.33
-3.33
-2.67
8.33
2.0
-5.33
1.33
-7.0
6.0
1.67
0.0
1.33
3.33
-7.0
-9.0
0.0
-4.33
-4.33
-2.0
-8.67
-7.0
-0.33
2.0
-5.0
-11.33
5.0
-1.67
3.33
-9.0
5.0
1.0
-0.67
2.33
-4.33
-7.0
-4.33
-0.67
-7.0
0.33
-13.67
-11.33
5.33
-5.67
-5.0
-5.0
-0.67
0.0
-4.67
-2.0
0.67
2.33
4.33
0.0
-9.67
2.67
0.67
-1.0
9.0
-4.67
0.67
-12.33
-8.67
-6.33
1.33
-2.67
1.0
1.67
0.33
-0.67
-3.0
4.67
-5.0
-4.67
0.67
5.67
6.0
-2.33
1.0
-5.67
-8.67
-1.33
2.0
2.67
6.67
-6.0
-4.0
4.33
9.33
2.67
4.33
1.0
8.33
5.0
5.33
18.33
27.33
13.33
19.0
31.67
15.67
19.33
8.67
16.33
6.67
16.0
13.0
1.0
0.33
8.67
5.0
3.0
9.33
2.33
2.0
0.0
3.33
8.0
-2.67
6.33
-4.67
6.33
-1.0
5.33
10.67
0.0
9.0
-0.33
4.67
10.0
-1.33
1.67
5.0
7.33
5.33
13.0
7.0
13.33
13.67
-2.33
3.0
11.67
4.0
6.0
-2.0
5.0
-1.67
8.67
-2.33
5.33
3.0
14.0
-1.33
-5.67
6.67
2.67
9.33
-1.67
9.33
12.33
13.67
10.0
4.67
9.33
16.67
8.33
2.0
5.0
-7.0
4.67
17.33
-0.67
0.67
3.0
8.33
0.67
3.67
6.0
1.67
4.33
8.67
9.0
1.67
0.33
-3.0
4.33
6.33
-2.0
1.67
2.67
10.0
6.33
15.33
10.33
14.67
-1.0
3.67
12.0
8.67
-3.33
8.67
18.33
11.67
7.33
4.67
3.33
20.0
3.0
4.67
15.67
7.67
5.0
14.0
1.33
14.0
16.0
3.67
15.33
13.0
21.33
13.67
8.67
21.0
16.33
16.67
18.0
21.67
19.0
24.0
24.33
29.33
45.0
33.33
65.33
91.0
104.67
133.33
133.0
132.0
139.33
158.67
176.33
149.0
131.33
131.67
98.33
110.33
75.33
45.67
25.0
21.33
18.33
9.33
19.67
13.33
6.67
4.33
9.67
15.0
6.33
12.33
29.0
8.0
11.33
21.67
-2.33
16.33
3.0
7.0
3.67
14.33
-2.33
5.33
6.0
4.67
10.67
11.67
2.67
3.33
13.33
13.33
4.33
24.0
3.67
7.67
20.67
16.33
2.0
15.33
9.0
11.67
7.0
-1.0
13.33
14.0
22.67
9.67
-2.0
15.0
9.33
14.0
5.33
0.33
2.67
13.0
9.0
2.33
7.0
7.67
1.67
3.0
9.0
10.33
5.33
6.0
6.33
10.33
3.33
3.33
9.0
2.67
6.0
4.67
12.0
2.33
-1.33
-3.0
9.33
6.33
4.67
15.33
10.0
22.0
7.0
21.33
18.33
24.0
31.33
22.33
38.0
45.67
28.33
44.67
32.0
39.67
36.33
32.33
14.67
17.33
21.0
28.33
7.33
2.33
6.0
15.0
13.33
8.67
0.67
15.67
8.67
2.33
4.33
14.67
4.0
6.67
3.33
0.67
5.67
0.33
6.0
3.0
4.33
6.33
12.33
7.67
7.33
5.33
-0.33
7.0
9.67
2.0
20.0
6.67
18.67
0.33
9.0
16.0
8.33
-2.33
10.0
0.67
2.0
2.0
-0.67
1.0
0.33
14.33
1.33
1.33
7.67
-2.33
6.0
-1.67
-11.33
6.67
9.0
-5.33
-5.67
3.0
3.33
4.0
-2.0
-1.0
-2.33
0.33
-6.0
7.33
11.67
0.33
7.33
8.0
1.33
3.67
-1.0
2.67
-2.0
-7.67
14.33
4.0
-3.33
-2.67
1.33
-0.67
9.67
10.33
4.0
7.33
-8.0
3.0
2.33
-3.33
-6.0
-1.67
7.33
12.33
-3.33
1.0
7.67
1.33
6.67
6.67
5.0
7.33
2.67
6.0
20.67
-0.67
8.0
-0.33
8.33
6.0
-4.0
8.67
14.0
5.0
-6.33
3.33
5.33
0.0
-0.33
3.67
1.67
-7.67
7.67
-2.0
-0.67
-1.0
20.0
5.33
-3.33
0.67
-5.0
0.33
1.67
-8.0
3.0
4.67
4.33
-10.67
3.67
8.0
9.0
-5.67
9.0
-1.67
11.0
5.33
3.33
-5.0
6.0
-0.67
-4.33
5.67
0.33
0.67
2.67
4.0
4.0
4.33
7.33
-3.0
-1.33
1.0
-7.33
2.67
-1.33
4.0
3.0
-3.0
-1.67
-1.0
-2.0
-6.0
4.67
4.67
3.0
3.0
0.0
4.0
3.67
3.67
6.33
2.67
6.67
4.0
-0.67
3.0
3.67
4.67
7.33
2.0
5.0
6.0
-1.33
-1.33
-3.0
1.0
2.0
6.0
5.0
-0.33
3.67
-0.33
-3.33
1.0
-4.0
2.33
-1.33
3.67
-1.33
2.0
-6.0
2.67
0.33
-3.0
-7.0
-4.33
-3.33
-2.67
0.33
8.0
-1.33
-1.67
-0.33
4.0
8.33
-1.33
1.33
-2.67
1.33
6.67
-1.33
1.33
-5.67
-1.67
0.33
1.67
2.67
2.0
-0.67
0.67
-3.67
0.0
5.33
-0.33
4.33
5.33
-3.67
-3.0
10.33
-0.67
-3.0
4.67
3.67
1.0
0.67
2.0