File: EDX Back Ups and Old Files/Spectra copy 3.3.23/Samples/High pH SF 25C 4d/12.0.txt
0.0
50.0
79.0
40.0
-30.67
60.0
55.67
-15.33
9.67
0.67
13.33
2.33
14.33
-5.33
2.67
-0.67
-1.0
4.33
3.67
1.67
1.0
0.33
0.67
0.67
0.0
-0.67
-0.67
0.0
-1.0
0.67
-1.33
0.0
1.0
0.0
-0.33
-0.33
1.0
0.0
-0.67
0.0
1.0
0.67
-0.33
-0.33
0.67
0.0
-1.67
-1.33
-0.33
-0.33
-1.0
-1.0
-0.67
-1.0
0.67
-0.33
-0.33
0.67
0.0
-1.0
2.0
-3.0
0.67
1.67
-0.67
5.33
-3.67
-2.33
-3.67
1.33
0.67
-4.0
-2.67
-2.67
-0.33
4.67
4.67
3.0
-2.33
4.0
0.33
-2.67
5.0
-0.67
7.67
8.67
12.33
-2.67
3.33
0.33
2.67
-0.33
1.33
-3.0
-4.0
6.0
4.67
-1.67
5.67
4.67
-2.0
4.0
-1.67
-3.0
1.33
-3.67
-1.67
0.33
-6.33
-1.33
-0.67
1.0
-2.67
-4.0
4.0
-1.0
0.0
0.67
2.0
-6.0
1.0
1.0
5.67
2.0
0.33
3.33
-2.67
4.67
2.0
-4.33
-1.67
1.33
2.33
5.67
0.67
-0.33
-2.33
7.0
-1.33
1.67
-2.67
0.0
2.33
3.0
3.33
7.0
4.33
-4.0
11.67
0.67
3.67
3.67
-1.0
0.0
2.67
5.33
1.33
5.0
3.0
0.33
6.0
8.33
-2.0
6.67
-0.33
-1.33
0.0
0.67
-1.0
-3.67
1.33
5.33
0.0
3.33
6.33
3.0
-2.67
-2.33
-1.67
-0.33
-1.67
2.67
-5.33
-3.67
5.33
0.33
1.67
7.67
-6.0
5.33
-1.0
0.33
3.33
5.0
2.33
-3.33
-2.67
4.0
1.0
-1.67
4.0
0.67
-1.67
6.0
4.0
0.67
-0.67
2.67
3.33
0.67
6.0
3.33
4.67
0.33
1.67
2.0
-4.0
8.33
0.67
-3.67
2.33
-3.33
0.33
-2.0
-2.67
-3.67
1.0
-2.0
0.33
2.67
0.0
1.33
9.33
1.67
-2.33
-5.0
7.67
0.0
-1.33
3.0
0.67
-1.33
-1.67
-7.0
0.33
3.33
2.33
7.0
-1.33
4.67
-0.67
-3.33
-0.67
4.0
2.33
4.0
5.67
4.0
4.67
5.0
5.0
2.33
-3.0
-0.67
1.67
2.0
3.67
-0.33
-4.33
2.67
1.67
-1.33
3.33
-1.0
-1.33
-3.0
-1.0
-2.33
-1.67
4.33
4.67
5.0
-6.67
3.0
5.0
-3.0
0.0
-1.67
-0.33
0.33
-2.67
1.0
0.67
0.0
-1.67
1.0
1.0
-2.0
2.0
0.0
-2.33
-0.33
5.67
-1.0
2.33
-4.33
1.67
6.67
-0.33
-3.33
-3.67
-2.0
2.0
-2.33
2.67
-1.0
-1.0
-1.0
3.67
-3.0
-0.33
-1.67
-2.33
-0.33
0.67
-3.0
4.0
-1.67
-2.67
-3.33
-2.33
-3.0
0.33
3.33
-0.33
-1.33
-2.33
-5.33
0.33
1.67
-3.33
-7.0
0.67
-5.0
-2.67
-0.67
1.33
-3.67
2.0
-0.67
-3.67
-4.67
1.67
-5.33
-3.67
-6.0
-2.33
-5.0
0.67
-2.67
-6.33
2.67
-4.33
-1.0
-4.33
-1.0
1.67
-3.67
-8.0
3.67
0.33
1.33
-7.33
5.67
-1.0
-7.67
-7.33
-6.0
-9.0
-4.33
2.0
-3.0
-5.0
-5.67
3.0
-2.0
1.33
-3.67
1.33
-7.0
-1.33
0.67
-1.67
-6.0
0.67
0.33
2.0
-8.33
-4.67
-3.67
1.33
-6.67
4.0
-8.67
-9.0
-3.0
-3.33
2.33
-5.0
2.33
-6.33
-1.33
2.0
-5.33
-2.0
-2.67
-3.33
-5.67
-7.33
-4.67
-7.33
-4.67
-6.67
0.0
-7.33
1.33
3.0
0.0
5.67
-3.0
1.33
-1.67
-8.0
-9.0
-6.0
-1.33
-3.33
0.0
-4.67
-2.0
-4.33
1.0
-5.0
-1.33
-1.0
-3.67
6.33
-5.0
-9.0
-3.0
3.33
-0.67
-1.33
-7.0
-4.33
4.33
-5.0
1.33
-5.67
-18.33
-0.67
1.33
-3.0
-2.0
-7.67
3.0
-8.67
-6.0
-0.33
0.33
4.33
-4.0
1.33
-0.33
-0.33
-4.0
3.0
-2.67
1.67
-3.33
2.33
-6.33
-4.67
0.33
5.0
1.67
0.33
6.33
2.0
1.67
-8.0
-0.67
-6.33
-13.33
1.0
1.67
6.0
-11.67
-4.67
-6.33
4.0
3.67
-1.33
-2.0
-4.0
-1.67
7.33
-7.33
7.33
7.0
4.33
12.0
11.33
20.33
26.33
20.33
38.0
29.67
18.67
26.33
26.67
17.33
16.67
25.0
22.0
12.0
10.33
6.67
-5.0
8.0
0.33
1.33
7.0
11.0
3.33
2.0
10.33
4.33
3.33
15.33
4.0
9.33
2.67
-8.0
2.0
1.67
7.67
11.0
1.67
-0.33
8.0
8.33
4.33
12.0
-1.0
2.33
3.67
1.67
3.0
0.67
1.0
3.0
-4.0
4.0
2.33
9.67
8.67
3.33
11.0
7.0
-1.33
-3.67
1.67
8.67
1.33
11.33
4.33
6.33
-6.33
12.0
9.67
17.33
3.67
2.33
12.0
10.0
2.0
10.67
9.33
6.33
15.67
6.0
4.33
12.67
6.67
11.0
7.67
1.33
5.67
6.0
-0.33
3.33
9.0
8.33
1.33
5.0
11.67
6.67
8.0
5.33
6.33
12.33
12.67
3.0
6.67
9.0
5.67
8.67
9.67
5.33
11.67
-2.67
13.67
10.33
8.0
10.0
-1.33
4.67
14.67
7.0
4.0
2.33
9.0
14.0
4.67
1.33
15.0
7.33
12.67
-7.33
19.0
7.33
17.67
13.0
23.67
19.0
27.0
33.33
72.33
78.0
88.33
125.33
152.0
183.67
197.33
232.0
265.0
249.33
283.67
295.33
281.0
297.33
232.67
190.33
174.33
126.33
87.67
61.0
40.33
24.33
17.33
9.67
11.33
2.67
18.33
1.67
6.0
4.33
2.33
18.0
20.0
13.33
3.67
-1.33
4.33
8.0
4.0
8.67
19.33
13.67
4.33
-2.0
3.67
5.67
18.67
4.67
2.33
8.33
16.33
10.33
19.0
4.67
15.67
10.67
7.33
7.0
2.33
-3.0
11.67
1.0
5.0
27.33
10.0
6.67
5.67
16.0
17.0
4.33
11.0
33.33
6.33
6.67
4.0
7.0
2.33
-10.0
13.67
-2.33
5.0
-3.0
4.33
10.33
3.0
-0.67
-9.67
1.33
5.33
1.0
-0.33
-5.0
-0.33
6.0
6.33
-6.33
3.0
-2.67
2.33
5.67
8.33
7.0
5.0
0.0
7.33
1.33
-9.0
5.33
4.33
-4.0
11.67
19.33
-1.33
12.0
5.67
1.33
9.33
9.67
1.33
7.0
13.33
11.33
9.33
7.0
-2.0
-9.67
3.67
3.67
-4.33
9.67
2.33
-0.67
5.67
-4.0
-2.33
1.33
-5.33
0.67
11.33
0.0
-2.0
13.33
12.33
16.33
13.67
21.33
4.33
-4.33
6.0
7.67
20.0
16.0
8.67
8.67
1.33
27.0
1.0
14.33
6.67
10.0
-2.33
12.0
11.0
6.33
9.0
0.33
6.33
-3.67
-2.67
3.67
-6.33
-2.0
-2.67
-6.33
-4.33
-6.0
-4.33
0.33
8.0
5.33
-6.0
-11.0
-2.0
-1.33
7.33
-5.0
-2.67
-1.33
-5.67
7.33
-2.0
-0.67
-1.33
3.0
15.67
-4.0
2.33
-1.67
6.0
-4.33
2.33
2.33
-2.67
15.67
-6.67
-2.0
13.33
-6.0
7.0
4.33
5.67
3.0
3.33
3.33
5.33
-3.33
3.0
2.67
-2.67
8.67
8.67
8.0
5.33
10.67
2.0
8.67
3.33
10.0
0.67
20.33
3.0
14.0
14.67
6.0
12.0
9.67
0.33
8.33
5.0
1.67
0.67
3.67
0.33
5.67
4.0
2.33
0.0
3.0
2.33
3.67
3.67
4.0
-1.67
-6.33
0.0
-3.0
-0.33
0.33
-4.67
4.67
2.0
2.0
-7.67
-2.0
-3.67
1.0
3.33
4.33
3.0
2.0
-1.67
-0.33
-6.33
1.33
-2.33
-4.33
-3.0
5.0
-3.67
2.33
10.0
-5.33
3.0
-3.33
8.67
0.67
6.0
-3.0
-2.0
1.33
-1.0
-1.0
-3.0
4.67
6.67
-1.0
7.0
-7.0
5.0
0.67
1.67
6.33
-6.33
-3.33
18.0
4.33
2.0
7.67
0.67
7.33
5.0
-2.0
10.0
5.67
-2.33
3.0
1.0
8.0
2.0
0.0
-0.33
2.67
-5.33
0.67
-2.0
3.0
-6.67
6.67
6.67
3.67
-6.0
-1.0
5.67
-0.67
8.0
-1.0
-2.33
1.67
0.33
6.33
5.0
8.67
0.33
5.67
7.0
-1.67
-2.33
0.33
6.33
-0.67
-1.33
0.67
-2.67
5.33
7.33
-0.67
0.67
-0.33
2.0
-2.67
1.67
-2.67
1.0
5.33
-0.33
-1.67
1.33
0.33
-1.0
-0.67
-5.67
0.0
-2.33
0.67
-3.0
4.67
4.0