File: EDX Back Ups and Old Files/Spectra copy 3.3.23/Samples/High pH SF 25C 4d/7.0.txt
0.0
-28.0
-29.0
7.0
-138.67
-11.0
-34.33
-38.33
-16.33
3.67
8.33
-14.67
9.33
-17.33
-6.33
-1.67
-1.0
1.33
0.67
-1.33
0.0
0.33
-0.33
-0.33
1.0
2.33
-0.67
0.0
-1.0
-0.33
-1.33
0.0
0.0
1.0
0.67
-0.33
0.0
0.0
-0.67
0.0
0.0
-0.33
0.67
0.67
0.67
-1.0
-1.67
0.67
0.67
-0.33
-1.0
0.0
-0.67
-2.0
3.67
-0.33
-1.33
3.67
-1.0
0.0
1.0
-1.0
-2.33
3.67
3.33
-1.67
-3.67
6.67
0.33
8.33
4.67
0.0
-1.67
4.33
8.67
6.67
-0.33
0.0
-1.33
-3.0
0.33
4.33
10.0
13.33
3.67
-4.33
2.33
6.33
6.33
-0.67
1.67
1.67
1.33
-1.0
-1.0
0.0
4.67
1.33
9.67
9.67
11.0
0.0
2.33
-1.0
3.33
3.33
5.33
2.33
7.67
2.67
-6.67
0.0
-1.67
6.0
3.0
-1.0
8.0
-1.33
5.0
-1.0
-1.0
6.0
4.67
5.0
0.33
3.33
9.33
-1.33
5.0
-5.33
-1.67
4.33
-0.67
2.67
3.67
4.67
-4.33
4.0
-3.33
13.67
-1.67
2.0
1.33
4.0
5.33
5.0
4.33
-5.0
-1.33
-1.33
-1.33
4.67
-2.0
0.0
-0.33
6.33
2.33
1.0
11.0
-0.67
-2.0
3.33
-3.0
-0.33
6.67
1.67
2.0
2.67
3.0
-0.67
-3.67
7.33
-2.0
7.33
4.33
4.0
4.33
0.67
1.33
-2.33
-1.67
0.67
2.67
-7.67
13.33
0.33
-2.33
4.67
0.0
4.33
-3.0
4.33
6.33
0.0
6.33
1.67
0.33
7.0
0.0
-5.67
4.0
2.67
2.33
4.0
4.0
-0.33
3.33
5.67
3.33
1.67
7.0
0.33
1.67
-2.67
2.67
-2.0
1.0
1.33
3.67
-7.67
1.33
1.67
-5.67
5.0
8.33
-4.67
-1.0
2.0
2.33
2.67
0.0
-0.67
2.33
-0.33
-1.33
2.0
0.67
1.0
-1.33
2.0
2.67
0.67
4.33
-2.0
-0.67
2.33
1.33
-3.0
-0.33
3.67
1.33
-5.33
-1.67
0.0
3.33
3.0
-2.33
4.0
2.67
0.0
8.0
-1.67
0.0
-2.67
4.67
1.0
-2.33
1.67
-3.33
0.67
1.67
2.67
-0.67
3.0
-0.33
-2.0
-3.0
0.67
0.33
-2.67
2.67
0.0
-1.67
-1.0
6.0
2.0
5.0
-1.67
-4.33
1.33
0.33
-1.0
0.67
8.0
-0.67
-4.0
1.0
4.0
-2.0
3.0
0.67
3.67
3.67
-1.0
-0.67
-0.33
-2.33
5.67
3.67
-2.33
-0.67
5.0
1.0
5.67
-2.33
-2.0
3.0
-3.0
3.67
-4.0
-0.33
-2.67
-2.33
0.67
-1.33
2.0
-1.0
-5.67
-2.67
-0.33
-3.33
0.0
-3.67
-1.67
-0.33
-1.33
0.67
-5.33
-0.67
0.67
0.67
-1.0
-4.33
-2.0
1.33
-5.67
1.33
2.33
1.0
-3.67
0.33
-1.67
-3.33
-3.33
-7.67
-1.0
-0.33
-2.0
-1.33
-1.67
-1.33
3.67
-4.33
1.0
-3.33
-3.0
-3.33
-6.67
4.0
4.67
-4.67
-0.67
-4.33
2.67
-4.0
-2.67
-7.33
-2.0
-6.0
-5.33
8.0
0.0
-1.0
-3.67
-9.0
-5.0
-1.67
-6.67
-4.67
-6.0
2.67
-3.33
-3.67
-5.0
7.67
-0.67
-2.0
-0.33
0.33
-0.67
20.33
10.33
10.0
3.33
8.0
19.0
29.67
26.33
21.0
9.33
13.67
14.67
5.0
0.67
2.0
-5.67
-3.33
-4.67
-4.33
-0.67
-10.33
-3.67
6.33
-5.0
-2.33
4.33
-9.0
0.0
-3.33
2.0
-4.67
-0.67
-5.0
-6.0
2.0
-0.33
-3.33
2.0
-7.67
1.0
-4.33
8.0
-6.0
-12.33
-1.0
0.33
-1.67
-7.0
-3.0
-7.0
-5.67
-7.67
1.67
-9.0
0.67
1.33
-1.0
7.33
-6.67
-12.33
-8.67
-1.67
-7.0
-1.0
-5.67
-2.0
-6.67
-11.0
-11.33
-2.67
-2.67
-13.0
-7.67
-8.33
-4.33
3.0
-9.0
-6.67
-3.33
-18.33
-5.67
-3.33
2.33
-0.67
-4.0
-1.33
-6.67
-3.67
1.0
0.67
-5.0
1.33
-3.33
-11.33
-8.0
-5.33
7.0
-8.67
-5.67
9.67
2.0
13.67
-3.33
-3.0
-6.0
5.33
-0.67
3.67
7.33
0.0
0.33
-1.0
11.33
16.33
10.33
13.33
15.0
21.67
5.67
15.33
15.67
4.33
34.67
3.0
12.0
-5.0
-1.67
3.67
-3.0
5.0
6.33
4.33
1.0
-3.0
6.33
-4.0
-1.67
7.33
-1.67
12.33
2.0
-1.67
1.67
-1.0
5.0
9.67
2.67
4.0
8.67
6.67
5.0
3.33
1.33
8.0
13.0
10.33
7.67
0.67
5.0
15.67
10.0
7.0
-3.0
7.0
4.33
1.67
4.67
4.33
9.0
5.0
7.67
3.33
9.67
2.67
3.33
7.33
10.33
6.33
6.67
8.0
14.67
1.33
2.67
4.33
11.0
9.0
7.0
10.67
3.33
8.33
11.67
-2.0
-2.67
17.67
7.67
11.0
-2.33
5.33
3.67
7.0
-1.33
-2.67
5.0
6.33
3.33
10.0
3.67
7.67
6.0
14.33
12.33
8.33
11.67
-5.0
3.67
3.0
11.67
8.67
5.67
10.33
11.67
2.33
3.67
8.33
-2.0
3.0
0.67
5.67
5.67
7.0
7.0
9.33
16.0
15.0
11.67
20.33
17.0
-0.67
9.67
7.67
21.0
8.33
18.67
20.0
9.67
8.0
20.0
8.33
21.33
31.0
34.33
38.33
39.0
60.67
70.33
86.0
83.0
67.33
91.67
100.33
92.0
90.33
74.67
78.33
56.33
44.33
22.67
16.0
16.33
19.33
10.33
10.67
11.33
4.67
16.33
3.67
22.0
18.33
14.33
11.0
12.0
15.33
0.67
9.67
17.33
9.0
8.0
8.67
7.33
2.67
3.33
0.0
3.67
7.67
7.67
4.67
14.33
12.33
12.33
4.33
15.0
-3.33
10.67
8.67
4.33
12.0
19.33
7.0
9.67
5.0
11.0
15.33
13.0
9.67
9.67
14.0
13.0
7.33
5.0
8.33
-3.67
1.67
19.0
5.0
1.33
6.0
12.67
8.67
6.0
14.0
9.33
8.33
9.0
5.33
5.33
0.33
12.33
5.0
3.67
-1.0
12.67
7.0
10.33
-0.33
6.0
14.33
7.33
5.67
14.33
7.0
23.0
8.0
13.33
31.33
21.0
28.33
13.33
26.0
33.67
40.33
15.67
24.0
22.67
35.33
39.33
16.67
26.33
17.0
23.33
11.33
1.33
15.0
16.0
7.33
12.67
13.67
2.67
11.67
9.33
-0.67
8.67
9.0
-6.33
8.33
-8.33
5.67
17.33
11.0
8.0
7.33
6.33
2.33
7.67
11.33
15.33
-5.33
16.0
11.67
3.0
16.0
5.67
12.67
5.33
20.0
-1.0
5.33
4.67
21.0
-3.33
5.0
5.0
4.33
6.0
0.33
16.33
9.33
2.33
-2.33
-9.33
8.0
8.33
4.67
-4.33
-4.0
-0.33
5.33
10.0
5.33
-6.0
3.0
-1.0
3.67
6.33
3.0
8.33
3.67
1.33
7.33
9.0
10.33
7.67
5.0
7.67
2.0
-3.67
2.33
6.0
9.67
6.33
-3.67
4.33
-0.33
11.33
0.0
5.33
4.0
7.0
8.33
5.67
2.0
1.33
0.33
11.33
-5.33
2.0
0.67
2.33
9.67
3.67
2.0
-5.67
-1.33
11.0
6.67
3.33
11.0
11.67
6.33
-1.0
2.0
4.67
4.0
1.0
-2.33
1.33
4.33
2.0
1.67
2.67
6.67
-2.67
4.67
-1.0
5.33
-2.0
-1.0
-0.67
1.67
0.67
4.0
-4.67
-0.33
10.0
11.0
3.67
1.33
2.33
4.67
8.0
3.0
0.33
4.0
0.33
6.0
9.33
9.33
-5.0
-1.0
5.33
2.67
3.67
7.33
5.67
-3.33
0.0
9.0
3.33
-0.67
2.0
-5.33
0.0
5.67
-0.33
10.67
8.0
12.0
3.0
1.33
1.0
-4.0
-2.0
1.67
-5.33
11.0
3.0
14.0
10.0
3.67
3.67
1.33
1.67
7.67
9.0
6.33
4.0
5.67
2.67
-0.67
2.0
-4.0
9.0
-0.33
-4.33
2.0
0.0
-1.0
-1.0
6.0
1.67
-4.33
2.67
-1.33
5.0
1.0
-4.67
2.67
3.67
6.67
-1.0
3.0
0.67
7.33
9.0
3.0
0.67
3.67
-4.67
3.33
7.0
3.67
0.33
2.67
-2.0
0.33
-1.33
0.33
3.33
0.33
2.67
-5.33
7.33
-0.67
6.33
3.33
0.67
3.67
2.0
2.33
1.67
2.33
-1.0
0.33
-2.33
-3.67
3.33
-2.67
-3.0
4.33
-0.67
3.0
3.67
2.67
-1.0
-0.33
4.0