File: EDX Back Ups and Old Files/Spectra copy 3.3.23/Samples/High pH SF 25C 4d/7.25.txt
0.0
51.0
71.0
-53.0
-78.67
55.0
71.67
-13.33
-11.33
59.67
1.33
-0.67
34.33
-19.33
12.67
4.33
-1.0
3.33
-0.33
1.67
2.0
0.33
-0.33
0.67
1.0
-0.67
0.33
0.0
-1.0
1.67
-1.33
0.0
0.0
0.0
-0.33
0.67
0.0
-1.0
-0.67
0.0
0.0
-0.33
0.67
-0.33
-0.33
-1.0
-0.67
-0.33
1.67
-0.33
0.0
1.0
1.33
-2.0
2.67
-0.33
0.67
1.67
-1.0
5.0
2.0
4.0
-1.33
-2.33
-1.67
6.33
0.33
1.67
-2.67
4.33
3.67
3.0
-5.67
5.33
10.67
6.67
-0.33
6.0
-4.33
-3.0
3.33
-1.67
2.0
8.33
2.67
1.67
6.33
5.33
1.33
0.33
-1.33
-1.33
2.33
8.0
11.0
11.0
0.67
-0.67
2.67
-1.33
-1.0
3.0
-2.67
1.0
-0.67
-0.67
4.33
-4.67
1.67
10.67
-4.67
2.0
8.33
-1.0
1.0
-1.0
4.0
4.67
1.0
-3.0
5.0
-2.0
0.67
1.0
9.33
2.33
3.33
-2.33
0.0
-3.33
0.33
-1.67
2.33
-1.33
1.67
4.67
1.67
4.0
8.67
3.67
7.33
4.0
-0.67
5.0
3.33
-2.0
1.33
2.0
-0.33
5.67
-1.33
-1.33
1.0
1.0
-1.33
12.33
0.33
1.0
1.0
3.33
1.0
2.33
2.0
4.67
-2.33
2.67
10.0
5.67
0.0
2.33
0.33
1.33
-1.0
3.33
3.33
13.0
7.33
2.67
1.33
-0.33
-0.67
0.67
6.67
1.33
6.33
3.33
2.67
7.67
2.0
-2.67
-8.0
-1.67
-0.67
-3.0
4.33
-0.33
0.33
1.0
7.0
-0.67
1.0
-1.33
4.33
4.0
6.0
-2.33
1.33
6.67
4.33
2.67
5.0
6.33
-3.33
6.33
4.67
-2.0
-1.0
5.33
10.67
-2.67
6.33
-2.33
0.33
2.0
3.33
-3.67
-1.0
-3.0
4.33
5.67
-1.0
2.33
6.33
0.67
-2.33
-4.0
1.67
4.0
0.67
1.0
-0.33
-2.33
-0.67
-2.0
2.33
1.33
-2.67
4.0
1.67
-0.33
4.33
-4.33
-5.67
-1.0
3.33
3.0
-1.33
5.0
9.67
5.0
2.0
4.33
-3.0
3.33
10.67
0.0
1.67
-2.33
-1.33
0.67
-0.33
3.67
4.33
-3.0
0.67
0.0
3.0
1.67
-0.67
1.33
-1.33
5.0
-1.67
3.0
-1.0
-2.0
0.0
1.33
-3.33
-1.67
-4.67
4.0
0.67
-2.0
-0.67
1.0
5.0
-2.0
0.0
0.0
1.67
0.67
0.67
-3.0
1.33
-2.33
0.67
0.67
-2.33
-0.33
-2.67
0.0
1.0
3.67
1.67
1.0
1.0
3.0
2.67
-1.0
2.67
1.33
-0.33
1.67
-1.33
-3.0
6.0
0.33
-1.67
0.67
-2.33
-5.0
-2.67
-4.67
-1.33
6.67
-2.33
-1.33
-1.67
0.67
0.67
-1.0
-0.33
-3.0
-5.67
1.33
-2.67
-3.67
-1.0
0.33
-5.67
-0.67
-3.33
-2.33
-8.67
2.0
-3.33
-6.0
-5.33
-0.67
-1.33
0.67
-5.33
2.0
3.67
-1.0
4.67
-0.67
-5.0
-1.33
-2.67
1.33
-7.33
1.67
-4.0
-6.67
-7.33
-6.0
-10.0
-4.33
-1.0
-6.0
-7.0
-0.67
-9.0
-3.0
-1.67
-6.67
-3.67
-8.0
7.67
-4.33
-6.67
-2.0
-2.33
-4.67
-7.0
0.67
0.33
1.33
9.33
5.33
11.0
7.33
7.0
27.0
21.67
25.33
11.0
10.33
0.67
11.67
2.0
-2.33
3.0
-0.67
-5.33
1.33
-12.33
-9.67
-3.33
-1.67
-2.67
4.0
-3.33
-3.67
-13.0
0.0
-4.33
-4.0
-0.67
4.33
-11.0
-2.0
-5.0
-7.33
-2.33
1.0
-11.67
-5.0
0.67
6.0
-3.0
-14.33
0.0
1.33
-5.67
-3.0
2.0
-8.0
1.33
-2.67
0.67
-8.0
-7.33
4.33
-3.0
1.33
-0.67
-14.33
6.33
-4.67
0.0
-9.0
-2.67
-1.0
1.33
-6.0
-1.33
0.33
-3.67
-13.0
-9.67
0.67
3.67
-4.0
2.0
-13.67
-3.33
-15.33
-3.67
-3.33
-3.67
-0.67
2.0
-6.33
-6.67
0.33
-3.0
-1.33
-1.0
-5.67
-0.33
-9.33
-2.0
-1.33
1.0
-1.67
-3.67
-3.33
-5.0
4.67
-4.33
-10.0
-5.0
-3.67
-2.67
-7.33
1.33
3.0
-1.67
-4.0
-1.67
10.33
8.33
17.33
17.0
18.67
19.67
19.33
3.67
4.33
7.67
9.0
5.0
5.0
9.33
6.67
-6.0
5.0
-2.67
8.33
2.0
5.0
8.33
0.0
2.33
0.33
-2.67
3.33
5.0
0.33
5.67
1.0
8.0
5.67
3.67
3.0
4.67
7.67
-3.0
1.33
1.33
7.0
10.0
-0.67
9.67
-1.33
11.0
7.67
7.0
4.0
9.0
2.0
2.33
6.67
-2.33
12.33
1.0
10.0
9.67
8.33
1.67
9.67
11.33
10.33
9.33
6.33
5.67
8.0
-0.33
6.33
4.67
6.33
8.0
17.0
13.0
-2.33
-1.67
3.33
12.67
0.0
15.33
12.67
-5.33
9.0
10.67
3.33
6.67
11.0
7.67
6.33
-4.0
7.33
2.33
6.0
1.67
11.67
2.0
3.33
7.33
7.33
10.67
0.0
12.67
1.0
2.67
7.67
-0.33
8.33
-0.33
-5.67
6.67
5.33
10.0
6.0
11.67
4.67
7.67
5.0
11.0
2.33
13.0
13.0
10.67
6.33
10.0
5.33
13.67
11.67
19.0
11.33
17.67
16.0
20.67
4.0
26.0
8.33
14.33
39.0
39.33
47.33
55.0
76.67
71.33
72.0
90.0
85.33
84.67
84.33
94.0
81.33
96.67
74.33
31.33
54.33
40.67
10.0
27.33
18.33
16.33
9.67
13.33
11.67
6.33
7.67
20.0
3.33
0.33
12.0
5.0
10.33
6.67
21.67
4.33
17.0
8.0
11.67
18.33
7.67
1.33
6.0
-2.33
0.67
5.67
11.67
-6.67
9.33
5.33
-10.67
20.0
-6.33
14.67
12.67
5.33
19.0
9.33
5.0
10.67
7.0
15.0
6.33
8.0
-5.33
-3.33
5.0
5.0
8.33
4.0
11.33
3.33
3.67
12.0
11.0
14.33
4.0
9.67
1.67
8.0
10.0
7.33
9.33
16.0
1.33
20.33
14.33
-0.67
7.0
5.67
9.0
0.67
2.0
1.33
-0.33
9.0
9.33
5.33
10.67
0.33
12.0
10.0
13.0
19.33
19.33
30.0
30.33
25.33
24.0
17.67
32.33
10.67
18.0
16.67
37.33
33.33
12.67
11.33
17.0
21.33
8.33
15.33
11.0
20.0
6.33
17.67
12.67
0.67
14.67
8.33
6.33
14.67
5.0
-4.33
-6.67
-0.33
6.67
3.33
13.0
-3.0
0.33
9.33
3.33
1.67
11.33
7.33
-5.33
5.0
7.67
3.0
17.0
9.67
11.67
3.33
17.0
14.0
6.33
8.67
14.0
10.67
7.0
5.0
6.33
8.0
4.33
9.33
7.33
-0.67
-2.33
1.67
2.0
0.33
-13.33
-5.33
13.0
1.67
-4.67
1.0
11.33
2.0
-3.0
1.0
-5.33
10.33
-5.0
2.33
-4.33
-1.67
0.33
8.0
7.33
11.67
2.0
6.67
6.0
13.33
1.33
2.0
6.67
7.33
-1.67
4.33
6.67
4.33
4.0
2.33
-3.0
1.0
-1.67
2.67
-3.0
0.33
5.33
2.33
-1.33
1.0
11.67
0.33
0.67
3.67
18.0
0.33
4.67
9.0
2.67
5.33
2.0
1.67
14.33
9.0
3.0
5.67
7.0
1.0
5.67
5.33
11.33
2.0
1.67
-3.33
0.67
1.33
2.67
2.0
0.33
-2.0
6.0
4.33
6.67
2.67
2.0
5.33
1.67
5.0
7.0
7.67
-0.67
7.33
-6.33
-3.0
4.0
-0.67
5.0
1.33
8.0
9.33
5.33
-6.0
3.0
1.33
4.67
-3.33
4.33
0.67
-0.33
0.0
9.0
4.33
0.33
9.0
5.67
14.0
1.67
-5.33
1.67
2.0
8.0
2.0
6.33
-3.0
-5.0
7.0
2.67
2.67
0.0
7.0
-1.0
7.0
7.67
7.67
2.33
-5.33
1.67
13.0
-0.67
0.0
16.67
3.67
6.33
3.0
-1.0
3.0
8.67
0.67
5.0
1.0
5.0
5.0
-5.0
-3.33
4.67
-6.33
5.67
6.0
10.0
-1.67
7.67
12.67
0.67
-4.0
2.0
10.67
9.33
7.0
-3.0
4.67
-2.33
0.33
-1.67
6.0
8.67
4.33
2.67
7.0
-0.67
-1.33
8.33
-2.67
0.33
1.67
1.67
-2.67
3.33
12.33
2.33
4.67
2.67
1.0
1.33
-1.33
1.33
-4.0
5.33
4.67
0.33
-0.67
2.33
4.0
4.33
-5.67
3.0
7.67
2.67
-1.0
5.67
6.0