File: EDX Back Ups and Old Files/Spectra copy 3.3.23/Samples/High pH SF 25C 4d/7.5.txt
0.0
-26.0
28.0
95.0
43.33
28.0
55.67
-27.33
43.67
27.67
1.33
0.33
27.33
-9.33
4.67
1.33
7.0
2.33
3.67
-1.33
1.0
0.33
0.67
0.67
0.0
-0.67
0.33
0.0
-1.0
-0.33
-1.33
1.0
0.0
1.0
-0.33
-0.33
1.0
0.0
-0.67
0.0
0.0
0.67
0.67
-0.33
-0.33
-1.0
-1.67
-0.33
0.67
-0.33
1.0
-1.0
-0.67
0.0
2.67
0.67
3.67
-2.33
3.0
0.0
3.0
-1.0
0.67
-1.33
-0.67
3.33
3.33
5.67
-1.67
2.33
4.67
-2.0
4.33
2.33
-0.33
5.67
-1.33
9.0
-1.33
-2.0
-2.67
0.33
4.0
-0.67
5.67
0.67
3.33
3.33
-1.67
6.33
0.67
0.67
1.33
13.0
6.0
-3.0
-1.33
10.33
8.67
10.67
3.0
2.0
1.33
-6.0
2.33
-1.67
-2.67
-1.67
4.67
-1.33
-0.67
2.0
4.33
7.0
6.0
0.0
4.0
7.67
6.0
-7.0
5.0
3.0
-0.33
-1.0
3.33
5.33
7.33
2.67
3.0
-2.33
5.33
-0.67
-0.67
-1.33
1.67
3.67
1.67
8.0
-0.33
0.67
2.33
4.0
4.33
6.0
5.33
6.0
10.33
-5.0
-0.33
9.67
-2.33
4.67
2.0
6.0
-2.33
4.33
-0.67
4.0
-5.0
-2.67
6.0
2.33
-1.0
8.67
1.67
1.67
3.0
1.67
0.0
2.33
-1.67
9.33
9.0
0.33
6.33
6.0
3.33
-2.33
4.33
-1.33
-3.67
3.67
-2.33
-1.67
6.33
2.33
0.67
11.67
6.0
3.33
-2.0
2.33
7.33
1.0
3.33
-0.33
2.33
4.0
0.0
4.33
4.0
3.67
-0.67
0.0
7.0
-0.33
6.33
8.67
7.33
7.67
2.0
0.33
0.67
3.33
5.67
8.0
-1.0
8.33
0.67
0.33
-1.67
-5.33
1.33
2.0
-0.67
3.33
-4.0
0.0
5.33
5.67
3.0
1.33
2.33
4.67
5.67
1.0
6.67
2.0
1.67
2.0
-1.33
8.67
4.33
-2.0
-2.67
3.33
2.33
2.0
-4.33
1.67
1.33
1.67
0.33
4.0
1.33
-1.0
-0.33
5.0
-0.33
0.0
4.0
0.33
-1.0
2.33
-0.33
0.0
3.67
-0.33
0.67
7.67
2.67
5.67
0.33
0.0
-1.33
-1.0
-1.0
-2.33
3.33
1.33
-3.33
3.0
-1.67
2.0
3.0
-2.0
3.0
6.33
-5.33
-1.67
-3.67
1.0
2.67
-2.0
-1.67
-1.0
-2.0
-4.0
0.0
6.0
-5.33
0.67
-2.33
-2.0
1.33
-1.33
1.67
4.67
-3.33
0.67
1.33
-1.0
1.0
0.67
4.67
-3.0
4.0
0.0
-0.33
-3.0
1.67
2.33
-1.33
-1.33
4.67
1.0
-1.0
-0.67
2.33
-1.33
-2.33
-1.0
2.33
-0.67
-1.33
1.67
-5.33
-5.33
-2.67
-2.33
4.67
-4.0
-0.33
3.0
-5.67
-2.67
-0.67
-5.67
1.0
2.33
-2.67
-1.67
-0.33
1.67
-7.67
-5.0
-3.33
-1.0
-0.33
-4.67
-4.33
-1.33
-1.33
2.0
-0.33
-6.0
0.67
-0.67
0.0
-1.33
-0.67
-1.67
-6.33
-7.33
2.0
-3.67
-10.33
-2.0
-6.0
-6.33
-3.0
-3.0
-9.0
-7.67
-5.0
-3.0
-6.67
-3.67
-1.67
-4.0
0.67
1.67
-3.67
-4.0
-0.33
5.33
-10.0
-2.33
0.33
7.33
6.33
6.33
2.0
11.33
18.0
25.0
10.67
24.33
18.0
13.33
8.67
15.67
1.0
-0.33
2.0
1.33
-0.33
-7.67
-3.33
-9.67
0.67
-5.67
3.33
-2.0
-6.33
-7.67
0.0
-5.0
1.67
-3.0
-4.67
-4.67
-5.0
-6.0
-6.0
0.67
2.67
-3.0
-8.67
2.0
-6.33
0.0
-5.0
-4.33
7.0
-7.67
-3.67
-6.0
-8.0
-5.0
3.33
-5.67
-1.33
-9.0
4.67
-4.67
-1.0
13.33
2.33
-14.33
-2.67
-5.67
-3.0
-4.0
1.33
-12.0
-1.67
-12.0
-3.33
5.33
-1.67
-2.0
-0.67
-1.33
0.67
1.0
-6.0
-5.67
1.67
-12.33
-0.67
-7.33
-0.67
-3.67
-3.0
5.67
-1.67
-0.67
-5.0
-3.33
-5.0
-2.67
-5.33
-3.33
0.0
-2.33
4.0
-2.67
-4.67
6.67
2.0
-1.33
-0.33
-5.0
2.0
-4.67
-0.67
2.67
-5.67
-4.0
0.33
-7.0
10.33
19.33
4.33
20.33
8.0
15.67
4.67
15.33
9.67
3.33
11.67
12.0
-1.0
2.0
6.33
3.67
4.0
4.0
2.33
1.33
6.0
0.0
-2.67
7.0
-7.67
4.33
-7.67
2.33
9.0
-2.67
7.67
-12.0
-7.0
0.67
2.67
17.0
7.67
-0.33
8.0
-1.67
5.33
18.0
3.0
1.33
12.67
5.67
9.0
4.67
9.0
2.0
-2.0
6.0
0.33
8.67
1.67
7.33
1.0
1.0
-8.33
1.33
-0.33
13.67
4.33
7.33
14.33
9.33
5.67
15.0
2.67
16.33
8.67
8.33
14.0
5.0
6.0
5.67
1.33
7.33
18.67
12.0
0.33
5.67
7.67
9.0
6.67
3.33
6.67
19.0
5.67
4.33
-1.0
7.33
-2.67
3.0
13.67
-0.33
5.0
10.33
9.33
2.33
7.67
3.0
10.67
6.0
3.67
9.67
4.67
6.33
6.67
2.33
3.67
12.33
0.0
5.0
9.67
-0.33
5.67
0.0
9.0
6.33
20.0
17.0
2.67
9.33
17.0
9.33
23.67
14.67
20.0
16.33
9.67
11.0
22.67
12.0
22.0
19.33
26.33
31.0
43.33
42.33
44.0
73.67
73.33
84.0
100.0
93.33
109.67
118.33
105.0
87.33
88.67
67.33
65.33
48.33
38.67
20.0
6.33
11.33
4.33
29.67
16.33
-2.33
12.33
0.67
9.0
0.33
7.33
23.0
17.0
14.33
12.67
2.67
-4.67
8.0
5.0
1.67
-2.67
13.67
-1.67
8.0
8.67
12.67
20.67
4.67
5.33
6.33
9.33
1.33
9.0
9.67
10.67
16.67
10.33
10.0
13.33
11.0
13.67
4.0
-6.0
5.33
12.0
9.67
6.67
5.0
16.0
-7.67
4.0
12.33
6.33
-6.33
16.0
13.0
-2.67
-1.0
5.67
-6.33
6.0
1.0
5.33
9.33
7.0
0.33
6.33
7.33
11.33
11.0
15.67
2.0
2.67
1.0
5.33
5.67
5.0
7.33
13.33
3.67
14.33
17.0
21.0
22.0
18.33
25.33
24.0
24.33
32.33
34.0
30.67
28.33
23.67
25.0
19.67
24.33
36.33
15.67
28.33
12.0
21.33
8.33
19.33
7.0
15.0
10.33
11.67
8.67
-4.33
1.67
-2.67
17.33
8.67
11.0
-3.33
2.33
2.67
7.67
16.33
13.0
2.0
3.33
6.33
8.33
3.67
11.33
2.33
2.67
14.0
8.67
10.0
15.0
17.67
0.67
-8.67
3.0
17.0
17.33
0.67
8.0
-3.33
3.0
-4.0
18.33
18.0
8.33
5.33
7.33
13.33
6.67
-6.33
1.0
2.33
-6.33
5.67
-8.0
0.67
8.33
3.0
4.33
-2.0
-1.0
-2.0
2.67
-0.67
3.0
3.33
-1.33
0.33
11.33
5.0
2.33
0.67
1.0
13.67
11.0
8.33
15.33
6.0
3.67
-2.67
15.33
15.33
8.67
-1.67
0.0
1.33
2.0
3.0
5.33
10.67
4.0
3.33
7.33
5.33
4.67
0.0
2.67
0.33
5.67
1.67
9.0
0.33
0.67
0.0
4.67
1.33
4.0
10.67
7.33
9.0
13.0
6.67
12.0
-2.0
-9.33
3.33
16.33
13.0
-2.33
9.67
-2.33
-2.67
11.67
4.0
6.33
-2.0
1.0
-4.67
11.67
7.67
0.0
-2.67
-3.33
5.0
0.0
0.67
10.33
-5.67
4.67
7.0
2.0
7.33
10.0
9.33
7.0
6.33
7.33
5.0
9.0
-3.67
10.67
-6.33
2.33
-2.33
-4.33
2.0
4.0
6.33
11.33
7.0
2.67
1.0
2.67
4.67
2.67
3.0
2.0
-5.0
7.33
-8.0
-8.0
-1.0
-1.33
0.67
5.0
5.0
0.0
9.0
2.67
3.67
11.33
2.67
11.67
8.0
6.33
5.0
10.67
5.67
10.33
10.0
-1.0
6.0
4.67
-5.33
-2.0
5.0
3.0
1.0
7.0
2.67
7.67
-3.33
-2.33
2.0
3.0
-3.67
2.67
6.67
-1.33
6.0
3.0
-0.33
2.33
-3.0
2.0
-0.33
0.67
2.33
-1.67
6.0
10.67
4.33
0.67
0.0
4.33
0.67
3.33
-1.67
-0.67
5.67
-1.33
-1.67
-1.67
7.33
3.33
3.67
0.67
-3.0
6.33
3.67
3.33
13.0
4.33
-2.33
0.33
3.33
2.33
0.0
2.33
2.33
-1.0
0.67
4.67
7.0
0.67
1.0