File: EDX Back Ups and Old Files/Spectra copy 3.3.23/Samples/High pH SF 25C 4d/9.0.txt
0.0
67.0
55.0
6.0
-35.67
64.0
41.67
46.67
-18.33
-3.33
3.33
8.33
29.33
-33.33
10.67
0.33
-1.0
12.33
-0.33
0.67
0.0
-0.67
-0.33
0.67
0.0
-0.67
-0.67
1.0
-1.0
-0.33
-1.33
2.0
0.0
0.0
-0.33
0.67
1.0
-1.0
-0.67
0.0
1.0
2.67
0.67
0.67
0.67
-1.0
-1.67
-1.33
0.67
0.67
0.0
1.0
2.33
3.0
1.67
0.67
-0.33
0.67
-2.0
5.0
4.0
1.0
-1.33
0.67
-2.67
0.33
0.33
3.67
0.33
5.33
3.67
-1.0
3.33
-2.67
-0.33
8.67
4.67
5.0
1.67
-1.0
2.33
0.33
-1.0
-0.67
1.67
-3.33
0.33
4.33
0.33
5.33
0.67
-2.33
-1.67
-2.0
0.0
4.0
5.67
5.33
7.67
2.67
3.0
3.0
-0.67
-4.0
-5.67
-1.67
-2.67
7.33
-0.33
-3.33
-2.67
1.0
-0.67
-4.0
6.0
4.0
-2.0
5.67
1.0
-8.0
-2.0
4.0
7.67
0.0
-1.67
5.33
2.33
-0.33
-1.0
-2.33
5.33
4.33
11.33
0.67
-1.33
-0.33
-1.33
2.0
2.67
1.67
-1.67
-2.0
-0.67
6.0
1.33
5.0
3.33
-2.0
2.67
3.67
1.67
-0.33
1.0
7.0
7.67
8.33
-0.67
2.0
2.0
-0.67
-1.0
-2.67
0.0
4.67
1.67
-0.33
0.0
-4.33
1.0
1.33
4.33
5.33
-3.0
3.33
6.33
-2.0
0.33
4.67
-3.67
7.67
-7.67
1.67
-1.33
-3.67
3.33
-0.67
-3.33
3.67
-3.0
-3.67
2.0
-3.67
5.33
-3.0
6.33
5.67
-0.67
0.0
3.0
3.33
-1.0
-0.33
1.33
5.0
6.0
3.67
4.33
7.67
2.33
-2.33
3.0
-2.67
-2.33
2.33
3.67
5.0
-5.0
-0.67
-0.33
-2.67
9.33
-3.33
-1.67
4.0
-0.67
-4.67
3.0
4.0
1.33
2.67
-5.0
0.33
2.33
5.67
2.67
-3.0
1.67
-3.0
-0.33
-1.0
4.67
-0.33
-1.67
-4.0
-3.67
3.33
1.33
1.0
-3.33
6.67
0.33
-0.33
-6.67
6.0
4.33
-2.0
-2.33
2.0
6.67
3.0
2.0
-1.67
-1.0
1.33
-3.33
1.0
-1.33
-1.33
-5.33
0.67
-3.33
-2.33
3.33
1.0
3.67
-1.0
-4.0
-0.33
-0.67
1.33
4.67
1.0
0.33
2.0
0.0
4.0
2.0
-2.67
-2.33
-3.67
-0.67
0.0
0.67
-3.0
-2.67
0.0
-1.0
-1.0
2.0
5.0
-2.33
1.67
0.67
-2.0
-1.67
-3.33
0.67
4.67
-1.33
3.67
-2.67
3.0
-1.0
0.67
2.67
-3.0
2.0
-2.0
-2.33
0.0
6.67
0.33
-2.33
-0.33
1.67
-2.0
0.0
-0.67
-0.67
-2.33
-3.33
-1.0
-1.67
-1.67
-0.33
-2.33
-4.33
0.67
-1.67
2.67
-1.33
-4.0
-1.33
0.0
-4.67
-4.67
-1.67
-3.67
3.0
-3.67
-3.67
-2.67
-4.33
-5.33
-5.67
-3.0
-1.33
-2.0
-0.33
-5.67
-4.33
-2.33
-4.33
-5.0
-1.33
6.0
0.67
-2.67
-4.0
0.67
-5.67
-3.67
-10.33
-0.33
-2.0
-9.67
-4.33
-5.0
-8.0
-0.33
-2.0
-4.0
-5.0
-8.67
-7.0
-4.0
-3.67
-3.67
-5.67
-9.0
1.67
-0.33
-8.67
-2.0
-4.33
1.33
-3.0
-3.33
6.33
3.33
3.33
8.33
11.0
8.33
20.0
19.0
25.67
33.33
26.0
19.33
22.67
9.67
2.0
6.67
0.0
4.33
-5.33
-4.67
-6.33
-2.67
-5.33
-4.67
-1.67
-1.0
-7.33
-8.67
0.0
-2.0
2.67
7.0
1.33
-4.67
-6.0
-4.0
-7.0
-2.33
0.67
-1.0
-5.67
1.0
-4.33
3.0
-1.0
-10.33
7.0
0.33
-4.67
2.0
-3.0
-5.0
-7.67
-2.67
0.67
-12.0
2.67
-2.67
-1.0
2.33
-2.67
-6.33
8.33
-7.67
1.0
-10.0
-7.67
-5.0
-14.67
-9.0
-2.33
-2.67
9.33
-3.0
-11.67
-3.33
0.67
-4.0
-2.0
-8.67
2.67
-9.33
-4.67
-10.33
-6.67
0.33
-2.0
-5.33
-0.67
-2.67
-2.0
-2.33
1.0
2.33
-4.33
-9.33
-3.0
1.67
3.0
-3.67
-1.67
-1.33
-6.0
2.67
-4.33
-9.0
4.0
-2.67
1.33
-1.33
-3.67
2.0
4.33
1.0
8.33
2.33
18.33
24.33
18.0
21.67
18.67
19.33
8.67
20.33
5.67
1.0
15.0
7.0
8.33
9.67
4.0
5.0
0.33
2.33
14.0
6.0
0.33
4.0
5.33
4.33
-0.67
1.33
-1.0
9.33
5.67
-4.0
-1.0
-2.33
1.67
1.0
4.67
0.67
6.0
-0.67
-1.67
4.0
9.0
8.33
9.67
2.67
2.0
1.67
7.0
6.0
9.0
5.0
2.33
9.67
-4.33
-0.67
11.0
5.0
-8.33
-2.67
-1.33
5.67
11.33
10.33
2.33
6.33
-6.33
7.0
3.67
18.33
4.67
-0.67
2.0
12.0
10.0
11.67
0.33
20.33
16.67
4.0
0.33
9.67
0.67
5.0
10.67
4.33
14.67
6.0
7.67
2.33
-2.0
4.33
-1.67
4.0
3.67
0.67
8.0
16.33
9.33
10.33
8.67
6.0
7.67
9.0
9.67
14.67
7.67
11.33
5.67
2.33
13.67
12.33
0.0
-3.0
13.67
0.67
2.67
8.0
13.0
1.33
13.0
10.0
10.67
13.33
28.0
10.33
19.67
19.67
21.0
8.33
17.67
16.0
10.67
22.0
25.0
23.33
31.33
30.0
46.33
40.33
62.0
78.67
68.33
97.0
106.0
114.33
118.67
110.33
118.0
102.33
107.67
108.33
47.33
53.33
16.67
32.0
13.33
8.33
17.33
10.67
12.33
16.67
2.33
6.67
2.0
8.33
0.33
19.0
16.0
17.33
1.67
2.67
16.33
13.0
1.0
-2.33
1.33
2.67
10.33
11.0
-1.33
4.67
19.67
-1.33
-7.67
12.33
-2.67
0.33
20.0
6.67
9.67
16.67
8.33
16.0
17.33
3.0
10.67
15.0
-1.0
15.33
18.0
10.67
3.67
9.0
7.0
15.33
7.0
2.33
-2.67
5.67
9.0
-1.0
8.33
2.0
30.67
4.67
10.0
0.0
16.33
9.33
6.0
5.33
9.33
4.33
-1.67
4.0
1.67
15.0
6.67
11.0
-1.67
3.67
2.0
0.33
18.33
14.67
0.33
1.0
18.0
7.0
21.33
32.33
24.0
23.33
33.33
27.0
32.67
42.33
30.67
26.0
29.67
39.33
45.33
8.67
30.33
17.0
3.33
17.33
4.33
10.0
2.0
4.33
8.67
4.67
8.67
9.67
14.33
7.33
10.67
14.0
7.67
3.33
0.67
12.67
5.33
3.0
-1.0
-2.67
6.33
11.33
4.67
9.33
0.33
5.67
7.0
7.67
22.0
4.0
10.67
10.67
4.33
13.0
6.0
25.33
-5.33
2.0
-6.33
26.0
2.0
4.33
9.0
3.33
7.33
7.33
5.33
-0.33
5.67
12.0
1.33
-7.33
-7.33
3.0
-6.33
5.33
3.0
10.33
-2.0
0.0
5.0
-1.33
5.33
-4.0
5.33
0.67
-12.67
8.33
7.0
5.33
-1.33
-4.0
1.67
5.0
9.33
-2.67
0.0
3.67
0.33
2.33
10.33
4.67
1.33
8.0
7.33
-3.0
2.0
8.33
1.67
8.0
-2.67
12.33
-4.67
3.67
7.0
-1.33
6.33
-0.33
5.67
2.0
0.33
14.67
2.0
10.67
3.33
3.0
1.67
2.33
1.0
13.0
3.67
0.0
9.0
-6.33
2.33
10.33
-6.0
3.67
-3.33
-2.33
4.33
8.67
-2.0
-2.67
7.0
11.0
-0.67
-0.33
8.67
2.0
-2.67
-2.33
3.0
2.0
-3.33
3.33
-0.67
-0.33
-4.0
2.0
2.33
-3.0
2.33
1.0
1.33
7.33
-3.0
7.0
2.33
4.67
-0.33
9.33
-6.33
-6.33
-7.0
10.0
3.33
7.33
-1.0
2.67
0.0
-0.33
-1.33
1.67
2.0
0.0
2.0
0.33
-3.0
-4.0
1.0
7.67
7.67
3.0
6.0
13.0
11.0
1.67
16.67
5.33
-1.33
-0.33
2.0
-0.67
5.0
13.67
1.67
6.33
1.0
3.0
1.0
-0.33
-1.33
1.0
0.0
2.0
-4.0
4.0
-6.33
3.67
-3.33
0.67
0.0
-1.0
-2.67
4.67
9.67
3.67
-3.0
-2.0
2.67
0.33
-1.0
2.0
-6.33
0.67
-3.67
0.33
1.0
8.67
2.33
3.67
9.0
-2.67
0.67
3.33
-1.67
-3.67
4.67
-2.33
0.33
1.33
4.33
2.33
-2.33
5.67
0.0
3.33
3.67
5.33
3.0
4.33
-0.33
0.33
1.33
3.33
3.0
-1.67
-4.67
4.0
-2.33
-2.33
-5.0
7.67
0.0