File: EDX Back Ups and Old Files/Spectra copy 3.3.23/Samples/High pH SF 25C 4d/9.25.txt
0.0
18.0
-24.0
-10.0
20.33
69.0
101.67
-6.33
10.67
-0.33
17.33
14.33
18.33
-14.33
-4.33
-1.67
-1.0
-2.67
5.67
-0.33
1.0
0.33
-0.33
-0.33
1.0
0.33
-0.67
1.0
0.0
0.67
-1.33
0.0
1.0
0.0
-0.33
-0.33
0.0
-1.0
1.33
0.0
0.0
-0.33
-0.33
1.67
-0.33
-1.0
-1.67
-0.33
1.67
0.67
-1.0
2.0
1.33
0.0
-0.33
-1.33
-2.33
-1.33
-2.0
1.0
0.0
-5.0
-0.33
0.67
1.33
6.33
2.33
1.67
7.33
3.33
0.67
-3.0
0.33
-1.67
2.67
2.67
0.67
2.0
-2.33
-2.0
6.33
8.33
0.0
14.33
10.67
1.67
6.33
5.33
1.33
3.33
0.67
-2.33
5.33
5.0
3.0
-6.0
8.67
5.33
6.67
5.67
1.0
3.0
1.33
5.0
-2.67
-8.67
3.33
-0.67
0.67
2.67
9.33
-2.0
2.33
-1.0
3.0
-1.0
-1.0
2.67
4.0
-5.0
1.0
0.0
4.67
1.0
-1.67
0.33
9.33
0.67
6.0
-2.33
2.33
5.33
4.33
0.67
3.67
4.67
-4.33
11.0
-2.33
0.67
2.33
3.0
-2.67
4.0
3.33
1.0
0.33
-1.0
1.67
2.67
-1.33
2.67
8.0
1.0
5.67
8.33
-2.67
-1.0
-5.0
0.33
3.0
-4.67
-6.0
-2.33
-0.33
-0.33
1.0
2.67
1.0
-7.67
-4.67
-0.67
1.0
1.33
6.33
4.0
2.33
3.67
-3.67
0.67
2.33
1.67
4.67
0.33
2.33
3.33
3.67
9.67
-5.0
2.33
-1.0
3.33
3.33
2.0
3.33
0.67
0.33
1.0
5.0
-0.67
1.0
1.67
-1.67
2.0
5.0
9.67
5.33
-1.33
7.33
0.67
6.0
2.33
0.67
-3.67
5.67
7.0
1.0
4.33
-0.33
-4.67
7.33
-0.33
1.33
-3.0
3.33
-1.67
-1.0
-3.0
0.33
3.67
1.0
3.33
4.33
-0.33
1.67
6.0
1.67
-1.0
-1.33
-2.0
6.67
-0.33
-3.67
-1.0
-2.67
2.33
-0.67
4.0
-2.33
1.67
-1.67
-3.33
-1.67
1.0
1.33
3.0
-0.33
2.0
1.67
1.0
0.0
6.33
1.0
1.33
1.67
0.0
-1.33
-0.33
-4.33
-0.33
3.67
0.67
6.33
-2.0
0.67
5.0
5.0
-1.33
4.33
0.33
1.67
2.0
-3.67
3.0
0.0
0.0
1.0
-0.67
-1.33
-0.67
-4.67
1.0
-3.33
1.0
5.33
-2.0
6.0
2.0
-3.0
3.0
0.67
0.67
-0.33
0.0
-0.67
1.67
2.67
-1.33
-1.33
-0.33
1.33
0.0
-2.0
-2.33
0.67
-5.0
0.0
0.0
-1.33
1.0
2.67
1.33
0.67
4.67
-3.33
-7.0
5.0
1.33
0.33
-2.33
-2.33
-4.0
-4.67
1.33
-3.33
-0.33
-0.33
-4.33
-5.67
-0.33
-0.33
0.0
0.67
-1.0
-0.67
1.33
-1.67
-8.67
3.0
-2.67
-4.67
-3.67
-0.33
-0.33
-0.67
-2.0
-3.33
-4.0
-2.33
-0.67
-8.33
-1.33
-4.33
-2.0
-7.33
3.0
-4.33
-5.67
-1.0
-1.33
-2.67
-4.67
-6.33
-9.33
-4.0
-8.67
-0.33
-3.0
-9.0
-2.33
4.0
-7.0
-7.0
-1.67
-2.0
-1.0
0.33
-6.67
2.33
-10.0
3.67
-0.33
0.33
-10.0
-1.33
-5.67
-1.0
0.67
0.33
4.33
1.33
16.33
14.0
21.33
16.0
29.0
14.67
22.33
33.0
29.33
20.67
13.67
10.0
0.67
-1.0
3.33
2.67
-0.67
1.67
1.33
0.67
-0.67
0.33
-2.0
-0.33
0.33
-7.0
-1.0
5.67
-4.0
-1.67
-3.67
-11.0
-6.0
-9.0
-3.33
2.67
-1.0
-8.67
-10.0
-7.33
6.0
-3.0
1.67
-1.0
3.33
-6.67
-11.0
3.0
-2.0
-0.67
-1.67
0.67
-14.0
2.67
3.33
-4.0
-8.67
-14.67
-10.33
-2.67
-3.67
-7.0
-6.0
1.33
-7.0
-7.67
0.0
-8.33
0.33
3.33
-2.0
-6.67
-2.33
0.67
6.0
-5.0
-12.67
3.67
-8.33
-4.67
-7.33
0.33
7.33
-1.0
-0.33
-1.67
4.33
5.0
6.67
-3.0
-3.67
-8.33
-4.33
3.0
2.67
2.0
-5.67
2.33
2.67
7.0
2.67
7.67
-2.0
-4.0
-0.67
1.33
0.67
-8.67
5.0
4.33
-3.0
11.33
16.33
15.33
9.33
25.0
29.67
14.67
15.33
11.67
10.33
5.67
13.0
5.0
-5.0
2.33
6.67
2.0
0.0
-0.67
19.33
8.0
4.0
5.33
3.0
-3.67
1.33
3.33
7.33
7.0
-2.67
-3.33
5.0
11.0
0.67
10.67
5.0
1.67
-2.33
1.0
5.33
12.33
9.0
4.0
5.33
7.67
-5.33
8.0
-1.33
8.0
9.0
2.0
7.0
5.33
20.67
3.67
-0.67
8.0
2.0
5.67
-4.67
11.67
3.67
0.33
11.33
-3.67
5.33
0.67
-2.0
3.67
0.33
4.67
4.33
10.0
2.0
5.0
11.67
3.33
7.33
14.67
4.0
4.33
11.67
3.67
8.0
6.67
7.33
1.67
11.0
5.67
-0.67
-2.0
11.33
0.33
12.0
2.67
9.67
6.0
6.33
22.33
9.33
8.67
0.0
4.67
10.0
3.67
11.67
6.67
12.33
6.67
8.33
8.67
1.33
7.0
9.0
9.67
3.67
12.67
4.0
5.0
9.33
9.0
17.0
4.67
3.33
20.0
18.33
6.67
6.67
20.0
9.33
26.67
23.0
17.67
20.0
18.0
9.33
21.33
40.0
62.33
55.33
55.0
55.67
83.33
117.0
118.0
120.33
95.67
107.33
110.0
100.33
82.67
92.33
63.33
71.33
33.67
34.0
25.33
8.33
11.33
11.67
6.33
8.67
15.33
12.67
5.0
3.33
17.33
10.0
17.0
4.33
12.67
9.67
6.33
14.0
16.0
2.67
7.33
8.67
16.33
6.0
6.67
-1.33
12.67
-2.33
-4.67
12.33
0.33
6.33
14.0
4.67
15.67
11.67
11.33
10.0
19.33
16.0
18.67
-4.0
1.0
22.33
12.0
10.67
23.67
16.0
13.0
12.33
3.0
3.33
-8.67
-0.33
-1.0
9.0
12.33
5.0
8.67
2.67
8.0
0.0
2.33
-3.67
5.0
9.33
9.33
6.33
0.33
15.0
13.67
11.0
21.67
1.0
10.33
1.67
21.0
3.33
12.33
14.67
23.33
8.0
16.0
5.0
10.33
15.33
19.0
31.33
10.33
25.0
43.67
31.33
44.67
38.0
39.67
24.33
25.33
29.67
22.33
28.0
15.33
12.33
5.33
-3.0
18.0
1.33
-2.33
12.67
1.67
0.67
13.33
21.33
10.67
0.0
3.67
10.33
-0.33
7.67
11.33
13.0
-3.0
16.33
15.33
11.33
13.67
10.33
6.33
7.67
5.0
7.67
13.0
16.0
7.67
20.67
9.33
6.0
10.0
4.33
3.67
3.0
-5.33
27.0
5.0
9.33
9.0
5.33
3.33
1.33
5.33
7.67
-2.33
-1.0
-5.67
-9.33
11.67
-2.0
-7.33
9.33
15.0
6.33
-7.0
3.0
-1.0
4.67
2.33
0.0
5.33
-0.33
-9.67
4.33
9.0
11.33
11.67
-2.0
7.67
-4.0
3.33
11.33
3.0
7.67
1.33
10.33
2.33
1.67
2.33
-2.0
10.33
-4.0
3.0
0.33
1.67
1.0
9.33
12.33
-2.67
2.67
-5.0
15.67
-0.67
-0.33
6.67
9.0
6.33
5.67
1.0
5.67
1.33
8.0
-3.33
8.33
4.0
2.0
8.67
2.0
-4.0
-6.33
8.33
6.33
8.0
11.67
3.67
-6.33
-1.67
8.67
-5.0
1.33
1.0
10.0
-2.67
3.67
10.67
6.0
-1.67
-2.33
-7.0
5.0
-3.33
0.33
0.33
0.67
3.0
4.0
-0.67
6.0
4.33
1.0
5.33
-2.67
5.0
15.0
9.33
2.67
0.67
3.33
-0.33
0.67
7.0
11.0
-4.67
-1.67
4.0
-1.33
10.0
-6.33
-4.33
0.67
7.0
0.0
-2.0
6.33
-5.0
-4.0
-3.0
-0.33
0.67
0.0
15.0
6.0
3.0
1.67
4.67
4.33
-5.33
0.67
12.0
-0.67
4.0
5.67
-1.33
3.33
2.0
1.0
5.0
3.67
-5.33
-2.0
-2.0
-2.0
-2.0
-5.0
3.67
-1.33
-1.33
-2.33
3.0
1.0
-2.67
9.67
-0.33
-2.33
-6.0
-1.0
8.67
-0.67
0.0
3.0
-2.33
-0.33
1.33
-3.67
6.0
7.67
0.33
6.67
1.0
-0.67
-2.33
6.33
-0.67
-2.67
-1.33
3.67
3.33
-0.67
0.33
6.33
3.67
-0.33
-4.0
1.33
4.67
-1.67
-3.0
1.33
1.67
0.33
1.33
-2.67
2.0
-2.67
0.33
1.0
9.67
-2.33
-3.0
-1.33
2.0