File: EDX Back Ups and Old Files/Spectra copy 3.3.23/Samples/High pH SF 25C 6d/10.25.txt
0.0
22.67
49.33
-149.33
-30.67
-130.67
-5.67
-2.33
-35.0
-5.67
14.0
20.67
-11.0
6.67
-6.0
-1.33
1.67
-6.67
-2.33
0.33
0.0
1.33
-0.67
-0.67
-0.67
-1.0
1.67
0.0
0.0
0.67
0.33
0.0
-0.33
0.67
-1.0
0.0
-0.33
0.0
0.0
0.67
0.0
0.0
0.0
-1.33
0.0
0.33
-0.67
-1.0
0.67
-1.33
0.33
-1.67
-0.33
-1.0
-0.67
2.0
1.33
-0.67
0.67
-1.67
-0.33
-3.67
0.33
-2.0
-2.0
4.0
6.67
0.33
-0.67
2.67
-2.0
6.33
3.33
0.0
1.67
3.0
1.33
-0.33
3.33
2.67
-1.33
2.33
-0.67
4.0
-1.33
0.67
-2.33
-5.33
3.33
6.0
-1.0
-1.0
4.33
0.0
4.67
-2.67
12.33
-3.0
-4.33
-3.33
6.33
4.33
6.33
0.33
4.0
1.33
0.33
-2.0
1.33
-1.33
2.33
1.0
-0.33
-0.33
4.0
-1.0
1.67
7.33
1.33
-3.33
2.33
5.33
6.0
-4.0
4.33
2.33
-1.67
3.0
1.0
-5.0
5.67
0.33
0.33
5.67
5.67
3.67
-2.67
-0.33
6.33
7.0
8.33
1.67
5.0
1.33
-2.0
4.33
6.33
4.33
6.0
2.0
-2.0
6.0
3.33
5.0
9.0
-1.33
7.0
6.67
7.33
8.0
0.0
4.33
1.33
-1.0
-1.33
1.33
-2.33
-1.33
4.0
-2.0
-1.0
3.33
-3.0
-0.33
-0.33
1.33
7.0
11.0
0.33
6.33
5.0
-1.33
-2.67
6.0
7.0
3.67
1.0
4.67
9.67
7.67
8.67
3.33
-0.33
4.33
0.33
2.0
2.33
1.33
7.33
0.0
2.67
4.33
-1.0
-2.0
5.33
-1.33
-6.33
6.0
5.0
3.0
1.67
-4.0
0.33
5.33
-8.67
2.33
2.67
-1.0
-0.67
-2.33
3.0
0.33
2.33
-5.33
-3.33
-3.33
1.67
0.67
0.0
-3.33
2.67
5.33
8.33
0.33
4.67
-0.67
4.33
-1.67
3.67
3.33
-2.0
2.67
-0.67
3.0
7.0
1.0
-0.33
2.67
3.33
2.67
2.33
0.0
-2.67
-1.33
2.33
0.67
3.33
-0.67
-4.33
-1.33
0.0
-2.0
-1.67
2.33
3.67
-3.0
-2.33
0.67
1.67
1.33
2.67
-1.33
2.0
0.0
0.0
2.0
-0.67
1.33
5.33
-1.0
3.33
-1.33
0.0
4.0
-4.33
-1.67
2.0
1.0
7.33
-1.33
2.0
-4.33
2.33
-1.0
0.67
2.33
1.67
0.67
-1.67
-3.0
0.0
7.0
-3.33
0.33
0.0
3.67
-2.0
2.67
-1.0
0.33
0.0
0.33
-3.0
0.67
2.0
2.0
1.67
5.0
5.0
1.67
1.0
-3.33
-1.67
-2.0
-1.0
4.0
0.33
-5.67
-8.0
-6.0
1.33
-1.33
-2.33
4.33
-4.33
-0.67
2.33
-4.67
1.0
1.67
-1.67
2.67
-6.0
-0.67
1.33
1.0
-3.33
-3.33
2.67
-1.33
-1.0
-4.0
-5.33
0.0
-1.67
4.67
-2.33
-1.0
1.33
0.0
4.67
-0.67
1.0
3.0
-0.33
7.33
0.33
1.67
11.33
-1.0
1.33
-7.33
-3.0
1.0
-1.33
-5.33
-4.33
-2.0
-4.0
-5.67
1.33
-4.33
0.67
-5.33
-2.0
-6.67
1.0
1.0
0.0
-5.0
8.33
-1.0
-3.0
-1.67
-8.0
0.67
2.67
1.33
-2.33
0.0
4.33
12.67
12.67
17.33
15.33
20.33
18.33
38.67
19.33
14.67
13.33
6.0
9.67
12.33
3.67
1.33
1.67
-1.33
-2.0
0.0
-1.33
1.0
-0.67
6.33
2.0
-1.67
-3.33
-1.33
-2.33
-9.67
2.33
-4.0
-10.0
-3.33
6.0
-6.67
-3.33
-4.67
-1.33
0.67
-1.33
-1.67
-4.33
4.0
-4.0
3.0
4.0
7.33
0.67
0.33
3.67
-3.0
-5.33
4.33
2.67
-1.0
-7.0
-5.33
3.67
-5.33
-1.67
-2.33
-3.0
0.33
5.33
-4.33
0.33
-13.0
-6.0
-5.67
5.33
-4.0
12.0
2.33
-10.33
2.0
-4.33
4.33
3.33
4.33
-1.0
-2.67
8.67
4.67
-2.67
0.0
-2.33
0.67
-2.0
-0.33
-1.67
-7.0
12.33
5.33
-1.67
1.67
-0.67
10.33
5.0
0.33
4.0
-3.0
6.0
-2.0
-7.67
-6.67
13.0
1.33
0.67
5.0
19.67
11.33
17.33
14.0
18.67
28.0
17.33
16.0
19.0
23.33
15.67
17.0
13.67
18.67
16.67
5.67
-2.0
1.33
11.0
3.0
11.33
0.33
6.33
-0.67
-0.33
6.0
4.0
7.67
9.33
7.33
4.0
3.33
13.33
-0.67
4.67
-1.33
10.0
-0.67
7.33
4.67
1.67
13.0
8.0
2.33
0.33
10.33
6.33
10.0
2.67
16.0
-4.0
0.67
1.0
4.0
5.67
2.33
12.0
2.67
5.0
3.67
7.67
4.0
1.33
8.33
13.33
16.33
17.33
7.67
6.67
5.33
8.0
0.67
2.0
3.67
6.0
11.33
14.67
6.33
2.67
16.0
11.67
10.0
14.0
4.67
14.33
2.67
12.33
7.67
10.33
5.33
8.33
-8.33
2.0
18.33
3.33
-2.0
10.0
11.33
11.0
7.67
11.33
17.33
6.33
16.67
9.67
11.67
12.67
6.67
15.33
-0.33
10.67
9.33
1.33
12.0
13.33
10.67
1.33
2.33
5.33
5.33
26.67
14.67
17.0
3.0
10.33
13.33
28.0
16.33
25.0
16.0
8.67
30.0
11.33
18.67
22.33
11.67
15.0
25.0
28.67
34.0
52.33
55.0
68.67
91.67
113.0
115.0
136.0
135.67
134.0
131.0
121.67
147.33
93.33
104.67
74.33
47.33
32.0
37.67
38.67
22.33
23.33
19.33
15.33
1.0
21.0
12.67
10.67
17.67
15.33
7.33
6.67
7.33
12.33
16.0
6.67
3.33
8.33
5.0
7.0
8.0
15.33
7.33
4.67
13.67
9.0
23.0
11.33
2.0
-2.33
4.33
9.0
15.33
24.0
9.33
4.33
6.0
0.33
13.33
9.67
13.33
20.33
10.0
1.67
12.0
6.67
10.0
4.67
10.0
-1.67
6.67
-2.67
2.0
1.0
5.67
15.33
-3.0
4.0
11.67
5.33
10.0
-2.67
10.33
1.0
9.33
0.33
1.67
23.33
5.0
14.67
10.67
10.67
15.33
6.33
-2.0
9.0
1.33
13.0
3.67
12.0
15.33
17.33
2.0
8.0
6.67
5.67
20.33
18.0
30.0
9.33
29.0
16.33
26.33
17.33
27.0
31.0
25.0
8.67
20.0
13.0
7.67
17.33
10.67
11.33
15.67
0.0
2.33
-2.0
8.33
-1.67
12.0
-7.33
-3.67
-2.0
17.33
4.0
10.67
7.33
9.67
7.67
8.0
6.0
2.0
8.67
14.33
4.33
21.67
8.33
14.0
0.0
10.0
4.67
5.33
9.67
7.67
7.0
-4.0
12.67
9.33
0.0
-4.67
8.67
2.0
9.67
3.67
-2.33
4.33
-0.33
-3.33
-7.67
0.33
8.33
9.0
6.67
-0.33
-3.67
-1.67
-8.33
2.0
10.0
1.0
-0.67
7.67
-5.33
2.0
8.0
0.0
-9.0
-4.67
-2.0
-4.0
-7.0
5.33
0.67
2.0
-5.67
2.67
15.0
-0.33
-3.33
7.0
0.0
10.67
2.33
-4.0
-9.0
0.0
0.33
-7.33
1.67
1.67
5.67
-5.0
5.33
13.67
5.0
-0.67
8.67
12.67
4.33
-2.33
7.0
3.0
2.67
4.67
0.0
1.33
4.33
11.0
2.0
-3.67
5.0
-12.33
12.67
-1.33
5.67
3.33
6.33
5.33
-3.67
3.0
13.67
2.0
8.33
-2.33
5.33
-2.0
0.0
4.0
-1.67
-2.0
6.33
-10.0
2.33
3.33
5.0
1.33
0.33
1.33
10.33
-2.33
13.33
-1.67
-1.33
-2.0
7.0
-6.0
3.67
8.0
2.67
1.0
-1.0
6.67
-2.33
5.67
-1.0
-4.67
-7.33
2.0
0.33
1.0
7.0
-2.0
-2.0
-0.33
1.33
0.33
5.0
4.67
4.33
-1.67
-0.67
-5.33
1.67
7.33
-0.67
-8.33
3.0
6.0
8.67
11.67
5.0
8.33
0.67
4.67
3.33
6.33
-5.67
1.33
3.0
-3.33
1.67
-0.67
9.33
-0.33
5.0
-1.33
5.33
6.67
7.67
0.67
0.33
0.67
6.33
2.0
-3.67
2.33
4.33
-4.0
0.33
-4.0
6.67
7.33
6.67
1.67
0.67
4.67
0.67
-1.0
-0.67
-1.33
-3.67
6.33
1.67
0.33
0.33
5.33
2.0
-0.67
1.0
0.67
5.67
-1.67
2.0
-1.0
-0.33
6.0
3.33
3.33
-1.33
9.0
-3.0
-4.67
0.67
-0.33
5.33
-3.0
-4.0
3.0
0.33
-0.33
1.0
2.67
1.33
1.33
-6.0