File: EDX Back Ups and Old Files/Spectra copy 3.3.23/Samples/High pH SF 25C 6d/12.25.txt
0.0
30.67
39.33
-11.33
32.33
-67.67
36.33
65.67
-35.0
0.33
-36.0
-34.33
27.0
-4.33
-5.0
0.67
-0.33
-1.67
-1.33
-0.67
1.0
-0.67
1.33
0.33
-0.67
-1.0
-0.33
2.0
2.0
-0.33
-0.67
0.0
-0.33
-0.33
-1.0
0.0
1.67
1.0
0.0
-0.33
0.0
0.0
-1.0
-1.33
-1.0
-0.67
0.33
0.0
-0.33
0.67
-0.67
-1.67
-0.33
0.0
-1.67
2.0
-1.67
0.33
2.67
-2.67
-1.33
2.33
-0.67
6.0
-1.0
1.0
1.67
3.33
-2.67
-1.33
0.0
1.33
-2.67
-1.0
-0.33
6.0
0.33
0.67
6.33
-4.33
2.67
-3.67
-4.67
2.0
8.67
2.67
-4.33
-2.33
9.33
3.0
1.0
5.0
6.33
-1.0
10.67
-3.67
1.33
-3.0
2.67
-4.33
7.33
2.33
2.33
-1.67
-3.0
-1.67
0.33
7.0
2.33
-2.33
-1.67
1.0
1.67
-2.33
2.0
-1.0
-3.33
5.33
2.33
0.67
0.33
-1.67
9.0
-2.0
5.33
-0.67
3.33
4.0
-9.0
-7.0
-0.33
1.33
2.33
-1.33
4.67
0.67
1.33
2.67
6.33
-1.0
0.33
2.67
8.0
1.33
2.0
-2.67
2.33
1.33
-5.0
0.0
-3.0
2.0
1.33
2.0
-2.0
-0.33
6.0
-2.33
-2.67
2.0
7.0
-0.67
4.33
2.0
2.67
-1.67
0.67
2.67
4.0
-1.0
-3.0
-5.67
3.0
-3.33
0.67
-2.67
4.0
0.0
-4.67
2.33
0.0
4.67
3.33
6.0
1.0
-0.33
-1.0
2.67
-5.33
0.67
10.67
-2.67
-4.33
7.33
9.33
0.0
0.33
-0.67
0.33
-2.0
-0.33
2.33
-2.0
6.0
-0.67
1.67
-3.33
2.0
4.0
0.0
1.67
-3.0
0.33
3.33
-3.67
3.33
-1.33
3.0
1.33
-4.33
-3.0
2.33
-1.67
-4.33
3.67
-2.33
0.67
4.67
0.0
-1.33
-2.33
-3.67
-0.67
0.33
0.67
8.33
3.33
-0.67
-3.33
1.33
0.0
4.67
2.33
4.0
5.0
-2.0
-1.33
-0.33
-0.67
-3.33
1.33
0.0
-1.67
-3.33
-1.67
1.67
6.33
0.33
-7.33
2.67
1.0
0.0
-0.67
0.33
4.67
0.0
-0.33
-2.33
-1.33
-0.67
1.67
-1.33
-3.0
1.0
-3.0
0.0
-1.67
-0.67
3.33
2.0
3.33
2.67
-3.0
-2.0
-2.33
2.33
-3.0
-2.0
1.33
1.67
3.0
-4.33
1.33
-2.0
-1.33
-0.67
-0.33
-3.33
-0.67
-6.0
-1.0
4.0
-1.33
0.33
-2.0
0.67
-2.0
0.67
0.0
-0.67
4.0
5.33
1.0
-2.33
-1.0
-2.0
6.67
-4.0
-4.0
1.67
-1.0
5.67
3.33
2.0
-2.0
1.0
5.33
-4.67
-5.0
6.0
-2.67
-0.33
1.67
3.33
-1.33
1.33
-1.67
-5.67
2.0
8.67
0.33
-3.33
-4.0
1.33
-2.67
-5.0
-4.33
-2.33
0.67
0.67
1.0
-3.0
-2.33
-4.0
-1.67
3.67
-3.33
-5.0
-2.67
-2.0
1.67
-2.67
-6.0
-2.0
-0.33
9.33
-2.67
1.67
-3.67
3.0
1.33
-4.33
1.0
3.0
0.67
-3.33
-3.33
-1.0
-3.0
2.33
-2.67
0.67
-4.33
-3.33
-1.0
-1.67
-2.0
2.0
-5.0
-3.0
-2.67
1.0
3.0
3.33
-6.0
0.67
-3.33
0.33
-4.33
2.0
-0.67
-4.33
-2.33
4.33
9.33
-1.67
-2.67
-1.33
-0.67
-4.33
1.33
1.0
-2.33
2.33
-7.33
-3.67
-8.33
1.67
-6.0
-3.0
1.67
5.0
-2.67
4.33
-3.0
-4.67
-4.33
-3.33
0.67
-5.67
0.33
-2.0
-9.0
-1.33
5.0
-7.67
-6.33
-4.67
-0.33
-2.33
-0.33
-4.67
-1.33
4.0
-3.0
0.0
-2.0
1.33
5.67
3.33
-6.33
0.0
-5.33
5.33
2.67
2.0
-10.0
-4.33
-10.33
-0.33
5.33
1.67
-2.0
2.33
4.33
4.67
-4.67
1.0
2.0
-7.67
0.33
-2.0
6.0
-3.67
3.67
2.0
3.67
-0.67
3.33
0.33
-7.0
-0.67
-1.33
6.67
-0.67
0.0
1.67
-0.33
4.0
-3.33
12.33
-3.0
6.33
0.33
-4.67
6.67
9.33
2.33
7.0
9.33
7.0
0.0
6.0
-2.0
3.33
-3.67
2.0
12.33
7.67
9.0
14.67
14.33
16.33
29.0
16.67
34.0
18.33
14.0
31.0
30.33
14.67
10.0
22.67
19.67
12.67
15.67
7.0
2.33
2.0
9.0
9.33
-7.67
1.33
5.33
2.67
9.0
11.0
0.67
-6.67
13.33
-1.0
5.33
9.33
-0.67
7.67
1.67
0.0
-2.67
-1.67
3.67
2.67
10.0
5.0
0.33
16.33
5.33
-0.67
-1.0
2.67
2.0
2.0
12.67
1.0
6.0
5.67
2.33
0.0
2.67
2.0
7.67
12.67
11.0
-2.67
6.33
-2.67
8.33
5.33
4.67
1.67
2.33
6.0
9.67
-4.0
3.67
13.0
5.33
-5.33
1.33
-4.33
-1.0
14.67
-7.0
-7.0
0.67
1.33
-7.33
2.33
10.67
5.33
7.33
-1.67
-2.33
9.0
6.33
2.33
-2.0
5.0
2.33
-1.0
0.67
2.33
8.33
3.33
0.67
-1.33
8.67
6.67
13.67
0.33
-1.33
-0.33
2.33
-0.67
10.0
5.33
3.67
-0.67
-2.67
8.33
-0.67
0.67
20.67
4.0
0.0
-1.67
7.33
12.0
0.33
-1.0
12.0
6.67
6.0
0.33
20.67
13.33
8.67
10.0
21.0
40.67
36.0
77.33
78.0
112.67
111.67
140.0
151.0
166.0
166.67
143.0
162.0
140.67
166.33
115.33
118.67
99.33
91.33
73.0
32.67
23.67
20.33
13.33
2.33
2.33
10.0
5.0
2.67
2.67
4.67
7.33
-6.67
-2.33
10.33
10.33
-1.0
16.67
2.33
6.33
2.0
-1.0
0.0
2.33
8.33
-2.33
-1.33
1.0
8.0
2.33
0.0
10.67
-7.67
5.0
19.33
18.0
4.33
4.33
10.0
5.33
6.33
-6.33
9.33
-0.67
2.0
-8.33
3.0
0.67
9.0
-2.33
6.0
4.33
1.67
-4.67
-1.0
17.0
-7.33
2.33
-4.0
9.0
9.67
6.33
11.0
-0.67
6.33
4.0
5.33
0.33
4.67
5.33
10.0
4.67
12.67
5.67
5.33
0.33
8.0
-3.0
4.33
11.0
-0.33
3.0
0.33
11.33
-1.0
3.0
6.67
0.67
6.33
-1.0
10.0
-2.67
5.0
3.33
7.33
2.33
7.0
8.0
-5.0
-5.33
1.0
-12.0
0.67
8.33
-1.33
10.33
-0.33
-12.0
6.33
-18.0
2.33
2.33
-5.0
1.67
9.33
-7.0
9.33
5.0
12.67
2.33
10.67
10.67
2.0
1.0
6.0
3.67
10.33
7.33
4.67
0.33
6.0
7.0
6.0
7.67
-1.67
11.67
4.67
6.0
-1.0
17.67
4.33
5.0
10.33
6.67
-4.0
5.67
0.67
-2.33
1.33
10.67
-3.33
-5.67
9.33
-2.67
12.0
9.67
0.67
3.33
-9.67
-4.33
-7.0
-1.0
2.0
2.33
13.67
1.67
1.0
6.0
-5.0
7.0
-1.67
-14.0
-8.0
-6.0
11.33
1.67
-2.0
4.33
-1.33
12.0
1.67
8.67
7.0
10.0
5.67
6.33
4.0
7.0
4.0
-6.67
5.67
0.67
1.67
6.67
1.0
5.33
10.67
13.0
-4.67
2.67
3.67
-3.67
1.67
5.0
-2.0
-13.33
1.67
10.0
14.33
8.33
9.0
14.0
5.33
-8.0
-7.33
8.67
6.67
-0.33
-6.67
2.33
9.33
-9.67
-1.0
8.67
-1.0
6.33
4.67
3.33
4.0
7.0
-4.0
1.33
-4.0
-0.67
0.0
-5.67
4.33
2.0
5.33
0.33
-1.67
6.33
2.67
-2.67
-9.67
2.67
-1.0
1.0
6.0
-1.33
3.0
-4.33
-1.0
-1.0
-0.33
3.67
1.67
-12.0
0.33
-8.33
-6.0
7.33
5.0
-1.0
4.0
-6.0
2.67
1.33
-4.67
-1.0
-1.33
3.33
-2.67
-5.67
-10.33
-0.33
0.33
-0.67
-4.33
4.0
2.0
3.67
1.67
3.0
3.33
-0.33
7.67
10.33
-1.67
-0.67
3.33
0.0
-0.33
0.67
4.33
0.33
2.67
2.0
5.67
2.33
3.67
7.67
-4.33
0.33
-3.33
4.33
6.0
-2.67
3.33
0.33
-6.0
-0.67
2.0
4.67
-2.67
-4.33
5.67
4.67
-0.33
-4.33
2.0
-2.67
1.67
0.33
3.33
-0.33
3.33
3.33
-5.67
5.0
-0.67
2.0
-3.33
4.67
3.33
1.0
-1.0
-5.33
1.0
2.33
2.33
0.67
0.0
-2.0
-1.67
1.67
-0.33
5.33
-2.0
-3.0
2.0
2.33
-3.33
2.0
-1.33
-1.67
1.33
1.0