File: EDX Back Ups and Old Files/Spectra copy 3.3.23/Samples/High pH SF 25C 6d/6.5.txt
0.0
60.67
6.33
-72.33
58.33
-17.67
65.33
63.67
29.0
-16.67
32.0
28.67
8.0
0.67
5.0
-4.33
0.67
-1.67
2.67
1.33
-1.0
0.33
0.33
-0.67
0.33
1.0
0.67
2.0
0.0
-0.33
-0.67
0.0
-0.33
-0.33
-1.0
0.0
-0.33
2.0
0.0
-0.33
2.0
0.0
-1.0
-0.33
0.0
-0.67
0.33
0.0
2.67
0.67
0.33
-1.67
2.67
2.0
-1.67
-1.0
0.33
-1.67
0.67
-2.67
-0.33
-1.67
3.33
4.0
2.0
2.0
3.67
-0.67
-2.67
5.67
3.0
2.33
-1.67
8.0
-0.33
1.0
4.33
1.67
1.33
-1.33
-1.33
3.33
-3.67
0.0
13.67
6.67
10.67
3.67
8.33
5.0
4.0
1.0
2.33
0.0
0.67
3.33
7.33
9.0
3.67
-0.33
3.33
5.33
0.33
2.33
0.0
6.33
-0.67
6.0
10.33
-0.33
1.33
1.0
4.67
5.67
-2.0
0.0
2.67
1.33
1.33
4.67
1.33
4.33
11.0
3.0
-1.67
4.33
11.33
7.0
-5.0
8.0
2.67
3.33
9.33
-6.33
-1.33
-0.33
3.33
1.67
7.33
4.0
3.33
-2.33
4.0
3.33
-2.0
0.33
8.33
6.33
-2.0
6.0
-1.0
2.0
4.33
4.0
3.0
3.67
5.0
0.67
6.33
10.0
9.0
2.33
2.33
7.0
-1.33
1.33
7.67
0.67
-2.0
1.0
-1.0
-0.67
-3.0
-4.33
8.67
-3.67
5.0
-1.0
1.33
1.33
4.0
9.67
7.33
1.0
0.0
3.67
-2.0
6.67
-1.33
7.67
10.67
4.33
1.67
5.33
-0.67
9.0
1.33
-1.67
1.33
2.0
-0.33
2.33
-1.0
3.0
3.33
-0.33
1.67
4.0
-1.0
4.0
6.67
-3.0
1.33
4.33
-2.67
0.33
2.67
1.0
3.33
1.67
3.0
0.33
6.33
-7.33
-2.33
-0.33
2.67
2.67
2.0
-3.33
2.67
3.33
6.33
6.33
1.67
4.33
6.33
2.33
2.67
1.33
3.0
4.67
4.33
-3.0
-1.0
1.0
-2.33
-1.33
0.33
6.67
6.33
-6.0
-0.67
-3.33
-6.67
4.67
3.33
2.33
-0.33
-1.33
1.0
-2.0
-4.67
1.33
4.67
3.0
0.67
-2.33
-1.33
0.33
5.67
-3.33
0.0
-4.0
-4.0
2.0
3.33
0.33
1.33
6.0
0.33
3.67
-2.0
2.0
1.67
6.33
2.0
3.0
1.33
-1.33
4.0
0.67
2.33
-2.0
0.67
3.33
-2.33
-0.33
-1.67
0.0
4.0
5.0
-2.33
-1.67
2.0
-0.33
1.0
-2.33
1.0
4.33
3.0
3.33
-1.0
0.67
3.0
3.0
4.67
5.0
1.0
5.67
-3.0
2.67
2.33
4.0
-2.0
-1.0
1.33
-2.67
0.0
-1.0
-3.67
1.67
2.67
-1.67
1.67
-0.67
4.33
-2.67
1.0
5.67
5.33
-5.33
-7.0
-7.67
-1.67
-1.0
-3.33
-7.33
1.67
-1.33
-1.0
0.0
7.67
-2.0
1.33
-0.33
-4.33
-2.0
1.33
-2.0
-0.33
-0.67
-2.0
-2.0
-7.33
-0.67
-3.67
1.67
4.33
3.0
-3.67
-5.33
-6.0
-1.0
-0.33
-3.33
-0.33
-4.0
-4.0
-1.67
-0.67
-5.33
-1.33
-6.33
2.0
-3.67
-3.0
1.0
-1.0
1.0
4.33
5.0
-6.0
-2.67
-3.0
2.67
0.67
0.33
-0.33
0.0
9.33
7.67
11.67
11.33
19.33
21.33
15.33
23.67
14.33
15.67
2.33
14.0
7.67
1.33
-0.33
6.33
-6.33
2.67
-3.0
2.0
2.67
-1.0
3.33
4.33
-1.0
-2.67
0.67
-3.33
-0.33
-6.67
-1.67
-4.0
-3.0
-0.33
0.0
-4.67
-6.33
-2.67
-2.33
-3.33
-2.33
-3.67
3.67
5.0
-1.0
4.0
0.0
1.33
-4.33
2.33
4.67
-5.0
2.67
-0.67
0.67
5.0
-6.0
-2.33
-6.33
-3.33
0.33
-7.33
2.0
-4.67
12.33
-5.33
-4.67
-4.0
-1.0
0.33
4.33
-2.0
4.0
-0.67
9.67
0.0
-5.33
-6.67
-4.67
-5.67
1.0
-1.67
-3.33
0.67
-3.67
0.0
-3.33
9.67
2.0
-0.33
-3.67
-1.0
2.33
-1.67
-4.67
-0.33
4.33
1.33
-2.0
-5.67
5.0
0.0
-2.0
0.0
-0.67
-1.67
1.0
3.33
2.67
9.0
3.67
9.33
5.33
17.0
6.67
14.0
6.33
7.0
7.0
3.33
13.67
13.0
12.67
17.67
6.67
14.67
-1.0
11.33
1.0
2.0
5.33
9.33
3.33
6.33
1.67
4.0
2.0
-2.33
-0.67
4.33
8.0
7.33
14.33
3.33
13.67
0.67
8.0
6.33
1.33
7.67
4.67
2.0
11.0
8.33
3.33
3.33
-1.67
13.0
3.67
-1.0
-2.0
5.67
4.0
6.0
4.67
2.33
6.0
9.67
-1.0
10.67
11.67
5.0
-0.67
11.33
5.33
26.33
4.33
17.67
14.67
14.33
11.0
9.67
6.0
3.67
26.0
4.33
12.67
-0.67
6.67
16.0
27.67
-3.0
7.0
14.67
10.33
-7.33
2.33
8.67
11.33
4.33
9.33
1.67
15.0
14.33
4.33
5.0
5.0
-1.67
16.0
9.67
2.33
7.33
-1.67
6.67
6.67
14.67
6.67
9.67
-2.67
8.67
6.67
12.33
0.33
13.0
6.33
6.67
7.33
6.33
11.33
9.33
2.67
10.67
12.0
13.0
3.33
14.33
22.0
14.33
12.0
21.0
16.67
17.0
14.33
16.67
31.33
12.67
16.0
21.0
32.67
33.0
29.33
41.0
63.67
58.67
82.0
75.0
106.0
79.67
114.0
86.0
91.67
64.33
70.33
57.67
46.33
31.33
35.0
20.67
19.67
13.33
17.33
13.33
15.33
18.0
8.0
14.67
14.67
3.67
12.33
9.33
-4.33
-0.67
15.33
10.0
11.67
8.33
10.33
3.0
7.0
2.0
9.33
4.33
3.67
11.67
12.0
3.0
10.33
10.0
7.67
-1.67
2.0
4.33
13.0
-3.67
13.33
10.0
11.33
11.33
8.67
19.33
2.33
9.0
-1.33
3.0
1.67
1.0
0.67
5.0
12.33
7.67
2.33
15.0
6.0
0.67
6.33
-3.0
8.0
4.67
8.33
12.0
4.33
11.33
11.0
8.33
9.33
0.67
11.33
15.0
9.67
-2.33
3.67
10.33
7.33
-4.0
8.0
-1.67
5.0
9.67
2.0
11.33
9.33
0.0
17.0
30.67
21.67
18.33
18.0
31.0
28.33
30.0
36.33
26.33
34.33
15.0
23.0
20.0
9.67
13.0
31.0
17.67
9.33
4.67
12.33
5.67
-4.0
16.33
8.0
1.33
13.33
14.0
1.67
8.33
0.0
11.33
18.0
10.67
13.33
2.67
8.67
8.0
2.0
1.0
9.67
11.33
15.33
6.67
13.33
4.0
8.0
7.0
13.67
5.33
5.67
15.67
7.0
5.0
4.67
10.33
0.0
3.33
-4.33
4.0
3.67
1.67
6.67
8.33
15.67
12.67
11.33
5.33
12.33
13.0
5.67
2.67
-1.67
-6.67
-1.33
3.0
6.0
6.0
-1.67
3.67
6.67
-2.0
10.0
1.0
10.0
-1.67
1.0
4.0
-7.0
2.33
-1.33
5.0
-2.67
8.67
6.0
-1.33
13.67
7.0
-2.0
1.67
1.33
6.0
8.0
-4.0
7.33
5.67
5.67
-0.33
11.67
8.0
2.33
5.67
11.0
1.33
4.67
9.67
7.33
6.67
3.0
8.0
-0.33
3.67
-1.0
12.33
2.33
2.0
11.0
6.33
8.0
-1.33
16.67
4.67
-3.33
3.33
3.33
3.33
0.33
10.0
-7.33
5.0
5.33
13.67
6.33
0.0
3.0
9.0
4.33
1.0
-1.67
-8.0
3.33
-6.67
6.0
1.33
1.33
5.33
9.33
4.67
7.33
-3.67
-2.33
2.0
4.0
-5.0
1.67
11.0
5.67
4.0
1.0
-2.33
-0.33
10.67
-4.0
-1.67
-3.33
3.0
12.33
-1.0
8.0
5.0
-2.0
-2.33
7.33
4.33
9.0
3.67
10.33
-2.67
-6.67
1.67
2.67
2.33
-6.67
1.67
2.0
10.0
-1.33
-2.33
8.0
7.33
1.67
6.67
-3.67
3.33
1.33
9.33
-2.0
2.67
-5.33
-1.67
7.33
3.67
9.0
-0.33
6.33
2.67
14.67
-1.33
8.33
4.67
2.33
0.0
-6.67
1.33
-1.67
-1.0
1.33
2.0
5.67
4.33
6.67
4.67
10.67
-3.33
1.67
-5.0
2.33
6.67
0.33
4.33
2.67
2.33
6.33
0.33
7.0
5.33
-2.0
5.67
-1.33
2.33
3.0
2.0
5.67
4.0
0.33
-1.67
1.67
8.0
0.0
-5.67
3.67
-1.33
1.33
6.0
3.0
5.0
-0.67
4.67
9.0
4.67
4.33
2.33
1.0