File: EDX Back Ups and Old Files/Spectra copy 3.3.23/Samples/High pH SF 25C 6d/6.75.txt
0.0
-2.33
83.33
-20.33
112.33
-53.67
58.33
65.67
-14.0
48.33
-14.0
32.67
29.0
18.67
-5.0
6.67
0.67
2.33
-0.33
1.33
0.0
-0.67
0.33
0.33
-0.67
-1.0
-0.33
0.0
0.0
0.67
-0.67
0.0
0.67
-0.33
-1.0
0.0
0.67
1.0
0.0
-0.33
1.0
0.0
1.0
-1.33
-1.0
0.33
0.33
-1.0
-0.33
-0.33
1.33
-1.67
-0.33
0.0
1.33
-1.0
0.33
-0.67
0.67
-0.67
-1.33
0.33
-1.67
-4.0
-1.0
7.0
0.67
3.33
4.33
2.67
-1.0
-7.67
-2.67
4.0
4.67
7.0
5.33
3.67
2.33
6.67
-3.33
-0.67
-0.67
0.0
5.67
2.67
2.67
3.67
-2.67
10.0
-1.0
1.0
6.33
-5.0
4.67
-3.67
6.33
5.0
1.67
-5.33
8.33
-3.67
3.33
4.33
5.0
6.33
12.33
-1.0
4.33
6.67
3.33
5.0
-3.33
-1.33
4.0
4.0
-0.33
4.33
0.33
13.67
5.33
11.33
-3.0
0.0
1.33
3.33
7.33
3.0
-1.0
-2.0
-0.33
6.33
6.33
3.67
8.67
5.67
0.33
0.67
6.33
5.0
0.33
4.67
4.0
2.33
8.0
9.33
2.33
6.33
8.0
0.0
-3.0
5.0
3.33
2.0
1.0
3.67
9.0
0.67
2.33
3.0
8.0
2.33
0.33
7.0
3.67
2.33
-1.33
1.67
-1.0
5.0
-1.0
-5.67
1.0
1.67
7.67
0.33
-1.0
6.0
1.33
1.33
0.0
3.67
6.33
8.0
1.0
5.67
-2.0
-1.33
2.67
0.67
0.67
10.33
2.67
5.33
7.33
3.0
2.33
-0.67
6.33
0.0
0.67
2.33
0.0
-2.0
-0.67
5.67
-4.33
3.0
2.0
4.0
-4.33
3.0
1.33
1.33
-2.67
3.33
2.67
4.0
2.33
-1.33
5.0
3.33
0.33
-1.33
-0.33
2.67
-3.33
1.67
2.0
-2.33
1.67
-3.67
0.33
6.33
5.67
1.33
-0.67
-2.67
3.67
4.33
1.0
4.67
-0.67
-4.0
5.0
0.0
-4.33
0.67
0.33
1.67
2.33
5.0
3.33
-4.33
-1.67
-1.33
1.33
3.33
-4.33
5.67
4.0
-1.0
-2.67
-0.67
5.67
3.0
2.67
-2.33
0.67
-0.67
2.67
0.67
2.0
0.0
-3.0
3.0
5.33
5.33
2.33
8.0
-1.67
2.67
1.0
-4.0
2.67
7.33
6.0
1.0
1.33
-1.33
-2.0
1.67
4.33
-1.0
2.67
4.33
-0.33
-0.33
1.33
1.0
1.0
1.0
0.67
0.33
1.0
-0.33
-1.0
0.67
2.0
1.33
1.0
-0.67
-3.0
-0.33
4.0
-1.0
-0.33
-1.0
1.0
6.67
2.0
-3.33
0.33
1.0
-5.0
-2.0
1.33
-1.67
-7.0
1.0
-1.67
-0.33
-3.33
-0.67
6.67
-0.67
2.33
-3.67
-1.0
-0.33
0.33
-4.33
-6.0
-5.67
0.33
-3.0
-1.33
-2.33
0.67
-2.33
-2.0
-3.0
-2.33
2.0
-1.67
3.67
1.67
-1.0
-0.67
-3.0
-0.33
0.33
-3.0
-2.0
-0.33
6.33
3.33
-0.33
4.33
-1.0
4.33
-1.33
0.0
1.0
-3.33
-2.33
-3.33
2.0
2.0
1.33
-2.67
0.67
9.67
-1.33
1.0
-6.67
-3.0
2.0
0.0
4.0
-0.67
3.0
-1.0
2.33
-3.0
8.67
2.67
-1.67
-2.33
-5.0
4.33
1.67
7.67
13.33
7.33
23.33
21.33
20.67
25.33
21.67
5.33
11.0
2.67
3.33
10.67
6.33
-0.33
-3.33
-3.0
0.0
0.67
0.0
-2.67
4.33
5.0
-1.67
5.67
-1.33
-3.33
-3.67
-4.67
-3.0
-2.0
-6.33
2.0
-2.67
-6.33
-5.67
-3.33
-1.33
-2.33
0.33
-7.33
1.0
-6.0
5.0
-4.0
-4.67
-2.33
1.33
-1.33
1.0
-6.33
1.33
-1.33
-1.0
-3.0
-2.33
0.67
-4.33
1.33
1.67
-9.0
-1.67
2.33
4.67
0.33
-4.0
-7.0
-3.67
1.33
1.0
-4.0
1.33
-9.33
-3.0
1.67
-5.67
2.33
1.33
-4.0
-3.67
0.67
5.67
-1.67
-1.0
5.67
8.67
7.0
-5.33
1.33
-2.0
-3.67
1.33
-2.67
-2.33
2.33
0.33
4.0
2.33
-5.0
1.0
4.0
0.0
0.33
-2.67
4.0
-4.67
5.67
3.0
2.67
11.33
17.33
5.0
11.67
14.0
17.33
6.0
19.0
7.33
12.67
22.0
16.67
10.67
0.67
-0.33
4.0
-3.67
-3.0
2.0
1.33
7.33
0.33
4.33
3.67
3.0
4.0
-6.33
2.33
8.33
7.0
6.33
8.33
8.33
8.67
6.67
9.0
0.33
5.33
-0.33
1.67
10.0
15.0
-2.67
10.33
-0.67
2.33
5.0
4.67
6.0
0.0
10.67
6.0
8.0
10.67
9.33
7.0
-0.33
14.0
6.67
5.67
12.0
7.33
5.33
10.33
12.33
7.33
11.67
9.67
5.33
8.0
3.67
-2.0
4.67
19.0
9.33
7.67
9.33
1.67
13.0
10.67
6.0
0.0
8.67
15.33
5.67
6.33
13.67
12.33
-0.67
3.33
-3.33
5.0
12.33
17.33
0.0
12.0
1.33
6.0
8.67
2.33
10.33
5.33
10.67
10.67
6.67
6.67
9.67
10.33
9.67
9.67
11.33
2.33
12.0
8.33
13.67
11.33
5.33
11.33
5.33
11.67
13.67
14.0
20.0
10.33
11.33
22.0
6.33
15.0
21.0
21.67
12.0
22.33
17.67
28.33
10.67
14.0
29.0
27.67
27.0
41.33
27.0
48.67
77.67
68.0
66.0
78.0
92.67
86.0
82.0
69.67
92.33
58.33
57.67
50.33
41.33
41.0
22.67
20.67
24.33
19.33
21.33
10.33
2.0
14.0
9.67
-2.33
9.67
13.33
17.33
-0.33
8.33
11.33
10.0
6.67
3.33
7.33
4.0
2.0
3.0
18.33
10.33
8.67
5.67
-7.0
11.0
1.33
2.0
9.67
10.33
6.0
12.33
11.0
5.33
6.33
12.0
14.33
-0.67
11.67
15.33
-0.67
5.0
2.67
16.0
1.67
13.0
3.67
-3.0
17.33
18.67
5.33
1.0
5.0
6.67
14.33
4.0
14.0
17.67
4.33
8.0
6.33
5.33
24.0
2.33
14.33
9.67
10.33
6.0
0.67
0.67
11.67
13.33
4.33
8.0
15.0
-5.67
12.0
9.67
8.0
6.33
0.33
14.0
11.0
14.67
26.67
18.33
23.0
33.0
22.33
13.0
16.33
40.33
29.33
23.0
24.0
17.0
23.67
15.0
15.0
18.67
6.33
1.67
0.33
-0.33
11.0
9.33
5.0
2.33
5.33
7.0
0.67
1.33
7.0
13.33
13.0
8.67
-0.67
13.67
4.67
19.0
14.0
2.0
10.67
9.33
5.33
2.67
3.33
15.0
11.0
-1.0
-0.33
12.33
-4.33
0.67
3.0
10.0
17.67
7.33
13.0
5.33
-1.33
3.0
2.67
2.67
-0.33
-7.67
7.67
-0.33
13.33
-10.67
11.33
6.0
4.67
4.67
-0.67
-1.67
-5.33
3.0
1.0
2.0
2.33
6.67
-2.33
17.0
16.0
-7.0
1.0
10.33
3.0
-2.0
3.0
-2.67
4.67
5.0
6.33
-2.33
0.0
-5.33
3.67
1.0
1.0
7.67
6.33
2.0
8.0
-4.0
6.33
-3.33
2.67
5.67
0.67
4.0
2.33
10.67
5.0
-0.67
-2.33
18.67
10.33
12.67
3.0
-4.0
0.67
-4.33
0.0
6.33
11.33
4.0
6.0
8.33
3.0
0.67
10.67
9.67
3.67
-0.67
12.33
10.33
-6.67
4.0
4.67
0.0
5.33
-2.33
5.33
-4.0
6.0
4.0
11.33
-7.0
6.33
1.0
0.33
2.33
2.0
5.33
-8.67
8.33
10.33
4.67
11.33
-8.67
-1.33
-2.0
9.0
-2.0
-3.33
10.0
-0.33
6.0
-3.0
-0.33
-0.33
11.67
3.0
0.33
-4.33
5.0
-0.67
1.0
-2.0
1.0
-5.0
-2.33
-1.67
-1.67
6.0
-1.33
7.33
0.33
-4.67
-6.33
-4.33
0.33
-4.67
5.67
1.0
6.0
8.67
-0.33
8.0
-1.67
6.67
4.67
5.33
3.33
4.33
-1.67
-4.0
-0.33
4.67
8.33
-2.67
-0.33
0.0
0.67
3.33
-2.33
6.67
5.67
-5.67
1.67
9.33
4.0
-6.67
3.33
-0.67
-2.0
2.33
3.0
4.67
4.33
0.67
2.67
-0.33
-0.33
3.67
-1.0
6.33
3.67
2.33
-1.67
1.67
1.33
3.33
-2.67
6.0
8.33
2.0
-5.33
5.67
3.33
2.0
-2.0
-1.33
2.0
6.33
0.33
4.67
1.0
3.0
2.33
3.67
-1.33
8.33
4.0
-1.0
7.0
-0.67
4.67
5.0
5.67
-2.67
5.33
-1.0