File: EDX Back Ups and Old Files/Spectra copy 3.3.23/Samples/High pH SF 25C 6d/8.25.txt
0.0
48.67
53.33
-27.33
39.33
-37.67
85.33
16.67
12.0
2.33
-16.0
-23.33
-10.0
17.67
-5.0
7.67
-2.33
0.33
-2.33
-0.67
-1.0
1.33
-0.67
0.33
0.33
1.0
-0.33
0.0
1.0
-0.33
-0.67
1.0
2.67
-0.33
-1.0
0.0
-0.33
2.0
-1.0
-0.33
0.0
0.0
0.0
-1.33
0.0
0.33
-0.67
1.0
0.67
0.67
-0.67
-1.67
-0.33
1.0
1.33
4.0
-0.67
-2.67
-2.33
-1.67
-0.33
-0.67
-2.67
5.0
-1.0
2.0
7.67
-0.67
-1.67
-5.33
0.0
1.33
-3.67
6.0
1.67
1.0
-0.67
4.67
5.33
4.67
-0.33
-0.67
-1.67
4.0
2.67
-1.33
3.67
-2.33
3.33
4.0
3.0
1.0
10.33
0.0
4.67
0.33
7.33
-1.0
6.67
-0.33
1.33
-1.67
3.33
-1.67
4.0
6.33
6.33
5.0
3.33
7.67
-2.67
2.0
3.67
6.67
5.0
6.0
-0.33
10.33
-0.67
3.67
2.33
-0.67
-3.0
-2.0
7.33
0.33
7.33
6.0
-4.0
1.0
1.67
-0.67
-1.67
-2.33
1.67
1.67
4.33
-0.33
8.33
-2.0
-0.67
1.67
7.0
3.33
2.0
0.33
-0.67
4.33
4.0
-2.0
2.0
-2.0
5.33
-1.0
-1.0
4.67
6.0
3.67
0.33
2.0
9.0
0.33
1.33
0.0
-1.33
-3.67
-0.33
-1.33
1.0
0.0
2.0
3.33
3.0
2.67
3.67
-2.67
5.0
-1.0
1.33
4.33
1.0
8.67
8.33
10.0
1.0
3.67
1.0
-3.33
4.67
1.67
2.67
3.33
-4.33
4.33
7.33
2.0
-2.67
2.33
10.33
2.0
7.67
5.33
2.0
5.0
2.33
-1.33
1.67
-1.0
2.0
11.0
0.67
3.0
0.33
2.33
-2.67
1.33
1.67
-2.0
7.33
0.67
5.0
1.33
-0.67
-4.33
1.67
0.67
0.67
1.67
2.0
0.67
2.67
1.33
3.33
3.33
3.67
2.33
4.33
2.33
3.67
2.33
-4.0
6.67
1.33
-2.0
3.0
-2.0
-6.33
1.67
-3.67
-0.33
3.33
0.0
2.33
-2.33
-6.67
-1.33
5.33
-1.67
-7.33
0.67
3.0
-2.0
-0.67
0.33
-0.33
2.0
3.67
1.67
4.67
0.33
6.67
-0.33
-2.0
1.0
-1.0
0.0
2.33
4.33
3.33
1.0
1.33
-3.33
3.0
1.0
1.67
-0.67
1.0
3.0
1.33
0.67
1.0
0.67
3.33
-2.0
1.67
6.33
1.67
-0.33
5.33
-5.0
1.0
4.0
1.67
2.33
-1.0
-2.33
0.0
-3.33
4.0
0.33
2.0
1.33
-1.0
-0.33
2.0
-1.0
2.67
-2.0
1.0
-0.33
-4.0
-1.33
2.33
7.0
0.0
-4.0
7.33
-1.67
-6.0
-3.0
-3.67
-0.33
1.67
-1.67
-3.33
-0.67
-2.67
-3.67
1.0
0.67
2.33
-0.33
-4.0
3.33
3.33
3.0
-0.33
-4.33
-1.33
-3.33
2.0
0.0
0.67
2.0
-3.67
3.67
0.67
2.0
-1.67
-5.0
-3.33
-0.67
-2.0
-3.0
-1.33
-5.67
-4.67
1.67
0.33
-4.0
4.33
-6.33
-4.0
-4.0
-5.33
-5.33
-1.33
0.0
0.0
5.33
0.33
-2.33
1.67
-5.33
-5.0
-7.67
-3.0
-1.0
-4.0
1.0
-4.67
-6.0
-4.0
-0.67
-6.0
-1.33
3.67
0.33
-2.33
8.0
6.33
8.67
11.67
23.33
15.33
17.33
28.33
14.67
22.33
17.67
12.33
13.0
10.67
2.33
1.67
2.33
-4.33
3.67
-5.0
1.0
6.67
4.0
-3.67
3.33
3.0
5.33
-0.33
-7.33
-1.33
-6.67
-6.67
1.0
-4.0
-3.33
1.0
-9.67
-6.33
-8.67
2.67
-10.33
-3.33
1.33
-3.33
0.0
-7.0
-5.0
-6.0
-0.67
2.67
6.33
-7.33
-6.0
-2.33
0.33
4.67
4.0
-5.0
-9.33
-4.33
-5.33
-1.67
-0.33
2.0
-2.67
1.33
-1.33
-0.67
-10.0
5.0
-2.67
-4.67
-6.0
2.0
0.33
0.67
-4.0
-0.33
-1.67
3.33
2.33
-11.0
0.33
2.67
0.67
-2.67
-1.0
-0.33
6.67
-3.0
3.67
-1.67
-8.0
-3.67
3.33
0.33
1.67
-3.67
3.33
0.0
-1.67
5.0
-3.0
-9.0
-3.0
1.33
-4.67
3.0
0.33
7.67
5.0
6.67
9.33
10.33
7.0
5.67
12.0
2.33
8.0
11.0
5.33
7.67
7.0
10.67
4.67
5.67
12.67
8.0
1.33
2.0
1.0
12.33
8.33
1.33
6.33
2.67
6.0
1.0
-6.33
-1.67
-0.67
-1.0
0.33
6.33
-0.67
-0.33
4.67
9.0
-2.67
3.33
-0.33
7.67
14.0
11.0
4.33
7.33
0.33
3.33
6.0
13.67
4.0
-3.0
3.67
7.0
14.0
1.67
8.33
9.0
4.67
4.0
6.67
2.67
13.0
6.33
3.33
2.33
27.33
3.33
10.67
0.67
10.33
6.0
0.67
7.0
-1.33
11.0
5.33
6.67
-0.67
-6.33
11.0
8.67
-2.0
10.0
4.67
-4.67
9.67
8.33
3.67
1.33
7.33
9.33
6.67
10.0
5.33
-0.67
3.0
6.0
4.33
3.0
11.67
17.33
4.33
11.33
3.67
2.67
5.67
8.67
10.67
11.33
-0.33
4.67
-0.67
5.33
22.0
7.33
7.67
7.33
12.33
9.33
9.33
7.67
9.67
6.0
8.0
10.33
20.33
17.0
18.33
12.0
14.0
20.67
16.0
10.33
14.67
16.33
17.67
17.0
30.0
31.67
22.0
42.33
49.0
46.67
59.67
85.0
100.0
83.0
96.67
102.0
100.0
99.67
103.33
79.33
75.67
60.33
46.33
24.0
25.67
11.67
11.33
14.33
18.33
4.33
11.0
1.0
9.67
15.67
-1.33
14.33
12.33
4.67
9.33
19.33
12.0
8.67
3.33
5.33
-7.0
15.0
15.0
7.33
11.33
1.67
9.67
-2.0
10.0
0.33
4.0
7.67
5.33
-2.0
14.33
18.0
5.33
0.33
16.0
12.33
15.33
11.67
6.33
10.33
15.0
7.67
10.0
5.67
3.0
8.67
19.0
5.33
4.67
12.33
17.0
27.0
-2.33
9.33
-1.0
4.0
7.67
10.33
3.0
-5.67
14.33
-1.0
16.33
3.33
19.67
5.33
18.0
5.67
8.67
5.67
9.33
7.33
9.0
14.0
5.33
12.0
8.67
6.0
5.33
19.33
11.0
14.0
13.67
13.67
13.33
30.0
30.0
33.33
21.0
28.33
30.33
31.33
20.0
13.0
9.0
22.67
22.0
14.0
14.67
11.33
17.67
16.33
13.67
-3.0
26.33
-10.0
14.33
15.33
0.0
0.67
9.33
0.0
0.33
17.0
4.67
8.33
4.67
-3.33
2.0
7.0
11.0
3.67
15.33
5.33
8.67
5.33
6.0
-1.0
6.0
2.67
12.33
9.67
9.67
9.0
0.0
-1.33
5.33
5.0
-3.67
-1.33
8.0
3.67
-2.33
-6.33
3.33
18.67
1.67
-3.67
4.33
3.33
12.0
-7.33
1.67
-2.67
-2.67
7.67
-2.0
12.0
-2.0
0.33
9.67
-3.33
6.0
9.0
8.0
-3.0
-4.67
4.0
-1.0
7.0
12.33
1.67
3.0
7.33
-1.33
0.0
-1.33
13.67
6.0
-6.0
0.67
5.33
7.0
1.0
2.0
2.33
5.67
7.67
2.67
3.67
2.0
1.33
0.67
4.0
6.33
-6.33
12.67
10.33
5.67
-5.0
9.0
6.67
1.67
1.0
15.33
-0.67
1.0
0.0
7.33
0.0
-10.33
8.67
1.67
5.67
-6.67
5.33
7.33
5.33
4.0
9.67
10.0
4.33
9.67
14.33
3.0
0.0
9.0
-1.67
1.0
-3.67
-8.0
-0.67
9.33
5.0
5.33
3.33
6.33
10.33
5.67
-0.67
-4.67
-4.33
5.0
1.0
-2.0
2.67
10.0
6.67
10.0
0.0
2.67
-2.33
7.67
-5.0
1.33
-7.33
2.0
-2.67
-1.0
5.0
2.0
0.0
1.67
-3.67
3.33
-1.0
10.67
13.33
-1.67
3.33
-4.33
-2.33
-3.67
2.33
1.67
3.0
9.0
0.67
3.67
9.0
1.33
10.67
3.67
3.33
4.33
4.33
8.33
-1.0
-3.33
1.67
2.33
15.33
6.67
4.0
3.67
-2.67
-2.33
10.67
0.67
2.33
-5.33
3.33
3.0
2.33
2.33
-1.67
0.0
-1.67
1.0
5.67
-1.67
0.67
4.67
-0.33
-0.33
-1.33
-1.0
1.33
-1.33
6.33
-6.67
8.67
1.33
1.33
0.33
0.0
4.33
0.0
-3.33
0.67
6.33
2.0
5.0
1.67
-3.0
2.33
-3.67
3.67
0.0
9.0
1.33
-2.33
-0.33
1.33
-1.0
4.0
6.0
3.33
-7.33
-1.0
2.67
-0.67
-1.67
-2.0