File: EDX Back Ups and Old Files/Spectra copy 3.3.23/Samples/High pH SF 25C 6d/8.75.txt
0.0
-12.33
-47.67
-53.33
-4.67
-61.67
-77.67
15.67
-8.0
-32.67
19.0
-5.33
25.0
1.67
-4.0
2.67
-4.33
5.33
0.67
-1.67
3.0
1.33
0.33
-0.67
0.33
0.0
0.67
0.0
0.0
-0.33
1.33
0.0
-0.33
-0.33
0.0
1.0
-0.33
0.0
-1.0
-0.33
1.0
0.0
-1.0
-1.33
0.0
-0.67
1.33
2.0
-0.33
-1.33
0.33
-2.67
0.67
1.0
-1.67
3.0
0.33
0.33
-1.33
-1.67
-1.33
0.33
4.33
6.0
-1.0
-2.0
-0.33
2.33
2.33
-2.33
3.0
-2.67
-4.67
-1.0
3.67
2.0
1.33
1.67
2.33
-4.33
-2.33
4.33
-4.67
1.0
0.67
6.67
10.67
-3.33
2.33
9.0
0.0
5.0
10.33
2.0
9.67
0.33
-1.67
5.0
-1.33
-5.33
0.33
5.33
7.33
7.33
11.0
8.33
4.33
4.0
-1.67
12.67
2.33
5.0
4.67
0.67
-3.0
6.0
3.67
6.33
-1.67
7.67
2.33
-1.67
4.0
-2.0
2.33
2.33
1.33
2.0
-6.0
-1.0
-0.33
-1.67
10.33
-3.33
3.67
0.67
6.33
6.67
3.33
-1.0
4.33
0.67
6.0
4.33
-2.0
-0.67
3.33
6.33
6.0
11.0
-1.0
5.0
2.33
4.0
5.0
0.67
8.0
-2.33
-0.67
2.0
4.0
0.33
2.33
6.0
2.67
-4.67
-2.33
-4.33
2.0
1.0
0.0
-7.67
3.0
4.67
6.67
6.33
1.0
1.0
6.33
5.33
3.0
0.67
-1.67
8.0
3.0
3.67
3.0
4.67
-3.33
2.67
0.67
8.33
4.67
5.33
0.33
7.0
-5.67
0.33
6.33
6.0
0.67
3.33
1.0
-1.0
1.33
8.67
4.67
-3.0
3.0
0.0
3.67
0.0
-0.67
2.33
-4.67
2.33
-0.33
-1.0
3.33
6.67
3.0
1.33
2.33
-4.33
-3.33
-2.33
-0.33
-2.33
1.0
-1.33
-3.33
1.33
9.33
1.33
5.67
-0.67
5.33
3.33
6.67
0.33
-3.0
6.67
-4.67
-2.0
1.0
-1.0
-1.33
-0.33
3.33
-1.33
-0.67
-1.0
-0.67
-5.33
-2.67
0.67
0.33
0.33
1.67
2.67
3.0
2.0
-0.67
-1.67
-2.33
3.0
-2.33
2.67
-0.33
7.33
3.67
1.67
3.0
1.0
-4.0
0.0
-0.67
1.33
-1.67
0.0
3.33
-2.33
0.0
3.0
3.67
0.33
-2.0
1.0
-4.67
0.67
4.0
0.67
4.33
0.0
-0.33
1.33
-0.33
3.67
2.33
-2.0
-1.0
3.0
-4.33
-1.67
-5.0
-0.33
-6.0
-2.33
-3.0
1.33
1.0
2.33
0.0
2.67
-1.0
5.0
-0.33
7.0
5.0
1.67
-8.0
0.67
-4.67
-1.0
-3.0
1.0
-1.67
0.33
-5.0
4.0
-1.67
-2.33
0.67
-3.67
-0.33
-1.67
-1.67
-5.67
-2.0
4.67
3.33
1.67
-6.0
-3.67
-0.67
1.0
-5.33
-5.33
-0.33
-1.33
-1.0
-1.0
3.67
-5.0
-3.67
4.67
-3.33
6.0
2.33
3.0
-2.33
-0.67
-1.0
-1.0
-0.33
-0.67
1.33
8.67
1.33
-6.0
1.33
-3.33
3.0
-2.0
0.67
-2.33
-2.33
-2.0
-2.0
3.33
-1.67
-5.33
-2.33
-6.33
2.0
-2.67
-6.0
5.0
-2.0
4.0
3.33
-4.0
-5.0
-6.67
0.0
4.67
-2.33
3.33
5.67
2.0
3.33
12.67
11.67
12.33
22.33
21.33
34.33
22.67
24.33
12.67
15.33
11.0
3.67
6.33
-2.33
-1.67
-3.33
0.67
-5.0
3.0
-3.33
4.0
1.33
-4.67
3.0
-1.67
-3.33
2.67
-1.33
-0.67
-3.67
0.0
-2.0
-4.33
-1.0
-7.67
-0.33
2.33
8.67
-3.33
-5.33
-3.67
-5.33
-4.0
-2.0
3.0
-2.0
-0.67
-2.33
-0.67
-2.33
-2.0
-3.33
-0.67
-4.33
1.0
3.0
-8.33
-5.33
-8.33
0.33
1.67
2.0
3.33
-0.67
-0.33
-4.67
-4.0
-1.0
-7.67
1.33
-5.0
1.0
9.33
-5.33
2.0
-6.33
-1.67
-1.67
3.33
5.0
-3.67
-0.33
-7.33
-4.67
-7.0
1.67
3.67
6.0
-5.33
6.33
-7.0
1.33
-6.67
-4.67
2.67
-7.67
-5.67
-2.0
-3.67
3.0
4.0
-5.0
0.0
-6.67
-7.67
-1.0
3.33
6.67
9.0
16.67
15.33
14.33
6.0
11.67
19.0
12.33
10.0
18.0
13.33
12.67
15.0
13.67
25.67
7.67
13.67
-2.0
2.33
-7.0
-1.0
7.33
0.33
5.33
10.33
8.67
7.0
8.0
-3.33
3.33
9.33
4.0
-1.67
13.33
3.33
7.67
2.67
13.0
1.33
-2.67
4.67
7.67
7.0
10.0
11.33
7.33
5.33
-0.67
6.0
5.67
9.0
-3.0
11.67
6.0
8.0
8.67
6.33
18.0
1.67
2.0
3.67
9.67
9.0
7.33
13.33
15.33
12.33
8.33
6.67
10.67
9.33
4.0
-2.33
6.0
7.67
10.0
7.33
5.67
9.33
-2.33
3.0
9.67
17.0
14.0
19.67
6.33
-3.33
17.33
7.67
3.33
3.33
12.33
3.67
-3.0
12.33
7.33
1.0
14.0
5.33
8.0
14.67
0.33
15.33
3.33
16.67
11.67
12.67
9.67
8.67
10.33
12.67
8.67
7.33
22.33
18.0
11.33
16.67
0.33
-5.67
10.33
7.33
13.67
1.67
6.0
8.0
7.33
12.33
15.0
16.33
13.0
14.0
13.67
13.0
20.33
18.67
19.33
7.67
28.0
26.0
20.67
33.0
24.33
53.0
53.67
58.67
60.0
96.0
87.0
109.67
92.0
86.0
108.67
114.33
106.33
77.67
59.33
37.33
24.0
28.67
23.67
18.33
11.33
3.33
10.33
14.0
8.0
2.67
12.67
21.67
12.33
-0.67
1.67
7.33
6.33
12.0
26.67
0.33
13.33
3.0
14.0
-5.0
2.33
2.33
8.67
1.67
1.0
0.0
-0.67
5.0
0.67
1.33
7.0
17.33
10.0
-0.67
5.33
5.0
3.33
4.33
0.67
9.33
15.33
12.0
4.67
11.0
14.67
12.0
-0.33
6.0
0.33
15.67
2.33
-1.0
9.0
7.67
18.33
2.0
-5.0
17.67
4.33
6.0
-1.67
12.33
11.0
8.33
7.33
-3.33
10.33
13.0
-0.33
6.67
3.67
17.33
4.33
7.0
9.0
4.33
8.0
4.67
2.0
7.33
17.33
11.0
26.0
26.67
23.67
25.33
11.0
28.0
15.33
22.0
28.33
34.33
29.33
32.0
23.0
31.0
13.67
17.0
4.0
13.67
7.33
11.67
10.33
-5.33
-2.0
20.33
3.0
6.33
11.33
9.0
3.67
5.33
3.0
1.33
9.0
8.67
0.33
14.67
15.67
2.0
-6.0
9.0
11.67
8.33
4.33
6.67
10.33
11.0
9.0
15.0
12.67
0.33
5.67
10.67
10.0
2.0
13.67
3.33
9.0
1.33
14.67
3.0
3.67
1.67
-2.33
-7.67
-2.33
8.67
8.33
-0.67
15.33
13.0
2.67
3.67
1.33
-2.67
8.67
2.0
-7.0
9.0
17.33
9.67
6.67
17.0
12.0
5.0
-3.0
-6.67
0.0
-2.0
-5.0
-2.67
-0.33
8.0
7.33
1.67
2.0
-2.33
7.67
2.0
5.0
0.67
4.33
10.0
-2.0
13.0
12.33
1.67
2.67
5.67
4.67
-4.0
2.33
3.67
6.0
6.33
-0.33
22.67
11.33
-2.33
9.0
-1.0
-1.33
-2.33
1.0
6.33
9.33
5.0
0.0
3.33
2.0
-6.33
0.67
8.67
4.67
4.33
-1.67
2.33
9.33
4.0
-0.33
-3.0
15.33
3.67
-0.67
0.0
5.0
1.0
-1.67
1.0
-6.67
2.0
2.33
2.33
6.0
10.33
1.33
11.33
11.33
3.67
7.33
-3.67
-5.33
5.0
5.0
-6.0
5.67
7.0
5.67
12.0
-3.0
-0.33
2.67
10.67
-1.0
2.33
-8.33
1.0
4.33
0.0
3.0
5.0
6.0
7.67
3.33
1.33
-1.0
0.67
5.33
-4.67
3.33
0.67
2.67
2.33
-5.67
0.67
5.0
-1.0
1.67
-0.33
8.0
-2.67
5.67
-6.33
5.33
3.33
5.33
10.33
-1.0
4.67
4.67
4.33
8.33
6.67
4.0
7.67
3.33
7.67
11.67
-0.33
2.33
-2.33
1.33
3.0
2.33
3.33
4.33
-2.0
0.33
-2.0
2.67
-4.67
6.67
13.67
3.67
0.67
-0.33
2.0
1.33
4.67
10.33
2.33
-0.33
-1.67
1.33
1.33
5.0
-0.67
4.0
-0.33
1.67
1.33
4.0
4.0
4.67
0.0
8.33
-0.67
2.67
4.0
10.0
6.33
0.67
-1.33
6.33
2.0
6.0
-1.0
-0.67
-2.33
3.0
2.67
0.33
0.33
-2.0