File: EDX Back Ups and Old Files/Spectra copy 3.3.23/Samples/High pH SF 25C 6d/9.25.txt
0.0
10.67
42.33
-21.33
-7.67
-61.67
5.33
46.67
3.0
-9.67
18.0
13.67
-4.0
-0.33
3.0
0.67
-4.33
0.33
-2.33
-1.67
0.0
0.33
-0.67
0.33
-0.67
1.0
-0.33
1.0
1.0
-0.33
0.33
1.0
0.67
-0.33
-1.0
1.0
-0.33
0.0
-1.0
-0.33
1.0
0.0
-1.0
-0.33
-1.0
0.33
-0.67
1.0
0.67
-0.33
-1.67
1.33
-1.33
0.0
-1.67
2.0
-0.67
-2.67
-0.33
-2.67
-3.33
0.33
6.33
0.0
-1.0
0.0
0.67
1.33
2.33
-3.33
0.0
0.33
3.33
5.0
7.67
0.0
-3.67
0.67
-0.67
6.67
-4.33
2.33
2.33
0.0
5.67
-2.33
-0.33
-0.33
11.33
0.0
-1.0
4.0
4.33
8.0
8.67
2.33
1.33
-4.0
1.67
3.67
1.33
2.33
5.33
5.33
-4.0
1.33
6.33
10.0
3.33
6.67
0.33
8.0
0.67
2.67
-3.0
2.0
1.67
6.33
-1.67
0.67
6.33
-0.67
8.0
-4.0
-6.67
3.33
0.33
2.0
-8.0
0.0
3.67
-4.67
4.33
0.67
-2.33
-4.33
6.33
2.67
5.33
7.0
9.33
-0.33
1.0
-1.67
0.0
-0.67
8.33
1.33
6.0
3.0
-5.0
5.0
6.33
4.0
-2.0
-4.33
7.0
3.67
1.33
8.0
8.0
-2.67
2.33
-2.0
-1.33
0.33
-1.33
7.67
0.0
2.0
0.0
-0.67
14.0
-0.33
3.67
3.33
6.0
4.0
-3.67
1.33
6.0
8.67
-3.67
3.0
-1.0
4.67
7.0
-0.33
-1.33
0.67
1.67
0.33
0.67
4.33
2.33
4.0
9.33
0.33
9.33
2.0
0.67
-0.67
-1.0
6.0
1.33
2.67
-3.33
7.0
1.0
2.0
-0.33
0.0
-2.67
-0.67
-7.67
2.33
-1.33
0.0
0.33
-0.33
1.0
8.33
-3.67
-6.33
1.67
4.67
2.67
3.67
-2.0
-1.33
4.67
-2.67
1.33
4.33
2.67
-2.67
0.33
-3.67
2.67
-3.67
-6.0
2.67
-0.67
-7.0
-1.0
4.0
-2.33
4.67
2.33
-1.33
6.33
2.0
2.33
-1.33
-4.67
-2.33
-0.67
-0.67
-5.33
2.67
3.0
3.0
-1.67
-2.67
4.67
-1.0
2.67
0.67
0.67
-1.67
0.67
1.67
0.0
-1.0
1.0
2.0
2.33
6.33
0.33
-1.0
1.33
2.67
-1.0
-4.0
-0.33
0.33
-1.0
0.0
0.33
-0.33
-1.0
-2.33
2.33
-1.0
-0.33
-2.67
1.67
1.67
3.33
-3.0
4.0
3.0
-2.33
-1.67
-1.0
0.67
-2.0
1.67
1.0
3.33
-1.0
-2.67
-2.0
1.67
4.0
1.0
3.67
0.0
4.0
-0.33
7.0
-2.33
-0.67
1.0
-1.0
-4.0
0.33
-2.67
-5.0
-1.0
0.33
8.67
-0.33
-3.67
1.67
0.33
2.33
-2.67
-3.0
4.67
-1.67
-3.33
-10.0
-1.67
3.33
0.0
-2.33
-2.33
-0.33
3.67
-4.0
3.0
-4.33
-2.0
-2.67
8.67
6.67
-1.0
-0.67
-3.0
-2.33
-2.67
-1.0
4.0
-2.33
-1.67
1.33
-2.33
-3.67
1.0
-2.67
-7.33
-5.0
-1.0
-4.33
-7.33
-6.33
-2.0
-2.0
0.33
-1.67
-6.33
3.67
-5.33
-3.0
-3.67
-5.0
-1.0
-1.0
2.0
4.33
2.0
-2.0
-0.67
-4.0
-2.33
-3.33
-2.67
-0.33
12.0
3.33
14.67
15.67
22.33
30.33
23.33
25.33
30.67
25.33
13.67
26.33
15.0
5.67
4.33
5.67
2.33
-2.33
3.67
-4.0
0.0
-6.33
-1.0
1.33
-4.67
4.0
6.33
-0.33
-4.33
0.67
-10.67
0.33
5.0
-1.0
-4.33
-2.0
-2.67
-2.33
4.33
-5.33
-9.33
1.67
-2.67
-1.33
-2.0
-6.0
3.0
1.0
-3.67
-2.33
-0.67
-1.33
-2.0
-3.33
2.33
4.67
-7.0
-9.0
-2.33
-4.33
0.67
-5.67
-7.33
1.0
-1.67
9.33
-8.33
5.33
-4.0
-2.0
-5.67
-0.67
-3.0
2.0
4.33
1.67
-1.0
-1.33
3.33
-2.67
-1.67
-8.0
1.33
0.67
5.67
-4.67
-3.0
-1.33
0.67
2.0
-0.33
3.33
-4.0
4.33
1.33
-9.67
14.67
0.33
4.33
0.0
-2.67
1.0
6.0
12.0
-6.0
-5.67
-5.67
3.0
2.33
8.67
1.0
4.67
8.33
15.33
12.0
14.67
13.0
22.33
10.0
26.0
15.33
11.67
9.0
16.67
18.67
3.67
9.67
3.0
7.33
-6.0
11.0
9.33
9.33
5.33
7.33
6.67
11.0
0.0
0.67
2.33
5.33
3.0
12.33
11.33
-5.67
4.67
7.67
2.0
5.33
4.33
12.67
10.67
5.0
3.0
-0.67
5.33
8.33
-0.67
8.0
-1.33
6.0
5.0
17.67
6.0
13.0
16.67
2.33
10.0
-5.33
6.0
9.67
11.67
9.0
7.33
6.33
13.33
14.33
13.33
12.67
11.67
-1.67
12.0
-0.33
7.0
4.67
12.0
11.33
0.67
6.33
5.67
1.0
5.67
-3.0
12.0
7.67
5.33
6.67
16.33
-2.33
13.33
0.33
3.33
-2.33
6.0
10.33
6.33
9.0
3.0
-4.67
15.0
5.67
4.33
14.33
14.33
4.67
10.67
15.67
11.67
-2.33
7.33
17.67
-0.33
4.33
11.33
16.0
5.33
11.67
9.33
1.33
7.33
-0.67
-2.33
14.67
1.0
15.0
13.33
14.33
15.0
15.33
6.0
17.0
19.67
29.0
33.33
21.67
31.33
12.67
6.0
20.0
22.67
22.0
28.33
34.0
59.67
76.67
99.0
107.0
97.0
109.67
109.0
113.0
97.67
99.33
91.33
77.67
49.33
33.33
33.0
22.67
16.67
15.33
19.33
10.33
0.33
11.0
27.0
7.67
8.67
11.67
9.33
3.33
6.67
9.33
15.33
3.0
7.67
1.33
0.33
14.0
4.0
7.0
8.33
10.33
12.67
13.67
15.0
15.0
14.33
-2.0
19.67
1.33
14.0
8.33
17.0
5.33
3.33
7.0
16.33
0.33
12.67
4.33
11.33
-6.0
8.67
9.0
4.67
21.0
10.67
21.0
2.33
6.67
-3.67
5.0
6.0
-5.33
7.33
-3.0
5.0
15.67
3.33
14.0
-7.67
1.33
6.0
8.33
5.33
5.67
12.33
7.0
14.67
-8.33
8.67
10.33
16.33
15.0
15.0
8.33
14.0
4.67
-6.0
11.33
16.33
7.0
10.0
24.67
31.67
15.33
14.0
45.0
11.33
41.0
39.33
38.33
33.33
32.0
26.0
26.0
24.67
18.0
15.0
13.67
6.33
11.67
17.33
9.67
2.0
1.33
-1.0
12.33
17.33
4.0
-6.33
2.33
5.0
10.33
6.0
5.67
8.33
6.67
3.67
12.0
1.0
0.0
14.67
5.33
12.33
9.67
9.33
6.0
4.0
8.0
6.67
5.33
21.67
8.67
15.0
7.0
10.67
0.33
-1.0
0.33
8.67
4.0
-8.33
2.67
-6.33
-3.67
12.67
7.67
-4.67
13.33
4.33
14.0
8.67
-2.33
12.33
4.33
-4.33
-6.0
7.0
3.0
6.33
5.67
-2.33
-4.0
15.0
3.0
-5.0
-2.67
2.0
-2.0
-2.0
5.33
-0.33
6.0
-0.67
0.67
-2.0
-6.33
3.67
0.0
-2.0
7.67
4.33
6.0
5.0
-10.0
3.33
-0.33
5.67
-3.33
2.67
2.0
-2.67
9.67
4.0
5.33
-3.33
3.67
11.33
7.67
10.0
7.0
0.67
0.67
3.0
11.33
5.33
4.0
-3.0
0.33
2.0
-6.33
2.67
5.67
2.67
3.33
3.33
-1.67
5.33
9.0
1.67
2.0
2.33
-2.33
5.33
1.0
9.0
3.0
-0.67
-3.0
4.33
-4.0
0.33
-1.67
4.0
9.33
-0.67
2.33
2.33
-2.33
5.33
-5.67
2.67
3.0
4.0
1.0
-5.33
10.0
1.67
6.0
1.0
4.67
2.67
1.67
6.0
-3.67
-11.33
8.0
1.33
-6.0
7.0
1.0
1.0
8.67
0.33
2.33
5.0
8.67
5.33
2.33
0.33
-3.33
8.67
2.33
-1.67
-0.33
4.0
0.0
10.67
-1.33
9.0
0.33
-5.33
-2.33
2.33
-0.67
-0.67
-1.67
6.0
1.67
-5.33
-0.67
7.33
-0.33
4.0
11.67
-6.67
3.67
6.67
6.67
7.33
2.67
2.33
-1.0
-5.67
-1.67
8.33
-5.0
1.33
4.0
1.67
3.33
0.67
2.67
-0.33
0.67
-1.33
-5.0
6.33
0.67
13.33
2.33
4.67
4.33
-1.67
3.33
0.0
5.33
6.0
0.67
1.67
-3.67
-2.0
-5.0
5.67
3.0
6.33
-0.67
1.67
7.0
3.0
-2.67
-3.33
2.67
5.33
-1.0
2.0
8.0
2.33
-3.33
5.0
6.67
2.33
0.33
-3.0