File: EDX Back Ups and Old Files/Spectra copy 3.3.23/Samples/High pH SF 25C 6d/9.75.txt
0.0
-5.33
14.33
-84.33
31.33
-31.67
-2.67
44.67
-31.0
-5.67
-4.0
34.67
5.0
-12.33
-6.0
8.67
-7.33
-0.67
-0.33
-0.67
0.0
-0.67
1.33
2.33
-0.67
-1.0
-0.33
1.0
0.0
-0.33
-0.67
1.0
-0.33
-0.33
-1.0
0.0
-0.33
1.0
0.0
-0.33
1.0
0.0
-1.0
-1.33
-1.0
0.33
0.33
-1.0
-0.33
-1.33
-1.67
-1.67
-0.33
1.0
2.33
1.0
-0.67
0.33
1.67
-1.67
1.67
-0.67
1.33
2.0
-3.0
1.0
1.67
3.33
0.33
0.67
-1.0
-0.67
1.33
3.0
0.67
6.0
-1.67
2.67
3.33
4.67
-0.33
1.33
-2.67
3.0
7.67
4.67
5.67
0.67
6.33
-3.0
-3.0
-3.0
-0.67
-3.0
2.67
0.33
1.33
0.0
9.67
-2.33
2.33
-3.67
-3.67
5.33
1.0
7.33
5.33
3.0
3.33
8.67
3.33
6.0
-2.33
1.67
-2.0
3.0
-2.33
6.33
0.33
1.67
0.33
-0.67
10.0
-5.0
-2.67
0.33
3.33
7.0
-9.0
-2.0
2.67
1.33
8.33
1.67
2.67
0.67
8.33
-2.33
5.33
-2.0
-0.67
-2.33
4.0
-0.67
3.0
6.33
2.33
5.33
5.0
2.0
3.0
-2.0
-2.67
-2.0
-2.0
-0.33
4.0
-3.33
3.33
8.0
4.0
-1.67
5.33
6.0
-0.33
3.33
-3.33
1.67
6.0
5.0
1.0
-2.67
2.0
-0.33
7.67
-6.67
7.0
0.0
2.33
13.33
-3.0
2.67
5.33
7.0
7.0
0.67
0.0
-5.33
-3.33
1.67
-1.33
6.33
-2.33
1.33
-1.67
9.0
3.33
3.33
1.33
1.0
-1.33
-1.67
1.0
1.0
9.33
1.67
1.67
-1.0
-1.0
-2.0
2.67
4.0
0.33
3.33
-3.67
1.33
1.67
0.0
3.33
0.67
-1.0
1.33
-0.67
-7.33
1.67
-0.33
-0.33
1.67
2.0
-4.33
1.67
1.33
2.33
2.33
0.67
-3.67
1.33
2.33
-1.33
-0.67
4.0
-1.33
-1.67
-2.0
6.0
0.0
-3.33
0.67
0.33
-1.33
5.33
-2.0
1.33
-1.33
0.33
-2.33
-1.67
6.33
-6.33
1.67
1.0
3.0
1.33
-2.67
-1.33
5.0
-2.33
-2.33
0.67
2.33
2.67
-2.33
-2.0
0.0
-2.0
3.0
2.33
2.33
0.33
-1.0
4.33
4.67
4.0
1.0
-4.33
0.33
0.0
0.0
-2.67
-3.33
-1.0
0.67
0.33
4.0
0.67
-1.67
-1.33
2.67
0.33
-3.0
-3.0
1.0
-4.33
-3.67
0.0
2.67
-5.0
-1.33
4.0
-1.67
1.0
6.33
-2.0
0.67
2.0
-2.0
-1.33
-3.0
1.0
-1.33
-1.0
-4.33
0.33
0.0
-1.0
-2.0
0.33
-3.67
-2.0
-1.0
-3.67
1.67
-2.33
2.33
1.67
-3.67
0.33
1.33
-3.0
2.67
-1.67
-4.33
-7.0
-7.67
3.33
-1.0
-6.33
-1.33
-1.33
-3.33
-3.0
-5.0
-1.33
0.0
-0.67
3.67
0.67
2.0
-2.67
2.0
0.67
-3.67
-5.0
-1.0
-2.33
-0.67
0.33
0.67
-3.67
-5.0
1.33
-8.33
-3.0
-5.0
-2.33
-3.33
-7.33
0.0
4.0
-3.67
-4.67
-4.33
3.67
-3.33
1.0
-8.67
-1.0
3.0
0.0
-2.0
6.33
3.0
-8.0
4.33
-1.0
7.67
-1.33
8.33
7.67
5.0
4.33
11.67
19.67
18.33
17.33
24.33
26.33
26.67
26.33
13.67
16.33
13.0
7.67
1.33
-2.33
7.33
4.67
6.67
-2.0
3.0
0.67
1.0
2.33
4.33
5.0
5.33
-3.33
-0.33
-1.33
-3.67
2.33
-3.0
-7.0
-3.33
8.0
-7.67
-4.33
3.33
5.67
1.67
4.67
-1.67
-4.33
1.0
-2.0
3.0
2.0
-2.67
0.67
-2.67
-2.33
-7.0
-3.33
4.33
-1.33
-1.0
-9.0
-4.33
2.67
-4.33
-1.67
6.67
-2.0
6.33
-0.67
0.67
-2.67
-9.0
-3.0
-4.67
3.33
-6.0
6.0
-2.67
-10.33
-7.0
1.67
1.33
-2.67
1.33
-1.0
-0.67
-0.33
5.67
-6.67
-6.0
-1.33
-3.33
6.0
-8.33
-6.67
1.0
-4.67
0.33
-1.67
2.67
-4.67
-0.67
-4.0
-2.67
-3.0
-6.0
1.0
-3.0
-8.67
1.33
-3.0
6.33
6.67
9.0
1.67
18.33
12.33
20.0
18.67
3.0
19.33
5.0
12.0
14.33
26.67
27.0
15.67
9.67
6.67
12.67
-2.0
-0.67
6.0
2.0
12.33
4.33
6.33
8.33
1.67
2.0
3.0
7.67
3.33
3.33
-4.0
3.33
6.33
1.33
7.67
-1.33
-1.0
2.33
0.33
-7.33
3.67
11.0
19.0
9.33
4.33
-0.67
10.33
0.0
5.67
7.0
2.0
6.67
4.0
7.0
8.67
13.33
0.0
6.67
10.0
8.67
12.67
12.0
8.33
17.33
-3.67
-1.67
5.33
4.67
3.67
7.33
9.0
3.67
4.0
4.67
23.0
13.33
4.67
0.33
-9.33
0.0
9.67
14.0
2.0
15.67
5.33
3.67
3.33
-2.33
0.33
5.33
9.33
5.67
-1.0
7.33
8.33
8.0
11.0
12.33
-2.0
15.67
11.33
5.33
6.33
10.67
-3.33
11.67
-2.33
4.67
1.33
5.67
4.67
-2.67
14.33
19.0
8.33
12.67
5.33
9.33
5.33
9.33
8.67
16.67
12.0
3.0
7.33
12.33
24.0
12.33
11.0
29.0
19.67
26.0
10.33
10.67
30.33
22.67
22.0
31.0
22.67
37.0
46.33
67.0
77.67
93.67
115.0
86.0
122.0
125.67
115.0
132.0
118.67
119.33
82.33
72.67
63.33
44.33
40.0
29.67
18.67
17.33
4.33
8.33
8.33
13.0
11.0
3.67
10.67
13.67
9.33
3.33
-4.33
17.33
18.33
6.0
9.67
12.33
20.33
7.0
13.0
5.0
-1.67
1.33
8.67
5.67
5.0
3.0
7.33
-4.0
-6.33
10.33
6.0
6.33
15.0
3.33
10.33
10.0
17.33
10.33
4.67
0.33
15.33
6.0
-3.33
13.0
8.67
12.0
10.67
20.0
5.33
14.67
2.33
10.0
13.0
0.67
4.33
-1.0
15.0
10.67
8.33
4.0
6.33
3.33
4.0
6.33
8.33
11.67
12.33
5.0
12.67
0.67
9.67
3.33
-0.67
19.0
-2.0
11.33
12.0
15.67
-1.0
5.33
19.33
14.0
5.0
13.67
18.67
18.33
30.0
24.0
28.33
26.0
29.33
32.33
22.33
33.0
30.0
22.0
13.67
17.0
27.0
14.67
5.33
11.67
7.33
8.67
9.0
13.33
-3.0
7.33
-0.67
11.0
9.67
8.33
7.0
20.33
12.0
6.67
1.33
14.67
3.67
4.0
1.0
0.0
14.67
9.33
4.33
13.67
9.33
6.0
13.0
7.0
10.67
24.33
1.67
10.67
-1.0
-5.0
16.67
3.33
-3.0
0.33
4.67
-6.0
-4.33
-6.33
-6.33
7.33
4.67
7.67
6.33
-4.67
3.33
4.0
5.67
8.67
7.33
7.33
-2.33
4.0
5.0
7.0
9.33
9.67
0.67
9.0
17.0
2.0
2.0
8.33
14.0
-5.0
-7.0
1.33
6.67
5.0
-0.67
7.67
-1.0
-5.33
-1.33
21.0
-5.0
-1.33
3.33
4.0
1.0
-4.0
6.33
-8.33
5.67
2.67
8.67
-7.0
9.33
12.67
13.0
5.33
1.67
9.67
6.33
3.67
11.0
4.0
4.67
-2.33
4.0
13.33
0.33
-3.0
0.0
11.33
4.0
-7.33
8.67
8.67
9.67
-2.67
4.33
9.33
-1.67
1.0
7.67
7.0
4.33
-2.33
4.33
-2.0
10.0
-8.0
-1.67
-1.0
-0.67
-8.0
5.33
4.33
6.0
2.33
-10.67
-1.67
2.33
-0.33
2.33
-3.67
2.67
2.0
3.0
2.0
0.67
5.0
3.67
6.0
-9.0
-1.33
0.67
0.67
-1.0
1.33
1.67
-3.0
5.33
-5.0
-4.0
2.0
-4.0
-0.33
0.33
7.33
0.0
3.67
-0.67
1.33
1.33
10.67
0.67
-0.67
2.33
4.67
4.0
-3.0
9.67
5.67
3.0
0.33
14.67
1.67
-0.67
2.33
-2.67
0.33
3.0
0.67
-5.33
1.33
-0.67
1.67
6.0
0.67
4.33
3.67
8.67
-0.33
1.33
-5.33
6.33
7.0
1.33
-2.67
3.33
0.0
3.33
2.0
2.67
-0.67
4.67
13.67
6.67
-1.33
-4.33
-4.0
2.33
2.67
-4.67
0.33
-0.33
2.33
-2.67
-1.67
10.0
9.33
3.0
-2.33
2.67
4.33
0.0
2.0
3.67
0.0
4.33
-4.67
1.67
0.0
4.0
-0.67
-1.33
3.67
3.33
0.0
3.0
3.0
-0.67
-0.33
2.0
4.67
0.33
1.33
1.0