File: EDX Back Ups and Old Files/Spectra copy 3.3.23/Samples/High pH SF 25C 9d/11.0.txt
0.0
11.0
-32.33
17.67
22.0
18.67
17.0
-8.0
-21.67
-21.33
0.0
-22.33
18.33
4.67
2.0
-12.33
-0.67
-0.67
-1.33
4.67
0.33
-1.0
0.0
1.0
0.0
0.33
1.33
0.0
-0.33
-0.67
0.67
-0.33
-0.33
0.33
0.67
1.67
0.0
-0.67
-0.33
0.0
-0.67
-0.33
-0.33
-0.33
0.0
0.33
-1.0
0.67
0.67
0.67
1.67
1.0
3.0
0.33
1.67
-1.0
-2.0
1.33
0.33
2.67
-1.67
-1.67
1.33
2.33
1.67
2.33
-0.33
3.67
1.0
2.33
5.0
-3.33
-5.33
3.0
2.67
-0.33
2.33
-4.0
5.33
3.0
3.33
0.67
5.0
4.33
0.67
3.33
-2.33
1.0
2.0
11.67
9.33
7.67
7.33
0.67
1.67
3.67
-4.0
3.67
-4.0
2.33
0.33
2.33
-4.0
-0.33
0.67
6.33
-0.67
10.0
2.33
7.33
2.0
2.67
4.33
4.0
1.33
9.67
1.0
9.67
-3.67
1.67
5.33
-4.0
-1.0
10.0
5.33
3.0
-2.67
10.33
0.67
-2.67
1.33
2.67
2.33
-0.33
-2.0
2.33
2.67
6.0
2.33
8.67
2.33
5.33
0.33
2.33
0.33
1.67
8.67
4.33
11.33
0.0
-0.67
16.0
2.33
-6.0
1.33
1.67
-0.33
9.0
-1.0
-1.33
12.67
1.33
1.67
-1.33
3.33
-1.0
2.0
-3.0
3.33
10.67
3.33
-2.67
8.33
2.0
-4.67
3.0
0.67
-2.33
7.0
0.0
-0.67
-0.33
1.67
4.67
0.33
-3.0
3.0
2.67
2.33
-1.67
-5.33
4.0
5.67
1.67
5.0
0.33
2.33
0.0
-0.67
-8.33
-0.67
2.33
0.33
-0.67
2.0
-4.0
4.67
-1.0
8.0
1.67
-1.67
2.0
8.0
1.67
-6.0
5.67
2.0
5.33
0.33
-0.67
2.67
5.0
-1.33
1.0
2.67
2.67
-2.33
5.33
-2.33
-1.0
1.33
1.33
-0.67
-3.67
1.67
-1.33
2.67
-0.33
2.67
6.33
-2.0
-4.67
5.0
5.33
-1.67
-2.67
-1.33
-1.0
1.67
-8.0
3.67
0.0
5.33
2.67
-1.67
7.33
2.67
3.33
4.67
2.33
-1.33
-1.0
-2.0
1.67
4.33
0.67
-5.0
-4.33
2.0
-1.67
1.67
-0.33
-4.0
1.0
2.33
-2.0
-2.33
1.0
-3.33
-1.0
2.33
0.0
3.0
3.67
3.33
0.0
4.0
6.0
3.0
-1.33
0.67
6.33
5.33
-3.33
-5.0
6.0
-3.33
-3.33
0.0
0.67
4.33
-1.67
-2.33
0.0
-2.67
-3.0
1.33
0.67
-4.33
6.0
-0.33
-2.33
2.0
-0.33
-0.33
2.67
0.33
-4.0
0.67
-5.0
-1.0
3.0
-4.33
6.67
0.0
1.33
0.67
-1.0
-1.33
3.0
1.67
0.33
1.0
-0.67
-2.67
4.67
-3.33
-1.33
-5.67
3.33
0.33
-0.33
2.33
2.0
0.67
4.33
-2.67
1.33
-3.0
3.67
1.0
0.0
0.33
4.0
1.33
0.0
7.33
-1.0
1.67
-5.0
1.33
1.67
-4.0
0.33
-4.0
-3.33
-2.33
-3.33
0.67
-1.0
-8.67
-1.0
-1.67
4.0
2.33
-1.67
-3.33
2.0
-2.33
4.33
0.33
0.67
0.0
2.67
0.67
1.67
-3.0
4.0
-2.33
7.0
2.0
-2.33
-3.67
-4.0
5.67
-3.0
5.0
-3.0
-0.33
4.33
0.33
0.33
4.0
6.33
11.0
7.67
0.33
24.67
17.0
7.67
15.67
8.67
0.33
1.67
4.67
2.0
-2.33
5.33
-3.67
7.0
3.67
-1.0
7.0
5.0
-3.0
-2.67
8.0
11.33
3.0
1.33
5.0
4.0
-1.67
-2.0
4.67
9.0
6.67
1.0
5.67
-3.33
-2.0
6.33
2.67
-0.33
3.67
11.67
8.0
4.0
3.33
5.67
0.67
8.67
4.67
4.0
-1.33
0.0
4.0
11.33
-2.33
-8.0
7.0
-4.33
1.0
2.0
3.0
3.67
6.67
9.67
8.67
4.0
-7.67
3.33
-1.67
10.33
2.67
4.0
4.0
5.0
-2.33
8.67
8.33
8.0
6.33
0.33
5.0
2.0
3.0
5.67
4.0
3.33
3.0
3.0
3.33
6.67
4.33
3.67
-1.33
-0.33
5.67
-3.33
5.0
0.0
6.67
-0.67
-3.67
5.33
1.67
12.67
8.0
9.0
4.0
10.0
6.67
17.67
33.0
29.33
31.33
33.0
28.33
30.33
38.67
33.33
18.33
7.33
24.33
24.0
9.67
17.33
4.67
6.67
17.33
12.33
8.33
6.67
4.33
9.67
3.67
2.33
7.67
8.33
9.67
14.0
14.0
4.67
11.0
4.33
9.67
13.33
6.33
0.33
10.67
4.67
17.67
9.33
10.67
14.67
19.0
5.33
-3.0
8.0
5.67
5.33
1.67
2.33
12.0
8.0
3.67
18.33
8.0
16.0
8.33
-1.33
4.67
6.0
4.0
4.0
20.0
10.67
3.67
13.33
12.0
14.67
18.67
11.67
7.0
7.67
2.33
-2.0
1.0
8.0
3.67
11.33
14.67
10.33
13.0
3.67
14.33
15.0
10.67
-2.33
5.67
7.33
7.33
-1.67
8.0
7.33
16.0
9.0
8.33
12.0
11.67
19.67
19.0
13.33
10.0
14.33
7.0
10.33
7.0
14.33
1.67
9.33
10.67
11.67
9.33
11.67
12.33
9.33
5.67
13.0
13.67
9.67
10.33
6.33
13.33
16.67
16.67
10.67
13.67
20.0
24.33
9.33
11.67
21.33
12.33
22.33
21.67
41.0
50.33
61.67
78.67
119.33
124.0
119.0
148.33
182.67
183.67
225.0
221.0
196.0
217.0
179.33
165.0
103.33
124.33
69.33
49.67
56.67
27.67
28.0
37.33
20.67
6.0
9.33
25.33
9.33
-0.33
11.67
15.0
26.0
11.33
5.33
15.33
12.33
12.67
6.33
7.67
19.67
14.0
17.33
12.33
7.67
9.0
1.33
16.0
9.0
3.33
11.67
10.33
17.0
6.0
5.0
6.33
22.0
10.33
15.67
6.67
13.0
11.67
5.67
8.0
3.33
4.33
10.0
5.0
-1.0
13.33
8.0
3.67
1.67
4.33
14.33
14.0
4.67
17.33
5.0
8.0
8.33
3.33
-1.0
10.0
12.33
16.0
0.0
3.67
-3.0
-1.33
12.33
14.0
2.67
-7.0
5.67
6.0
4.67
0.0
6.67
4.0
14.67
-2.67
13.67
10.33
6.67
12.0
7.67
21.67
4.0
5.33
14.0
10.0
6.0
12.0
13.33
11.67
22.33
16.0
9.0
10.0
9.0
6.0
-4.67
8.67
11.0
16.0
11.33
6.67
9.67
16.0
-4.33
0.0
14.0
6.0
4.67
3.0
13.33
18.33
-1.0
13.0
9.33
10.33
-0.33
22.33
24.67
11.33
-2.0
-2.33
5.67
3.67
7.67
6.67
9.33
7.67
20.33
20.0
13.0
11.67
18.0
2.0
6.67
8.33
1.67
-0.67
-3.0
4.67
-4.33
2.67
-4.67
3.0
15.0
7.33
14.67
6.33
1.67
-10.0
14.67
1.33
-0.33
0.33
3.67
-5.33
8.33
6.0
4.33
8.0
-6.33
6.33
-9.0
7.0
3.33
6.67
9.0
3.67
-6.0
-7.0
10.0
-4.0
8.33
3.0
5.67
1.67
8.33
4.33
-2.33
-0.67
-8.33
3.33
3.33
10.33
5.33
9.0
3.33
8.67
9.0
2.33
1.67
7.0
7.33
-4.33
5.0
0.67
2.0
6.67
5.33
4.33
10.0
13.0
0.67
-0.67
-0.33
8.0
21.33
11.33
3.67
0.33
9.0
9.0
3.33
11.67
-7.67
3.0
10.33
-6.0
6.33
-2.67
9.0
-0.33
4.0
3.0
3.67
4.67
0.33
4.33
-0.67
6.67
9.33
1.0
10.0
6.0
2.0
3.67
4.33
2.67
5.0
-1.0
1.0
-1.67
-1.0
-1.67
-5.33
3.33
-4.0
7.33
5.0
4.33
2.67
8.33
1.67
-5.33
5.0
6.33
3.33
-6.0
1.67
-4.0
7.0
9.67
0.0
13.33
1.67
5.33
3.0
-3.0
5.33
0.33
0.67
-3.0
2.67
0.33
2.33
2.0
8.33
8.33
3.0
8.67
5.67
1.67
-2.67
4.33
10.67
2.67
7.0
5.33
6.33
1.0
-2.0
4.67
-1.33
0.0
9.33
3.33
-1.67
2.0
7.0
6.67
3.0
-2.67
7.33
-2.0
5.67
2.33
4.67
3.67
-1.0
-2.67
2.33
6.0
3.67
3.67
6.0
5.33
3.0
-2.33
1.0
-1.67
1.67
2.0
4.0
4.33
4.67
3.33
2.0
2.0
-2.67
-1.0
-2.33
1.0
-0.33
-0.67
0.67
0.0
-3.67
-2.33
5.33
-0.67
-0.33
0.33
0.33
4.33
0.0
0.67
4.67
2.0
1.33
7.67
2.0
5.67