File: EDX Back Ups and Old Files/Spectra copy 3.3.23/Samples/High pH SF 25C 9d/11.25.txt
0.0
69.0
28.67
21.67
44.0
2.67
50.0
-39.0
-41.67
-69.33
-39.0
-27.33
-7.67
10.67
3.0
-0.33
-5.67
-1.67
-4.33
0.67
-0.67
0.0
0.0
0.0
1.0
-0.67
-0.67
0.0
0.67
0.33
-0.33
0.67
-0.33
-0.67
-0.33
-0.33
1.0
-0.67
-0.33
1.0
-0.67
-0.33
0.67
0.67
-1.0
-0.67
0.0
0.67
-0.33
1.67
-1.33
1.0
1.0
3.33
1.67
1.0
1.0
-0.67
3.33
2.67
5.33
-1.67
4.33
-2.67
3.67
-2.67
-0.33
5.67
4.0
2.33
1.0
5.67
0.67
5.0
4.67
-2.33
-0.67
2.0
0.33
1.0
0.33
-4.33
-3.0
-3.67
-0.33
-1.67
4.67
0.0
7.0
1.67
-1.67
3.67
5.33
5.67
4.67
3.67
-1.0
8.67
6.0
2.33
-0.67
4.33
-3.0
0.67
-1.33
5.33
1.33
3.0
-2.67
3.33
7.0
-2.33
-1.67
4.0
-0.67
1.67
-3.0
1.67
1.33
1.67
2.33
-2.0
0.0
4.0
1.33
-3.0
-1.67
4.33
2.67
3.33
3.33
-2.33
-1.67
-2.33
1.0
0.33
-3.33
10.0
0.33
-0.33
5.33
1.33
-4.67
11.33
3.33
-1.33
6.67
8.33
-2.67
5.0
4.33
2.0
1.33
4.0
6.33
0.67
2.67
-1.0
-5.0
5.67
7.67
-2.67
1.67
6.67
1.33
5.0
5.0
-4.0
4.33
5.67
7.33
7.33
-1.67
0.0
1.33
7.0
-0.33
-6.33
6.0
6.0
1.33
0.67
4.67
0.67
-0.67
-2.0
-2.0
2.67
4.33
-0.67
-0.33
0.0
8.67
-2.33
1.0
2.33
-2.67
1.0
2.33
-0.33
-0.67
1.33
6.33
-0.67
-1.0
-1.0
-1.33
3.0
-2.0
1.67
-2.67
1.0
5.0
4.67
1.0
0.67
-2.0
3.33
1.33
-2.67
-3.33
3.0
-4.33
-6.0
-3.33
11.67
2.67
6.33
-0.33
3.0
-3.67
2.33
-0.67
1.33
3.67
-2.33
0.67
-2.33
1.67
12.33
3.0
-0.67
2.0
0.33
3.33
-2.67
-1.33
3.0
-0.33
-1.0
-4.33
-2.0
5.33
-1.33
-1.67
0.33
0.67
1.33
0.67
-1.67
2.67
9.0
-6.0
2.67
-0.67
2.67
-1.0
-3.33
2.0
-1.67
6.67
1.67
-2.0
0.0
0.33
2.0
-2.33
-2.0
0.67
-4.0
2.33
2.0
-3.0
-1.33
3.33
0.0
1.0
2.0
-4.0
1.67
-3.33
-1.67
1.33
-0.33
-1.0
2.0
-2.33
-5.33
0.0
2.67
-0.67
3.33
-2.33
2.0
-1.67
-2.0
-0.67
-0.33
-1.33
1.0
-3.33
-4.33
-1.0
4.67
0.67
4.67
-1.67
8.0
-0.33
0.0
-2.0
1.0
1.67
1.67
-3.0
4.33
1.67
-3.0
-0.33
4.0
-1.33
1.33
0.0
-1.67
1.33
2.67
-2.33
0.67
-3.67
2.33
0.33
2.67
0.33
2.0
1.67
2.33
-2.67
2.33
3.0
8.67
-1.0
-2.0
-1.67
6.0
4.33
7.0
0.33
-2.0
1.67
3.0
1.33
5.67
-2.0
-2.67
-8.0
-6.33
-3.33
-5.33
-2.33
-3.0
-5.67
-2.0
-1.67
0.0
6.33
1.33
3.67
4.0
-2.33
3.33
2.33
2.67
-1.0
3.67
-1.33
3.67
-3.0
-1.0
-0.33
0.0
3.0
0.67
-2.67
-2.0
1.67
-2.0
3.0
-3.0
-0.33
0.33
2.33
-4.67
2.0
1.33
11.0
8.67
11.33
23.67
13.0
5.67
7.67
3.67
5.33
16.67
1.67
6.0
-2.33
2.33
-1.67
4.0
2.67
3.0
9.0
6.0
-1.0
-2.67
3.0
10.33
3.0
4.33
-3.0
0.0
0.33
-4.0
2.67
7.0
1.67
-1.0
4.67
-3.33
3.0
6.33
-0.33
-1.33
6.67
6.67
-3.0
4.0
4.33
6.67
10.67
6.67
-1.33
5.0
-1.33
3.0
11.0
5.33
3.67
-3.0
8.0
3.67
0.0
6.0
2.0
0.67
11.67
13.67
4.67
-5.0
5.33
7.33
-3.67
13.33
-4.33
-1.0
4.0
4.0
6.67
9.67
3.33
4.0
-5.67
3.33
-2.0
10.0
1.0
7.67
4.0
6.33
11.0
8.0
2.33
7.67
7.33
-0.33
-1.33
-1.33
-2.33
0.67
-6.0
0.0
0.67
-0.67
-0.67
12.33
5.67
9.67
8.0
17.0
3.0
11.0
17.67
16.67
26.0
26.33
29.33
30.0
30.33
53.33
38.67
34.33
23.33
18.33
7.33
16.0
20.67
6.33
6.67
7.67
-0.67
9.33
11.33
11.67
2.33
-0.33
9.67
6.33
7.67
8.33
1.67
8.0
5.0
14.67
10.0
9.33
0.67
2.33
14.33
3.33
8.67
2.67
8.67
6.33
6.67
12.67
14.0
12.33
7.0
1.0
-2.33
8.33
13.67
10.33
14.0
18.0
9.67
7.33
15.0
4.0
9.33
5.67
-5.33
7.0
15.0
10.0
10.0
12.67
7.67
9.33
14.0
2.67
5.67
7.67
7.0
17.67
17.33
15.0
15.0
1.0
21.67
12.33
10.67
7.33
-2.0
2.67
10.33
11.0
5.67
0.67
8.67
11.33
3.33
8.33
6.0
7.33
10.0
14.0
12.33
7.0
21.67
7.67
8.0
5.33
2.0
10.33
8.0
8.33
11.0
8.33
10.67
16.33
4.67
4.67
11.33
8.67
12.33
7.33
5.67
5.0
9.67
12.67
16.33
12.33
15.33
18.67
11.67
10.67
18.67
25.0
9.33
14.33
19.67
28.33
8.33
24.33
30.67
40.0
39.33
55.67
66.67
120.33
109.0
164.0
185.33
226.67
241.67
242.0
258.0
227.0
231.0
188.33
173.0
148.33
114.33
88.33
78.67
45.67
26.67
22.0
16.33
19.67
8.0
12.33
18.33
6.33
0.67
4.67
19.0
18.0
18.33
-0.67
16.33
6.33
12.67
15.33
7.67
14.67
16.0
13.33
-1.67
18.67
-5.0
15.33
8.0
8.0
18.33
11.67
9.33
4.0
9.0
6.0
3.33
8.0
16.33
14.67
0.67
16.0
9.67
5.67
8.0
3.33
9.33
9.0
9.0
10.0
12.33
4.0
16.67
10.67
7.33
9.33
16.0
1.67
13.33
0.0
14.0
-6.67
-3.67
3.0
5.0
8.33
6.0
1.0
16.67
4.0
6.67
4.33
7.0
1.67
17.0
8.67
3.0
12.67
2.0
7.67
1.0
9.67
-4.67
14.67
1.33
6.67
10.0
7.67
5.67
12.0
16.33
19.0
14.0
14.0
3.0
1.33
9.67
1.33
4.0
12.0
1.0
5.0
11.0
3.33
5.67
7.0
6.0
16.33
-1.33
-3.33
14.0
4.67
7.0
12.0
0.0
-3.33
5.0
19.33
-5.67
1.0
5.0
10.33
4.33
6.67
8.33
8.67
9.33
12.0
2.67
15.67
12.67
6.67
18.67
17.33
9.67
15.33
2.0
7.0
-0.33
14.0
4.0
5.67
4.33
-5.33
-3.67
-1.0
3.67
6.67
3.67
8.33
12.0
-4.0
3.33
-4.33
5.33
-2.33
-1.0
13.67
2.33
13.67
7.33
-1.33
5.67
1.33
5.0
1.33
-2.0
1.67
-0.67
2.0
-1.0
1.33
8.67
6.0
4.67
0.0
-2.0
11.0
-4.0
10.33
-1.0
7.67
1.67
4.33
14.33
-3.33
2.33
4.67
-2.67
-9.67
1.33
3.33
3.0
1.33
0.67
2.0
5.33
6.67
0.0
16.33
1.67
8.0
3.67
16.0
6.67
17.33
8.33
2.0
11.0
8.67
11.33
6.67
6.0
13.33
17.33
18.67
7.33
9.0
5.0
-5.67
-2.33
-4.67
-2.0
7.33
2.0
3.33
0.33
4.0
-5.33
3.0
1.0
3.67
2.67
4.33
5.33
-9.67
3.67
7.33
-2.0
8.0
2.0
5.0
1.67
5.33
-1.33
-10.0
-3.0
2.0
-1.67
-6.0
-6.67
-2.33
-0.67
2.0
12.33
-1.0
5.33
0.67
2.33
-3.33
-7.33
1.0
1.33
9.33
3.0
2.67
-8.0
7.0
9.67
4.0
2.33
10.67
-1.67
7.0
-1.0
-3.67
5.33
-2.33
-3.0
1.67
0.33
-0.67
2.0
13.33
15.33
-3.0
4.67
14.67
2.67
0.33
8.33
9.67
0.67
0.0
10.33
1.33
7.0
14.0
0.67
6.67
-4.0
-5.67
-1.67
1.33
-5.0
3.0
-0.33
-3.0
-2.67
3.33
3.0
4.67
5.33
4.67
0.67
-1.0
7.33
0.33
-1.0
-1.33
8.67
6.0
-5.67
1.0
-0.33
-1.0
0.33
1.67
-1.0
1.0
1.33
-4.33
2.33
8.0
6.0
-0.67
-2.0
1.67
0.0
4.67
1.33
2.67
-1.0
1.33
3.67
8.33
2.33
-3.33
-3.67
-0.67
0.33
1.0
-4.33
1.67
0.0
-4.67
3.67
-1.0
0.67