File: EDX Back Ups and Old Files/Spectra copy 3.3.23/Samples/High pH SF 25C 9d/12.0.txt
0.0
-109.0
-49.33
-61.33
33.0
-25.33
119.0
-8.0
-9.67
-39.33
-26.0
19.67
4.33
-15.33
6.0
3.67
-5.67
-0.67
-0.33
-1.33
0.33
1.0
2.0
1.0
2.0
-0.67
-0.67
1.0
-0.33
-0.67
-0.33
-0.33
-0.33
0.33
-0.33
-0.33
0.0
-0.67
-0.33
0.0
-0.67
0.67
-0.33
2.67
0.0
-0.67
-1.0
-0.33
-0.33
-0.33
-0.33
1.0
0.0
0.33
1.67
2.0
-2.0
5.33
3.33
-1.33
-0.67
-2.67
1.33
1.33
1.67
-3.67
-2.33
1.67
1.0
2.33
1.0
4.67
-2.33
6.0
-3.33
-2.33
3.33
-6.0
-0.67
4.0
1.33
-4.33
-2.0
-0.67
2.67
-1.67
2.67
1.0
5.0
-0.33
11.33
2.67
2.33
-1.33
2.67
0.67
1.0
2.67
-1.0
7.33
4.33
2.33
2.0
-2.33
7.67
-0.67
3.33
9.0
-1.67
5.33
5.0
-2.33
-0.67
-6.0
0.33
4.67
-2.0
4.67
1.33
-0.33
0.33
2.0
-1.0
7.0
3.33
0.0
-2.67
3.33
4.67
-3.67
7.33
-2.33
9.33
0.67
0.0
4.33
4.67
3.0
2.33
3.67
3.33
4.33
-3.67
7.33
7.33
6.67
0.67
-1.67
-0.67
6.0
1.33
8.0
1.33
-3.0
1.33
-1.33
-2.33
1.0
5.0
1.67
1.67
2.33
4.67
6.67
0.33
1.0
-1.0
-4.0
-3.67
0.67
-1.67
2.33
-0.67
3.0
-6.67
1.0
-1.33
-5.33
1.0
3.0
-2.67
-3.33
-2.33
7.67
0.33
-1.0
-4.0
-1.33
-0.67
1.33
-0.33
-1.0
-2.33
3.67
0.0
-3.67
-0.67
-1.0
-3.67
5.67
6.33
-0.67
2.33
-2.67
1.0
-3.0
-2.33
1.0
-1.0
8.67
-3.67
2.0
4.0
-1.33
-1.0
4.67
0.0
5.33
0.33
-1.67
-0.33
5.0
-2.33
-5.0
1.67
3.67
-0.33
3.33
-0.33
-3.0
1.33
1.33
1.33
1.33
-1.33
-1.33
1.67
-4.33
-0.33
0.33
2.0
1.33
-3.0
-1.67
-1.67
-2.67
3.67
-1.0
3.67
0.0
-2.33
2.0
4.33
-1.33
-1.67
4.33
3.67
-1.67
0.67
-1.67
3.67
0.0
-2.0
0.67
-4.67
0.67
0.0
-3.33
1.0
-0.67
2.67
-3.33
-6.0
-4.0
-1.67
3.0
5.67
-2.0
0.67
1.0
1.33
1.0
0.0
-0.33
4.33
3.0
3.0
2.0
5.0
-1.33
-3.33
2.33
-0.67
0.67
-1.0
9.0
-5.33
1.67
6.0
2.67
2.33
2.33
0.67
-3.0
-2.67
-2.0
1.33
-2.33
1.67
-3.0
-5.33
2.67
-1.0
-1.33
5.67
-2.33
-1.67
-1.0
-1.33
0.0
0.0
2.0
-5.33
-0.33
2.0
0.33
0.67
1.0
-1.33
3.0
-0.33
-1.67
0.0
-3.67
1.33
7.67
-1.33
1.67
0.33
-1.67
2.33
2.67
1.33
2.0
2.67
-0.67
-3.67
4.33
1.0
5.67
-3.0
-2.0
2.33
4.0
4.33
-2.0
-1.67
1.0
-1.33
-1.0
1.33
1.67
-6.0
-1.67
-4.0
-2.33
-6.33
-0.33
-1.33
5.0
-0.67
-1.0
-1.67
0.0
5.33
3.33
-2.33
-3.0
-0.33
2.33
7.33
1.67
-4.0
3.67
-5.33
-0.33
0.0
3.0
-2.33
8.0
-3.0
2.67
-4.67
0.0
7.67
3.0
1.0
-4.0
1.67
-0.67
0.33
-0.67
-1.0
-5.67
0.0
5.67
-0.67
2.67
2.0
-3.33
3.67
5.67
0.33
7.67
-5.33
-2.0
-0.33
5.33
1.33
0.0
6.67
-2.0
3.0
9.0
2.0
3.33
0.0
16.33
8.0
1.33
5.0
3.0
-2.67
1.0
2.67
5.0
6.67
-5.0
5.67
-2.33
6.0
12.33
5.67
-2.33
-3.33
2.67
-2.0
2.0
4.33
3.67
4.67
1.67
-3.33
-1.0
-1.33
-1.0
9.0
5.33
0.67
-2.0
9.0
8.67
6.0
4.0
5.0
1.67
0.67
-4.33
-1.33
2.0
0.33
-3.67
0.33
2.33
-2.33
-2.0
2.0
3.0
3.67
8.67
8.33
9.0
10.33
0.33
8.0
3.0
2.0
5.67
-7.0
-1.67
7.0
0.0
1.33
9.67
10.33
3.67
-0.33
4.67
3.67
3.67
2.0
-3.0
6.67
-4.67
9.33
1.33
12.67
8.67
14.0
13.0
9.0
4.0
12.67
24.67
21.0
31.33
30.33
38.0
25.33
35.33
39.67
28.33
20.33
29.33
21.33
21.0
13.67
11.33
3.67
-6.33
8.33
14.33
14.33
4.67
1.33
3.67
7.67
2.33
7.67
3.33
4.67
13.0
11.0
6.67
10.0
10.33
7.67
12.33
5.33
-3.67
9.67
7.67
17.67
10.33
-4.33
3.67
7.0
10.33
8.0
5.0
5.67
5.33
11.67
15.33
13.0
6.0
4.67
2.33
15.0
2.0
13.33
8.67
11.67
11.0
21.0
10.0
24.0
13.67
23.67
9.33
16.0
11.67
1.67
8.67
9.0
11.67
8.33
9.0
14.0
4.0
9.67
6.33
10.67
16.33
11.0
6.67
11.33
15.0
6.67
6.67
6.67
12.33
9.33
6.33
6.0
7.33
8.0
4.0
12.33
20.0
5.67
14.67
9.0
6.33
12.0
15.33
-1.0
13.33
9.0
11.33
10.67
12.33
14.67
4.67
18.33
1.67
17.33
8.33
16.67
6.0
13.67
11.67
7.33
10.33
20.33
20.67
9.67
7.67
20.67
10.0
9.33
15.33
8.67
26.33
26.33
34.33
44.67
50.0
63.33
87.67
97.67
144.33
184.0
210.0
228.33
283.67
316.67
311.0
346.0
325.0
346.0
304.33
234.0
241.33
191.33
131.33
103.67
73.67
52.67
30.0
28.33
29.67
6.0
12.33
3.33
11.33
5.67
-1.33
14.0
15.0
13.33
10.33
11.33
10.33
1.67
4.33
4.67
14.67
2.0
7.33
8.33
17.67
9.0
5.33
17.0
8.0
14.33
1.67
20.33
14.0
6.0
1.0
-5.67
7.0
4.33
7.67
-1.33
17.0
6.67
10.67
1.0
11.33
9.33
13.0
8.0
-8.0
0.33
9.0
7.67
15.67
-3.67
6.33
6.0
5.67
17.33
-1.0
14.0
-9.67
10.33
3.0
17.0
-5.67
6.0
6.0
8.67
-14.0
6.67
2.33
11.0
3.67
4.0
7.67
-8.0
2.67
-4.0
3.67
3.0
1.67
13.33
-1.33
0.33
8.67
-1.0
8.67
13.67
-1.0
12.33
16.0
0.0
19.0
1.0
3.33
0.67
1.33
-3.0
-3.0
5.0
-7.0
7.0
5.33
16.67
-8.0
-3.0
20.33
-0.33
-2.33
6.0
-8.33
0.0
15.0
-4.0
-4.33
5.0
9.33
10.33
-7.0
11.0
4.33
-3.67
5.67
16.33
19.67
7.33
18.0
3.67
4.67
12.67
7.67
36.67
9.33
10.67
15.33
21.0
17.0
9.67
18.0
3.0
11.67
5.33
8.67
1.33
9.0
14.67
-1.33
2.67
8.33
7.0
-4.0
0.33
9.67
10.33
-5.33
-8.0
9.67
10.33
-0.33
-6.67
5.67
-8.33
-10.67
3.0
11.33
0.0
9.67
-0.67
3.0
-7.0
-6.67
-4.33
6.0
7.67
4.0
0.0
5.0
-3.0
7.33
1.0
2.67
5.67
-2.67
5.33
-6.33
-2.67
-3.33
7.33
2.33
2.33
0.33
1.0
-2.67
10.67
-5.0
5.33
-2.33
6.0
2.33
3.67
7.0
7.67
20.0
8.67
16.33
14.33
3.0
16.0
5.67
1.33
5.67
4.0
7.33
23.33
3.67
12.33
9.0
11.0
3.33
-4.33
-7.67
-9.0
2.33
6.0
1.33
9.33
12.0
-1.33
13.0
0.0
11.67
1.67
3.33
3.33
-2.67
5.67
14.33
1.0
6.0
-2.0
0.0
-2.33
2.33
9.67
-1.0
1.0
4.0
3.33
9.0
-6.67
0.67
0.33
-1.0
10.33
-5.0
11.33
-3.33
3.33
6.67
-8.33
5.0
11.33
1.33
7.0
3.67
-2.0
4.0
-0.33
-4.0
-2.67
10.67
-3.67
3.0
2.0
-2.67
-1.67
-4.33
-6.0
2.67
1.33
-0.67
0.0
8.33
11.33
15.0
5.67
7.67
-3.33
-1.67
4.33
12.67
2.67
7.0
5.33
-0.67
10.0
3.0
2.67
3.67
0.0
6.33
2.33
8.33
-1.0
6.0
1.67
5.0
1.33
4.33
3.0
4.67
0.33
-1.33
-1.33
0.0
0.33
0.33
-6.0
-3.33
4.67
5.0
-0.67
1.0
-0.33
5.0
-2.67
2.67
1.0
-1.0
2.33
3.67
1.33
3.0
3.0
-1.67
-4.0
-1.33
-7.0
2.67
-5.67
-2.33
0.0
-4.67
5.67
3.33
1.33
-0.33
-1.67
-3.67
-0.67
1.0
-4.33
4.67
3.0
-0.67
1.67
-4.0
5.67