File: EDX Back Ups and Old Files/Spectra copy 3.3.23/Samples/High pH SF 25C 9d/12.25.txt
0.0
24.0
0.67
-8.33
44.0
77.67
8.0
62.0
50.33
42.67
16.0
0.67
19.33
8.67
5.0
-15.33
-0.67
-4.67
0.67
2.67
2.33
0.0
0.0
0.0
0.0
-0.67
-0.67
1.0
-0.33
0.33
0.67
-0.33
-0.33
0.33
-0.33
0.67
0.0
-0.67
-0.33
0.0
0.33
-0.33
1.67
-0.33
-1.0
-0.67
-1.0
0.67
0.67
1.67
-0.33
1.0
-1.0
0.33
-1.33
5.0
-1.0
1.33
1.33
1.67
1.33
3.33
4.33
-2.67
-0.33
0.33
-0.33
6.67
3.0
4.33
-4.0
1.67
-1.33
-4.0
-2.33
0.67
-0.67
-4.0
1.33
1.0
3.33
-0.33
-1.0
-1.67
1.67
1.33
-2.33
6.0
4.0
-1.33
9.33
10.67
3.33
2.67
1.67
4.67
-2.0
1.67
-3.0
1.33
0.33
4.33
0.0
1.67
4.67
2.33
-2.67
7.0
-1.67
1.33
-1.0
-0.33
5.33
-4.0
1.33
6.67
-1.0
0.67
2.33
-1.33
1.33
0.0
3.0
0.0
0.33
1.0
3.33
-4.67
6.67
2.33
1.33
8.67
-3.67
-2.33
2.0
6.33
0.67
5.0
1.33
0.67
2.33
5.33
-3.67
1.33
-0.67
6.67
2.67
1.33
-0.67
-1.0
0.33
0.0
0.33
1.0
4.33
1.67
-3.33
2.0
4.0
3.67
2.67
-1.67
5.67
-1.33
5.33
0.0
7.0
2.0
3.33
0.67
0.33
-1.67
3.33
1.0
-1.67
0.0
-2.33
-1.33
9.0
-5.0
-6.67
-5.33
3.67
-0.33
-3.67
4.0
2.0
4.67
2.33
-1.67
-6.33
2.0
0.67
-0.33
1.0
5.33
0.33
-4.0
-0.67
-6.33
2.33
0.33
0.33
-0.67
-1.0
2.0
-2.33
-3.0
-3.0
-2.33
-0.67
-1.0
3.0
3.67
1.0
-0.33
-1.0
-2.67
-1.67
0.33
-0.33
2.0
4.67
3.0
-5.33
1.67
-4.33
6.33
-2.33
6.0
-0.67
0.33
8.33
0.33
2.67
1.67
6.67
3.67
4.67
1.33
0.0
3.33
-6.0
3.33
1.33
-1.67
-1.33
3.0
0.67
0.0
1.67
3.0
1.33
1.67
-1.67
3.33
-1.33
1.33
0.67
-1.67
0.67
7.0
3.0
2.67
-0.67
-0.33
-3.0
-2.33
4.0
-2.67
0.67
-1.33
-1.0
-1.0
2.33
3.0
-1.33
-3.0
6.67
0.0
-0.67
3.0
-2.0
-2.33
7.33
2.0
-1.0
2.0
-5.0
-1.33
0.67
2.33
-1.67
0.67
-1.0
2.0
-5.33
-4.33
4.0
1.67
2.33
4.33
-0.33
3.0
-1.67
3.0
0.33
-2.33
1.67
1.0
-2.33
-4.33
-3.0
-3.33
2.67
-1.33
-1.67
-7.0
-0.33
3.0
-3.0
1.0
-5.33
7.67
-5.0
-5.67
-0.33
1.0
1.67
1.0
0.67
-5.67
1.0
-3.67
0.33
5.67
-3.33
0.67
0.33
1.33
-5.67
-0.33
-1.67
-2.0
-0.33
-1.67
-0.67
4.33
2.0
4.67
-2.0
-1.0
-0.67
8.0
3.33
-4.0
3.33
-2.0
-1.33
-3.0
-1.67
-1.33
-4.0
0.33
-5.0
-8.33
-2.33
-2.33
-7.33
-3.0
-4.67
-2.0
-1.67
3.0
2.33
4.33
-5.33
-1.0
-1.33
-0.67
2.33
1.67
-2.0
0.67
1.67
-2.33
-1.0
0.0
-0.33
1.0
1.0
0.67
2.33
2.0
3.67
1.0
2.0
-5.0
4.67
4.33
3.33
0.33
1.0
-3.67
7.0
5.67
3.33
4.67
7.0
5.67
3.67
-0.33
0.33
0.67
-3.33
0.0
-6.33
4.33
-6.67
-1.0
-0.33
-5.0
3.0
3.0
-3.0
-0.67
-6.0
2.33
-2.0
0.33
-7.0
2.0
-2.67
0.0
-0.33
3.0
-1.33
-7.0
6.67
-5.33
-2.0
6.33
-3.33
-3.33
6.67
1.67
4.0
-1.0
-4.67
1.67
1.67
-2.33
-5.33
-6.0
-6.33
-2.0
2.0
1.33
2.67
-6.0
5.0
-9.33
2.0
1.0
1.0
-2.33
-1.33
3.67
3.67
0.0
-0.67
-3.67
3.33
-2.67
-6.33
0.0
4.0
-4.0
1.67
-0.33
5.33
2.0
5.33
-2.67
-6.0
-1.0
-1.0
3.67
-8.0
-1.67
0.0
1.0
-0.67
1.67
1.33
0.67
7.67
-4.33
-6.33
3.67
-6.0
-7.0
4.67
3.33
-4.67
0.33
0.67
1.67
2.0
9.0
1.0
7.0
-2.33
10.67
19.0
16.33
15.33
17.0
17.33
24.33
28.67
19.33
18.33
12.33
19.33
-2.0
6.67
5.33
-6.33
2.67
3.33
3.33
-0.67
4.67
3.33
-1.33
2.67
2.33
8.67
-1.67
-1.33
12.0
-4.0
9.67
3.0
-2.67
7.67
2.33
3.33
-2.67
1.67
3.67
0.67
-0.67
0.67
6.67
8.0
1.33
-2.0
4.0
0.67
-0.67
-1.33
4.33
5.0
2.0
-2.33
4.33
5.0
6.0
9.33
2.67
-12.33
8.0
4.0
6.0
7.0
1.67
4.67
-0.67
5.0
1.67
0.67
7.67
7.0
10.67
1.33
5.0
8.0
8.0
-0.33
-1.67
14.67
15.33
0.0
4.67
4.33
1.0
0.67
-8.33
6.67
7.33
10.33
11.33
9.0
3.33
4.0
3.0
6.33
6.0
-0.33
0.67
4.0
2.33
8.0
-2.67
-4.0
11.33
10.0
-1.67
-1.33
14.33
14.67
-0.33
3.33
-0.33
14.33
3.33
1.67
8.0
10.67
0.67
17.33
8.33
6.33
8.67
6.67
-0.33
7.67
15.0
0.33
4.33
1.67
11.33
1.33
20.33
25.67
25.0
25.33
52.67
81.67
83.33
112.0
124.0
158.33
146.67
177.67
192.0
180.0
198.0
176.0
157.33
128.0
131.33
122.33
81.33
69.67
35.67
20.67
18.0
28.33
11.67
5.0
11.33
-0.67
1.33
-5.33
-0.33
7.0
9.0
-3.67
-3.67
1.33
6.33
3.67
8.33
-2.33
15.67
-1.0
2.33
2.33
3.67
-3.0
5.33
10.0
10.0
11.33
3.67
10.33
7.0
2.0
10.0
3.33
12.0
0.33
-10.33
-10.33
5.0
4.67
-9.33
5.0
10.33
10.33
8.0
-1.0
6.0
12.33
-2.0
7.67
13.67
-0.67
-0.67
11.0
1.67
7.33
-8.0
2.0
0.33
-3.67
8.0
-2.0
2.33
9.0
-5.0
5.67
-6.0
5.67
5.33
6.0
7.67
-1.0
-2.33
-1.0
-1.33
1.0
1.67
-3.0
9.67
-2.67
2.67
-4.67
11.67
11.0
14.67
-1.33
2.0
15.33
7.0
1.0
19.0
-8.0
-1.67
8.67
7.33
-4.0
7.0
7.0
-4.0
-11.0
24.33
12.67
-3.0
-1.0
4.33
-2.33
-1.33
-12.0
-5.33
2.0
15.0
-9.0
1.67
5.0
15.33
4.33
-3.0
1.0
-0.67
2.33
7.67
-5.67
4.67
-1.67
7.0
6.67
2.67
13.67
-7.33
19.67
-3.67
10.67
17.33
12.0
-6.0
5.67
14.0
-10.0
-7.33
-1.67
2.67
0.33
3.0
-0.33
-2.33
-5.33
-9.67
10.0
-9.0
5.33
-2.33
0.33
3.67
-10.0
7.67
-1.67
-1.33
18.33
2.67
-2.33
-4.67
2.0
-1.67
-4.0
-0.33
1.33
4.0
5.0
-4.67
3.67
6.0
5.67
9.0
-1.0
8.0
-6.0
-1.67
-6.0
6.67
-0.33
6.33
9.33
-4.33
5.33
-4.33
-6.67
-11.67
11.33
1.33
3.0
10.33
11.67
5.0
0.33
6.67
-3.0
-5.67
5.67
11.0
2.67
12.0
10.67
3.33
9.33
-1.0
11.0
-1.33
9.33
-1.33
9.0
12.33
17.33
2.67
6.33
8.0
1.0
-7.67
11.67
0.33
-4.0
-0.67
-2.0
4.33
1.33
12.0
-1.33
-1.0
3.0
0.67
-1.33
9.33
0.33
-6.67
4.67
8.33
-1.0
-4.0
-2.0
-2.0
0.67
1.33
8.67
1.0
2.0
-4.0
-1.67
-5.0
-2.67
1.67
5.33
-3.0
7.33
2.0
4.33
1.67
0.33
3.67
-8.33
6.0
-0.67
0.33
0.0
-0.33
0.0
3.0
6.67
-1.0
0.33
6.67
1.33
-4.0
-3.0
-3.67
-2.67
1.67
1.0
8.67
3.33
4.33
10.0
3.33
3.33
3.0
0.67
10.67
-3.33
0.33
7.33
9.67
1.67
6.0
-2.67
4.33
7.0
-2.0
-4.33
-2.33
3.0
5.33
-2.67
-1.67
0.0
2.0
-2.33
1.0
2.33
4.33
6.0
-4.33
2.33
1.67
-4.33
3.0
-0.67
-2.67
-3.0
2.67
3.67
6.0
0.33
3.0
4.67
-3.0
-3.67
-0.33
4.0
1.0
4.33
1.67
-0.67
1.0
1.0
4.33
0.0
0.67
-4.0
4.67
-1.67
2.67
-1.0
4.33
2.67
-0.67
-1.67
-1.33
3.33
1.33
-2.67
-1.0
-4.33
-0.33
3.0
-1.67
-4.33
-1.0
2.67