File: EDX Back Ups and Old Files/Spectra copy 3.3.23/Samples/High pH SF 25C 9d/6.75.txt
0.0
99.0
-20.33
-22.33
63.0
134.67
30.0
24.0
32.33
-41.33
26.0
0.67
7.33
1.67
-4.0
-0.33
-4.67
2.33
2.67
1.67
1.33
-1.0
0.0
1.0
0.0
-0.67
0.33
1.0
1.67
-0.67
0.67
-0.33
-0.33
0.33
-0.33
0.67
1.0
-0.67
0.67
0.0
0.33
-0.33
-0.33
-0.33
-1.0
0.33
2.0
0.67
-0.33
2.67
-1.33
1.0
-1.0
2.33
-0.33
0.0
-2.0
1.33
0.33
1.67
0.33
-1.67
4.33
-1.67
1.67
-0.67
-1.33
-1.33
1.0
4.33
-3.0
-0.33
0.67
1.0
1.67
2.67
3.33
-2.0
3.33
10.0
7.33
-2.33
3.0
0.33
-0.33
4.33
0.67
0.0
6.0
3.67
7.33
3.67
8.33
-1.33
1.67
2.67
3.0
7.67
6.0
4.33
3.33
2.33
2.0
4.67
-3.33
1.33
0.33
5.0
-1.67
3.33
-1.0
7.67
3.33
6.0
0.33
8.67
-1.0
1.67
-1.67
3.67
9.33
-2.0
3.0
1.0
3.33
1.0
-0.67
9.33
0.67
11.33
10.33
1.67
9.33
-3.33
4.0
3.33
-0.33
3.0
5.33
7.67
6.33
3.33
3.33
8.33
-0.67
-2.33
7.67
-1.67
5.33
3.0
10.33
5.0
-4.67
-2.0
7.33
12.67
2.67
-3.0
10.0
3.67
5.67
11.33
2.67
8.67
4.33
4.0
2.0
3.0
-1.67
6.67
1.33
0.33
-0.67
2.0
1.33
-2.0
1.67
0.67
4.0
0.0
-5.67
-3.33
0.67
2.67
5.33
2.0
3.0
1.67
4.33
2.33
2.67
2.0
-1.33
0.67
-4.0
0.33
3.33
3.0
-0.67
-1.33
10.33
4.33
-0.67
2.33
5.0
5.0
3.67
2.0
4.0
4.67
0.33
0.0
0.0
2.67
-3.0
2.67
3.0
1.33
2.33
-4.67
6.67
1.0
-0.33
-2.0
1.67
7.67
4.67
6.33
0.67
-1.0
-1.67
5.33
3.33
1.33
-2.33
4.67
6.67
-0.33
1.67
2.33
3.0
-1.67
-3.0
2.33
4.33
-3.67
-1.33
4.0
0.67
-4.0
2.67
1.0
7.33
4.67
0.33
-0.67
-1.33
0.33
1.67
-2.67
-1.33
7.0
-2.0
2.67
-0.67
3.67
-4.0
-1.33
-2.0
-2.67
3.67
4.67
5.0
1.0
2.33
0.0
0.67
1.0
3.67
-1.0
0.33
-1.0
1.0
-0.33
5.33
6.0
0.0
0.0
3.0
6.67
0.67
1.33
1.33
-0.33
-5.0
2.0
-2.33
-1.33
2.0
-0.33
1.33
2.33
-1.33
4.0
-3.67
2.0
5.33
-0.33
-3.33
0.0
0.67
0.67
-2.0
5.67
3.67
3.67
-3.67
4.0
-0.33
1.0
-2.0
3.0
-4.33
5.67
-3.0
0.33
-2.33
1.0
-2.33
0.0
-3.33
0.33
5.0
-1.67
5.33
4.67
-2.33
-0.33
-0.67
-1.67
-1.67
-0.33
-0.67
-1.0
-4.33
1.33
-4.67
1.33
-4.0
4.67
4.0
-2.0
-2.67
-1.0
1.33
-5.0
1.33
-5.0
-0.33
-3.0
5.33
2.67
-2.0
0.33
-1.0
-4.33
-1.33
-1.33
-2.33
3.0
-3.67
2.0
3.33
0.0
-0.67
-3.67
1.67
1.0
2.67
3.33
-1.67
-2.33
3.0
1.67
1.67
1.67
-2.0
5.0
6.67
2.0
2.0
0.67
4.33
-3.0
3.67
6.0
6.0
3.0
4.67
9.33
9.33
10.33
9.0
18.33
19.0
28.67
18.33
21.67
24.0
14.67
16.67
8.67
13.33
7.67
1.67
11.0
6.67
12.33
3.33
3.0
8.67
4.0
4.0
2.0
-3.0
7.33
1.0
8.33
5.0
-0.67
4.0
8.0
-0.67
-4.0
3.67
0.0
0.67
-2.0
13.67
-4.33
3.0
2.33
-2.33
-2.33
-3.33
4.67
4.0
-1.0
2.33
7.67
1.67
-0.33
-0.33
2.0
5.67
12.0
4.0
9.33
5.67
5.0
9.0
-5.33
-1.0
3.0
6.0
2.67
7.67
-0.33
1.67
-1.0
-1.67
3.33
-4.67
1.33
1.67
2.0
6.0
6.0
0.67
2.67
-0.67
9.0
1.33
0.33
4.0
3.0
3.0
6.67
-8.0
-0.67
5.0
5.0
1.33
6.67
2.33
-5.33
5.67
-7.33
-9.33
7.67
-2.0
-7.0
4.67
-5.67
-2.67
14.33
2.67
4.67
4.0
10.0
3.0
11.0
-4.33
11.67
15.0
10.33
18.33
12.0
26.33
13.33
21.67
9.33
16.33
10.33
11.33
3.0
-0.33
6.33
-3.33
4.67
3.33
17.33
-1.67
7.67
3.33
5.67
-4.33
10.33
-0.33
8.33
7.67
13.0
7.0
5.67
5.0
6.33
5.67
11.33
11.33
4.33
9.67
10.67
14.67
1.33
3.67
8.67
1.0
7.33
6.0
-1.0
3.67
18.33
4.67
1.33
11.0
2.0
7.67
8.33
12.0
14.0
14.33
9.67
9.67
14.0
9.0
3.0
11.0
14.67
10.67
2.33
5.0
14.67
8.67
0.67
15.0
7.67
8.33
0.0
16.0
28.0
14.67
15.33
14.67
6.33
12.0
8.67
8.33
10.0
9.67
5.67
6.67
10.33
11.33
7.33
13.0
15.33
10.0
1.0
19.33
7.0
2.67
9.67
6.0
5.33
11.0
19.33
6.0
15.33
6.0
6.33
-0.33
19.33
9.67
13.67
11.33
4.67
11.33
5.33
15.67
16.0
12.67
13.67
15.33
2.33
10.33
11.67
11.67
8.67
8.67
23.0
6.33
22.33
10.67
20.33
19.33
18.33
14.67
28.0
20.33
13.67
24.67
48.33
38.0
43.0
41.33
62.67
59.67
77.0
50.0
71.0
86.0
74.33
51.0
32.33
37.33
37.33
26.67
17.67
11.67
18.0
3.33
2.67
-2.0
16.33
17.33
15.33
13.67
4.67
11.0
1.0
17.33
8.33
16.33
10.33
5.67
24.33
8.67
9.67
13.0
1.33
10.33
14.67
5.0
9.33
18.0
9.0
12.33
7.67
-1.67
12.0
6.0
14.0
-0.67
0.0
9.33
8.67
10.67
18.0
15.67
18.67
25.0
15.33
15.33
8.0
16.0
22.0
11.33
15.0
16.67
7.67
12.33
1.33
8.0
8.67
16.33
5.0
5.0
2.33
8.33
5.0
17.0
3.33
4.0
-1.0
16.67
4.0
-1.33
20.33
9.0
-4.33
4.0
-6.33
15.0
10.67
-2.0
13.67
-1.0
10.67
9.33
18.67
5.33
9.67
29.0
6.67
22.67
17.0
14.33
39.0
25.0
26.0
30.0
38.33
31.67
29.33
29.0
29.0
20.0
14.0
5.0
18.33
16.67
7.0
11.0
8.33
-0.33
-0.33
9.0
-0.33
11.0
13.0
2.0
-1.33
1.0
15.33
7.33
0.0
13.0
5.33
0.33
-2.33
0.33
14.67
5.33
12.0
5.67
-5.33
8.67
11.67
10.67
11.33
22.67
20.33
-2.0
13.0
-1.33
20.0
-3.0
-2.33
4.33
6.67
14.33
2.0
2.67
-3.33
11.67
6.33
10.0
-1.0
-3.67
15.67
8.33
12.67
-3.0
9.67
4.33
8.67
1.33
4.67
2.67
-0.67
8.0
6.33
4.0
-1.33
4.33
2.0
0.0
9.33
2.67
8.0
8.67
2.0
0.0
11.0
-1.0
-0.67
-2.0
9.67
6.67
4.33
2.33
-2.33
15.33
6.67
8.33
6.33
1.33
11.33
6.0
12.33
-2.33
-1.0
5.33
3.67
-1.0
1.33
4.67
0.0
-2.33
-1.0
1.67
8.33
10.33
2.0
6.0
-1.33
14.33
6.67
3.0
26.33
16.33
8.67
2.33
1.0
7.0
2.33
8.67
-2.67
-4.0
7.33
5.0
5.33
4.33
4.0
9.67
12.0
3.0
3.67
12.67
5.33
5.33
-7.67
3.67
13.33
5.0
0.0
-3.0
5.0
-3.33
5.33
7.67
1.0
-1.0
3.0
-0.67
-2.0
1.33
7.67
-1.67
5.0
2.33
4.0
6.33
-2.33
6.33
-1.33
0.67
5.0
5.33
9.33
5.0
1.67
1.0
-4.0
9.67
-3.0
6.33
5.67
-1.67
5.0
-4.0
-1.67
4.33
5.67
-1.0
12.67
0.33
-3.67
-1.0
1.33
10.33
-1.0
3.67
-0.33
6.67
6.33
1.33
12.67
-1.33
13.0
5.33
-3.67
7.0
-1.0
-2.33
3.67
4.0
5.33
2.33
4.33
2.0
17.0
2.67
-1.0
-1.67
1.33
3.0
10.67
4.33
0.67
-2.33
-1.0
-0.67
-2.67
8.0
3.67
3.67
8.0
0.33
5.0
-2.33
3.0
9.33
6.67
5.0
5.0
11.33
-0.33
3.33
2.0
9.0
4.33
-3.0
-1.33
-6.0
3.67
1.33
-1.33
7.0
-0.67
-0.33
3.33
-0.67
1.67
1.33
2.33
7.33
1.0
-7.33
-1.33
2.0
-1.67
7.67
0.0
3.67