File: EDX Back Ups and Old Files/Spectra copy 3.3.23/Samples/High pH SF 25C 9d/7.0.txt
0.0
5.0
28.67
33.67
102.0
18.67
40.0
21.0
-26.67
-46.33
-35.0
23.67
6.33
-1.33
-4.0
0.67
0.33
2.33
1.67
2.67
0.33
1.0
0.0
1.0
2.0
2.33
-0.67
0.0
-0.33
0.33
-0.33
0.67
-0.33
-0.67
-0.33
-0.33
0.0
0.33
-0.33
1.0
-0.67
-0.33
0.67
0.67
0.0
-0.67
2.0
0.67
0.67
-0.33
3.67
3.0
0.0
0.33
1.67
0.0
0.0
4.33
-0.67
-2.33
0.33
0.33
3.33
-0.67
5.67
-3.67
4.67
0.67
2.0
4.33
4.0
-0.33
3.67
3.0
0.67
-0.33
2.33
-4.0
7.33
4.0
4.33
3.67
4.0
0.33
-3.33
7.33
2.67
-1.0
2.0
0.67
7.33
4.67
4.33
7.67
3.67
5.67
0.0
8.67
-4.0
6.33
3.33
0.33
-3.0
4.67
4.67
2.33
-0.67
5.0
0.33
5.33
-3.0
5.67
0.33
5.0
1.33
6.67
-2.0
3.67
0.33
2.67
2.33
-3.0
3.0
5.0
6.33
8.0
5.33
2.33
8.67
2.33
7.33
1.67
3.33
-2.33
-1.0
4.33
0.67
4.0
-0.67
9.67
2.33
2.33
6.33
8.33
3.33
6.67
4.67
8.33
1.33
5.0
1.33
1.0
2.33
7.0
1.33
-5.33
1.67
1.0
4.0
-4.33
1.67
4.33
7.67
6.67
4.33
-3.0
8.0
-1.0
1.33
3.67
2.33
5.33
3.33
-1.0
-1.67
8.0
3.67
-7.33
3.0
-2.0
-1.67
1.67
3.67
1.67
0.33
-2.0
1.0
4.67
6.33
9.33
-0.33
6.0
3.67
-4.33
-5.0
2.33
1.33
3.0
-1.67
-5.33
0.33
1.33
4.33
1.33
-2.0
3.0
-0.33
1.0
-2.0
-1.33
9.33
4.0
2.0
2.67
2.0
4.67
1.0
11.33
3.33
0.33
-1.33
6.0
0.67
4.0
-1.33
8.67
4.67
1.33
-0.33
1.0
1.33
4.33
1.33
-0.67
2.67
-1.33
5.67
3.67
-3.33
-0.67
-1.0
-1.67
-4.0
8.33
4.33
-1.67
1.67
4.0
-2.33
-2.0
-0.33
-1.0
5.33
4.67
-1.67
0.33
1.67
-0.67
1.67
-0.67
-5.33
-1.0
-3.0
7.67
-1.67
0.67
1.0
1.67
-2.0
1.33
5.67
4.67
-2.0
1.0
-0.67
-1.0
0.67
-1.0
-2.33
-1.0
1.33
2.0
0.0
-1.33
1.33
3.0
3.0
-2.0
6.0
-2.33
-0.33
2.33
2.33
-3.33
1.0
4.0
-2.33
-1.33
1.0
0.67
2.33
1.33
-0.33
0.0
0.33
0.0
2.33
-0.33
-4.33
2.0
2.67
-0.33
-2.0
1.67
-0.33
1.67
4.33
-2.0
0.67
1.0
-1.0
-3.0
-2.33
3.67
4.0
-3.67
2.67
1.0
-2.33
4.0
1.67
2.33
1.0
-1.67
0.33
4.67
0.67
-2.33
-2.67
-2.67
-3.67
3.67
-1.67
3.0
-2.33
1.33
1.33
0.33
-1.0
5.67
-1.0
4.0
-1.67
0.0
4.33
0.0
-1.67
-3.0
-2.33
-1.0
5.33
0.67
0.0
1.33
-5.0
0.67
-1.33
-0.33
-3.33
0.0
-2.67
-1.0
-4.67
-5.0
-0.67
-2.67
-3.33
-5.0
-3.33
2.33
-0.67
-2.33
-4.0
0.67
-4.33
1.67
-3.0
5.0
-0.33
-3.0
-3.0
1.67
-3.67
-1.0
7.67
1.0
1.0
0.0
8.67
2.33
9.33
6.33
10.0
7.33
18.0
32.67
23.33
38.67
29.0
10.67
13.67
11.67
4.33
8.67
5.67
3.0
5.67
3.33
4.33
5.0
1.67
1.0
8.0
6.0
-4.0
1.33
-1.0
8.33
10.0
2.33
8.0
5.0
-0.67
-1.0
3.67
1.0
-1.33
-7.0
0.67
-4.33
5.0
3.33
-1.33
7.67
3.67
4.67
1.0
-1.0
6.33
3.67
9.67
0.67
4.67
2.0
-4.33
0.0
3.0
1.33
10.67
-5.0
7.0
3.67
9.0
-3.0
9.0
3.67
6.67
1.67
0.67
1.0
1.33
-1.67
-4.67
3.33
-1.33
-3.0
1.0
6.0
8.67
10.67
-2.67
5.0
3.33
-0.67
-4.0
6.0
6.0
8.67
3.0
0.33
7.0
-1.0
3.33
3.67
0.33
-1.33
3.67
1.67
-2.33
1.67
-1.0
1.0
3.67
-0.67
2.33
4.33
2.67
3.67
5.0
13.0
5.0
6.0
10.67
15.67
10.0
23.33
18.33
24.0
16.33
19.33
15.67
17.33
9.33
12.33
17.33
13.0
3.67
9.33
-0.33
1.67
6.33
13.33
3.33
11.67
-1.67
0.67
3.67
-1.67
3.67
6.33
-0.33
9.0
12.0
7.67
5.0
6.33
16.67
11.33
10.33
6.33
6.67
0.67
9.67
6.33
3.67
1.67
4.0
0.33
2.0
6.0
5.67
8.33
6.67
6.33
7.0
7.0
9.67
8.33
24.0
3.0
6.33
10.67
-2.33
11.0
12.0
-1.0
6.0
14.67
11.67
10.33
16.0
9.67
14.67
10.67
6.0
7.67
6.33
5.0
16.0
15.0
10.67
19.33
4.67
0.33
-2.0
8.67
14.33
6.0
8.67
-0.33
13.67
1.33
7.33
2.33
12.0
14.33
12.0
9.0
5.33
5.0
10.67
6.67
12.0
-0.67
22.0
13.33
12.0
7.33
13.0
4.33
2.67
4.33
17.67
7.67
3.33
5.67
8.33
8.33
6.67
9.0
11.67
11.67
10.33
10.33
13.33
17.67
16.67
12.67
16.67
25.0
25.33
19.33
9.67
15.33
26.33
19.33
20.67
16.0
19.33
20.67
36.67
35.33
22.0
35.0
59.33
52.67
53.67
71.0
66.0
60.0
85.0
78.33
50.0
55.33
54.33
27.33
46.67
30.67
20.67
17.0
12.33
14.67
12.0
11.33
11.33
6.33
14.67
6.67
13.0
-1.0
4.33
8.33
7.33
11.33
14.67
7.33
10.67
19.67
9.0
8.33
-4.67
12.67
8.0
12.33
13.0
2.0
16.33
7.67
15.33
7.0
9.0
9.0
-1.67
13.0
11.33
1.67
8.67
14.0
13.67
9.67
9.0
11.33
21.33
12.0
12.0
21.0
20.33
5.0
15.67
14.67
12.33
6.33
16.0
5.67
13.33
9.0
5.0
4.33
5.33
16.0
12.0
-4.67
12.0
5.0
8.67
-3.0
17.67
14.33
8.0
0.67
8.0
-5.33
7.0
6.67
9.0
13.67
9.0
6.67
1.33
8.67
19.33
23.67
22.0
12.67
20.67
29.0
33.33
37.0
30.0
35.0
26.0
32.33
29.67
30.33
18.0
22.0
23.0
21.0
23.0
9.33
20.67
11.0
13.0
16.33
6.67
8.67
-2.0
15.67
10.0
6.0
13.0
8.67
0.0
25.33
18.33
-5.0
13.0
0.33
14.33
7.67
1.33
23.67
-3.67
11.0
3.67
16.67
3.67
7.67
30.67
13.33
11.67
9.33
16.0
5.0
2.67
2.0
7.0
6.67
0.33
0.67
-0.67
13.0
-6.33
6.67
4.67
4.33
7.0
8.0
2.33
6.67
11.33
-3.33
-1.0
11.67
13.33
-4.33
5.33
5.67
2.67
-5.67
2.0
5.33
6.0
15.67
1.33
-1.0
-3.0
7.33
6.67
8.0
-2.33
6.0
0.0
3.0
12.0
-1.67
2.0
6.67
-10.33
12.33
10.33
-16.33
5.33
3.67
6.33
1.33
7.33
1.33
6.0
1.33
10.67
0.0
-1.67
-0.33
-1.0
3.33
-1.33
7.0
13.67
-6.0
2.67
9.33
10.33
7.0
10.0
-0.33
5.33
-3.33
8.0
5.33
14.33
10.67
11.33
4.0
12.0
4.33
8.67
2.33
-2.0
3.33
3.0
-0.67
1.33
8.0
-0.33
3.0
2.0
2.67
2.67
11.33
5.33
-6.67
4.67
16.33
-11.0
5.0
-2.0
8.0
4.67
4.33
-0.33
4.0
-5.0
3.0
0.33
-2.0
4.33
6.67
-3.67
3.0
4.33
0.0
7.33
-3.33
7.33
0.67
-0.33
1.0
6.33
1.33
7.0
6.67
-9.0
2.0
0.67
6.0
8.33
6.67
1.33
-2.0
0.0
1.33
0.33
-3.33
-4.0
5.67
-1.67
7.33
0.0
2.33
0.33
0.0
1.67
7.67
1.67
4.33
6.33
2.67
3.67
5.0
3.33
3.33
8.0
1.0
2.67
5.67
10.0
0.33
3.33
0.33
-1.0
5.0
-1.33
0.0
-0.67
14.33
5.0
1.67
4.33
6.67
1.67
-2.0
7.33
0.33
-4.0
3.67
9.67
7.0
-2.67
1.0
-0.33
-2.0
3.33
0.67
8.0
0.0
10.33
-1.33
1.33
-1.0
-3.0
-2.67
-3.0
-1.33
-5.0
2.67
-3.67
5.67
-2.0
3.33
6.67
3.33
-1.67
4.67
1.33
-3.67
0.33
0.0
-3.33
6.67
1.0
4.33
6.67
4.0
-1.33