File: EDX Back Ups and Old Files/Spectra copy 3.3.23/Samples/High pH SF 25C 9d/8.5.txt
0.0
-57.0
-41.33
3.67
-10.0
41.67
55.0
-36.0
6.33
-3.33
-8.0
31.67
-25.67
-1.33
7.0
-0.33
-1.67
-5.67
-1.33
-1.33
-0.67
-1.0
1.0
0.0
0.0
0.33
-0.67
0.0
-0.33
-0.67
-0.33
0.67
-0.33
-0.67
1.67
-0.33
1.0
-0.67
-0.33
0.0
0.33
-0.33
-0.33
0.67
-1.0
-0.67
0.0
0.67
1.67
0.67
0.67
1.0
1.0
2.33
-1.33
0.0
1.0
3.33
3.33
-2.33
2.33
-0.67
5.33
5.33
2.67
0.33
7.67
4.67
1.0
2.33
2.0
4.67
0.67
2.0
-0.33
1.67
5.33
0.0
-0.67
0.0
5.33
-0.33
1.0
-1.67
4.67
1.33
6.67
4.0
11.0
-1.33
4.33
5.67
9.33
0.67
-0.33
1.67
0.0
-1.33
4.0
5.33
-5.67
1.33
-1.0
0.67
-1.33
3.33
0.33
-2.0
0.33
0.33
3.0
-1.33
0.33
1.0
4.33
7.67
3.0
5.67
2.33
-1.33
8.33
1.0
6.0
6.0
4.33
-1.0
2.33
7.33
1.67
-3.67
1.33
-2.33
1.33
1.67
2.0
3.33
0.67
3.0
5.33
0.67
5.33
-0.67
2.33
6.33
1.33
4.67
2.67
12.33
4.33
2.0
0.33
5.0
0.33
-2.0
1.33
-2.33
-0.33
7.0
2.0
4.67
5.67
3.33
4.67
1.67
1.33
7.0
6.0
-2.0
-0.67
1.67
3.33
-1.67
-0.67
4.0
-0.67
-1.0
-0.33
0.67
10.0
3.0
-1.67
0.67
3.67
-2.33
4.33
-5.0
6.0
5.67
-1.67
5.33
-1.33
5.0
3.67
1.67
2.0
-4.67
2.33
-1.0
2.33
-0.33
5.33
3.33
5.33
1.33
3.0
1.0
2.67
1.0
1.0
-1.33
-0.67
2.0
8.0
3.67
-1.0
-1.33
1.0
-3.67
3.33
3.33
-0.33
9.0
2.67
-4.0
-3.33
1.67
8.67
7.33
-1.33
3.0
-0.67
-1.67
1.33
5.33
2.67
-3.33
7.67
-1.33
-1.33
2.33
2.0
-1.67
-2.0
1.33
2.33
-1.67
0.67
0.0
5.67
-4.0
2.67
-4.0
4.33
-3.33
-0.67
0.33
0.67
1.33
4.67
-2.67
1.67
3.0
-6.0
3.67
-0.67
3.67
-3.0
0.67
2.0
-1.67
1.67
-3.33
-1.0
-3.0
0.33
0.0
-0.33
-2.0
1.67
-1.0
1.33
1.0
0.0
-0.33
4.33
3.0
0.0
-1.0
0.0
0.67
4.67
0.33
1.33
0.67
1.0
3.0
-3.33
-5.33
1.0
-0.33
3.33
6.33
-4.33
2.0
-1.67
4.0
2.33
-1.33
-0.33
5.0
1.67
-2.33
1.0
-1.33
5.67
4.67
-5.67
1.0
5.67
0.0
-1.0
-4.0
-3.33
1.67
-1.0
1.33
2.67
0.0
2.67
2.0
1.67
6.33
2.0
0.33
3.33
2.67
-0.33
3.67
-3.67
-1.67
-0.67
3.67
0.33
0.0
2.67
2.33
-5.67
2.33
1.0
2.67
0.0
2.0
2.33
3.0
2.33
-1.0
3.33
-4.0
-0.33
-1.0
-3.67
-0.33
0.0
-1.67
-2.0
-4.33
-2.33
4.67
-1.33
2.0
-4.67
4.0
4.33
1.0
3.33
1.33
1.67
4.0
0.67
1.33
2.33
1.67
-5.0
-0.33
-1.33
-2.33
4.0
2.0
-5.33
1.0
3.0
1.67
4.33
-1.0
11.67
8.0
3.0
4.0
0.67
14.33
13.33
8.33
20.0
14.33
20.0
29.67
25.33
22.67
23.0
24.67
27.67
22.67
18.33
12.67
5.67
4.0
1.67
-0.67
0.33
7.0
3.67
2.0
4.0
13.0
2.0
1.33
6.0
1.33
12.0
2.33
8.0
0.0
2.33
6.0
7.67
3.0
6.67
-4.0
0.67
-4.33
8.0
5.33
-2.33
-1.33
-8.33
2.67
-1.0
0.0
2.33
3.67
6.67
1.67
-0.33
-3.0
-4.33
1.0
5.0
2.33
4.67
-6.0
4.0
4.67
-2.0
1.0
4.0
2.67
4.67
5.67
4.67
-3.0
12.33
0.33
-7.67
6.33
-1.33
5.0
4.0
7.0
-3.33
0.67
1.33
4.0
-1.67
3.33
1.0
3.0
0.0
3.67
-4.0
1.33
5.0
4.0
2.33
4.67
-2.67
4.67
6.67
1.67
0.67
3.67
1.0
3.0
9.67
-4.67
2.33
7.33
3.67
9.67
5.0
10.0
10.0
5.0
13.67
13.67
23.0
21.33
11.33
13.0
15.33
29.33
16.67
14.33
14.33
18.33
11.33
16.0
-2.33
3.33
6.67
3.67
8.33
4.33
15.33
1.67
0.33
2.67
7.67
4.33
8.67
6.33
-0.33
6.0
12.0
5.67
4.0
13.33
16.67
9.33
17.33
3.33
2.67
3.67
15.67
5.33
1.67
0.67
13.0
5.33
9.0
1.0
12.67
9.33
3.67
12.33
15.0
1.0
12.67
7.33
9.0
19.0
12.33
-3.33
4.67
9.0
8.0
-5.0
9.0
15.67
4.67
13.33
13.0
2.67
6.67
8.67
-1.0
5.67
8.33
7.0
17.0
11.0
14.67
8.33
16.67
10.33
3.0
5.67
1.33
12.0
7.67
1.67
14.67
-0.67
10.33
12.33
7.0
12.33
10.0
-3.0
7.33
25.0
8.67
16.67
14.0
8.33
7.0
10.33
14.0
7.33
3.0
11.33
5.67
19.33
5.67
6.67
8.33
7.67
10.33
0.33
13.67
4.0
13.67
3.67
10.33
6.33
16.33
9.67
16.67
13.67
13.67
25.0
11.33
17.33
9.67
32.33
21.33
42.33
15.67
21.0
45.33
18.67
38.67
49.33
69.0
59.0
67.33
69.67
74.67
103.0
88.0
78.0
90.0
75.33
77.0
70.33
66.33
42.33
41.67
32.67
14.67
14.0
23.33
17.67
13.0
10.33
20.33
8.33
6.67
7.67
12.0
13.0
24.33
12.33
17.33
14.33
7.67
7.33
10.67
9.67
-1.0
2.33
4.33
14.67
4.0
-0.67
12.0
17.0
21.33
16.67
18.33
-2.0
-1.0
10.0
-1.67
9.0
4.33
16.67
5.67
11.0
8.67
7.67
10.0
9.33
9.33
8.0
17.0
8.0
11.33
3.0
17.67
9.67
4.33
7.33
18.0
2.67
15.33
9.0
16.0
8.33
-8.67
4.0
12.0
8.33
14.0
1.0
22.67
0.0
6.67
18.33
15.0
4.67
2.0
1.67
-3.0
18.67
5.0
9.67
3.0
10.67
12.33
5.67
21.33
22.67
11.0
17.67
16.67
28.0
31.33
24.0
36.0
37.0
35.0
12.33
23.67
48.33
26.0
26.0
19.0
18.0
14.0
3.33
27.67
5.0
16.0
23.33
8.67
12.67
-1.0
4.67
6.0
16.0
4.0
-0.33
9.0
23.33
-0.67
-1.0
12.0
14.33
13.33
9.67
12.33
3.67
12.33
11.0
-3.33
2.67
8.67
17.67
6.67
10.33
8.67
10.33
8.0
16.0
8.67
3.0
3.0
-0.33
6.33
-1.33
6.33
6.0
10.67
-1.33
13.67
5.33
1.0
4.0
1.33
8.67
2.33
2.67
-2.0
18.67
4.33
-1.33
6.33
9.67
1.67
-1.67
8.0
11.33
9.0
19.67
0.33
-1.0
6.0
4.33
4.67
3.0
6.67
3.0
-4.0
10.0
-3.0
1.33
1.0
14.67
2.67
10.33
11.33
-0.33
8.33
0.67
2.33
3.33
3.33
-8.67
10.0
5.33
5.67
10.0
9.33
0.67
3.0
15.33
3.67
9.0
8.67
8.0
10.67
1.33
-0.67
9.0
8.0
-1.33
-0.67
4.67
0.0
8.33
12.33
-2.33
8.33
-6.0
7.0
1.33
1.67
-0.67
4.0
8.33
4.0
3.33
1.33
9.0
8.67
3.0
-4.0
1.67
2.67
10.33
13.33
-2.67
2.67
8.33
1.0
4.0
0.0
1.0
-2.33
-5.67
4.67
-2.0
-3.0
-6.0
1.33
4.0
0.33
0.67
-4.67
-4.0
2.33
10.0
7.33
0.67
-3.67
-2.33
1.67
7.0
0.33
6.33
4.0
5.67
-4.0
6.0
6.67
1.0
-3.67
12.67
1.33
-2.0
5.0
-1.67
3.33
-1.33
-2.0
-5.33
-0.67
1.33
4.0
2.33
2.33
9.0
6.67
6.67
5.67
-0.67
-1.67
0.67
3.67
3.0
-3.67
6.33
13.0
3.0
1.67
5.67
6.0
8.33
4.33
2.33
-1.0
4.0
5.67
3.0
3.33
1.33
3.0
8.67
0.33
1.67
-0.33
6.0
2.33
3.33
-1.0
0.67
4.67
8.0
-3.67
8.0
-3.33
2.0
-1.67
6.67
-1.0
4.0
6.33
-0.33
-0.67
-1.0
0.0
7.33
0.0
-2.33
-5.0
5.67
2.33
-1.33
-1.0
-2.67
2.67
1.33
-4.67
-3.33
-2.67
0.33
-1.67
-1.0
3.67
4.67
3.0
1.33
2.67
-2.0
-0.33