File: EDX Back Ups and Old Files/Spectra copy 3.3.23/Samples/High pH SF 25C 9d/9.75.txt
0.0
86.0
43.67
4.67
107.0
87.67
-19.0
31.0
-28.67
-8.33
-17.0
-6.33
9.33
3.67
3.0
-8.33
0.33
-1.67
1.67
1.67
1.33
1.0
1.0
2.0
0.0
-0.67
-0.67
0.0
-0.33
-0.67
-0.33
-0.33
0.67
-0.67
-0.33
3.67
1.0
-0.67
-0.33
0.0
-0.67
-0.33
-0.33
1.67
2.0
1.33
-1.0
0.67
0.67
1.67
-1.33
-1.0
2.0
-0.67
0.67
1.0
-2.0
-0.67
-0.67
-0.33
-0.67
1.33
4.33
-1.67
0.67
0.33
0.67
0.67
7.0
-3.67
-2.0
2.67
0.67
-1.0
2.67
-1.33
-3.67
3.0
-1.67
1.0
-4.67
-5.33
-5.0
3.33
-5.33
0.33
0.67
5.0
2.0
0.67
6.33
2.67
5.33
6.67
8.67
4.67
7.0
-1.33
3.0
3.33
-3.67
2.33
2.0
2.67
-3.33
7.33
0.33
4.0
-2.67
12.33
2.0
-2.33
-1.67
2.0
3.33
7.67
-3.0
4.67
-3.67
2.67
0.33
-4.0
0.0
6.0
3.33
-4.0
-0.67
1.33
4.67
2.33
1.33
4.67
-0.67
0.67
2.0
6.33
4.67
3.0
6.33
2.67
7.33
4.33
-1.67
5.33
1.33
3.67
2.67
-1.67
-0.67
-3.0
1.33
7.0
-1.67
0.0
0.33
-3.33
2.67
3.0
-3.0
6.67
3.67
-1.67
6.67
6.67
-1.67
3.0
1.0
-4.0
1.33
3.67
2.33
4.33
-1.67
1.0
-2.67
4.0
-2.33
-2.33
9.0
11.0
-4.67
-9.33
6.67
-1.33
-3.67
-1.0
3.0
2.67
0.33
0.33
-0.33
-1.0
0.67
0.67
1.0
6.33
0.33
0.0
5.33
1.67
3.33
-2.67
0.33
-5.67
2.0
3.0
-0.33
-2.0
-1.0
0.67
1.33
2.0
7.0
1.67
9.0
0.67
1.0
-0.67
1.33
-2.67
-0.33
1.0
2.67
2.0
-2.33
7.67
-0.33
-1.67
0.67
3.0
-1.67
2.33
1.33
-1.67
0.67
0.67
-0.33
4.67
0.67
1.33
0.0
-0.67
-2.0
0.33
4.33
-2.67
1.67
2.0
-0.33
-7.0
-2.33
-1.0
4.33
3.67
-0.67
0.33
2.67
4.33
0.67
2.33
-2.33
1.0
-4.0
2.67
-6.67
0.67
-2.0
-4.33
-1.0
-0.67
6.67
4.67
1.0
-1.0
3.33
3.0
-1.33
1.0
-1.33
2.0
4.33
-3.0
0.0
0.67
5.33
0.0
-1.0
0.0
-2.0
-0.33
-0.33
2.33
4.33
-2.33
-1.0
2.0
1.67
-0.33
2.0
-0.33
1.33
2.33
0.67
1.0
-0.67
1.0
3.33
8.67
-2.33
1.0
-1.33
-1.33
0.0
-5.33
0.67
4.67
0.33
-3.0
3.67
-3.0
-5.0
0.0
-1.33
4.67
-1.0
1.33
3.67
0.0
6.67
2.0
2.67
-0.67
1.0
1.33
2.33
0.67
1.67
-2.33
0.33
1.33
-5.67
-4.33
4.33
1.0
1.67
0.33
-4.67
4.33
-2.0
3.67
-1.0
0.0
-0.67
5.0
2.33
2.0
2.33
-3.0
-3.33
-1.0
-0.67
0.67
-8.0
1.33
-7.0
-4.33
-4.33
-4.33
-5.33
-5.0
-2.67
-4.0
-4.67
-2.0
1.33
2.33
7.67
-6.0
-3.33
2.33
1.33
-0.33
0.0
7.67
-3.33
3.67
2.0
8.0
-4.33
-2.0
-3.0
-0.33
2.33
1.0
-0.33
-2.0
1.0
-1.0
3.67
6.33
5.33
13.33
10.0
8.33
23.0
26.67
22.33
33.67
16.0
17.67
24.67
23.67
8.33
9.67
4.67
2.0
3.67
5.33
6.33
4.0
11.67
0.0
5.0
2.0
-6.0
8.33
-2.0
5.33
1.0
4.33
6.0
2.0
-2.67
-1.0
1.67
12.0
6.67
4.0
3.67
0.67
7.0
3.33
-0.33
-1.33
-1.33
1.67
0.0
3.0
1.33
-1.33
6.67
9.67
-0.33
-1.0
0.67
3.0
2.0
5.33
-2.33
2.0
7.0
3.67
-1.0
0.0
3.0
3.67
0.67
3.67
3.67
3.0
-0.67
4.33
-1.67
5.33
3.67
-2.0
8.0
11.0
-0.33
-3.33
0.33
3.0
8.33
1.33
0.0
10.0
0.0
6.67
-5.0
-3.67
0.0
5.0
6.33
11.67
-0.67
2.67
9.67
-3.33
0.67
-5.33
0.0
5.0
-0.33
-0.67
-8.67
5.33
4.67
5.67
2.0
10.0
5.0
20.0
6.67
15.67
11.0
12.33
15.33
27.0
22.33
21.33
27.67
23.33
12.33
16.33
6.33
4.0
8.67
6.33
2.67
0.67
3.33
11.33
5.33
4.67
3.33
11.67
6.67
3.33
0.67
8.33
5.67
9.0
11.0
0.67
5.0
9.33
13.67
10.33
11.33
9.33
2.67
1.67
19.67
4.33
6.67
13.67
4.0
11.33
4.0
3.0
10.67
4.33
9.67
10.33
6.0
5.0
-1.33
13.33
4.0
5.0
13.33
5.67
0.67
9.0
2.0
6.0
9.0
5.67
9.67
11.33
7.0
10.67
0.67
15.67
10.0
6.67
5.33
0.0
-6.0
1.0
24.67
15.33
27.67
7.33
0.0
3.67
16.33
4.0
8.67
5.67
5.67
9.33
10.33
10.33
8.0
5.33
8.0
3.0
9.33
10.0
6.67
10.67
10.0
5.33
17.0
10.33
8.0
6.33
5.0
7.33
6.67
7.33
6.67
5.67
12.33
6.67
25.33
9.33
13.67
13.0
4.67
2.67
16.33
7.33
10.33
5.67
23.67
15.67
12.67
20.0
24.33
14.33
15.67
25.33
12.33
9.33
20.67
20.0
22.33
42.67
51.67
62.33
81.0
80.0
85.33
138.67
170.67
134.0
120.0
113.0
148.0
134.33
101.0
91.33
82.33
44.33
59.67
35.67
34.67
16.0
10.33
13.67
13.0
8.33
9.33
10.33
3.67
19.67
21.0
11.0
17.33
14.33
1.33
9.33
6.67
4.33
5.67
7.67
15.0
7.33
11.33
12.67
3.0
19.33
32.0
15.0
18.33
9.67
18.33
5.0
6.0
2.0
9.33
3.0
11.33
15.67
20.67
7.0
18.67
4.67
8.0
18.33
11.33
7.0
2.0
15.0
8.33
13.0
9.67
-3.33
7.33
4.33
18.0
11.67
7.33
24.0
16.0
6.33
3.33
3.0
5.0
12.33
16.0
5.0
3.67
-1.0
5.67
1.33
9.0
4.67
8.0
4.67
3.0
5.67
4.0
7.67
5.0
9.67
5.33
14.67
15.33
16.67
22.0
6.67
18.67
22.0
18.33
35.0
31.0
31.0
15.0
16.33
22.67
26.33
24.0
17.0
19.0
12.0
18.0
10.33
13.67
6.0
5.0
10.33
1.67
4.67
3.0
4.67
13.0
3.0
1.0
-1.33
3.0
22.33
1.33
17.0
15.0
-7.67
11.33
-0.33
15.33
10.67
5.33
13.0
-1.33
4.67
6.67
2.67
13.67
6.33
5.67
17.33
-3.0
5.0
8.67
11.0
-1.0
-5.33
16.33
-3.33
4.33
12.0
6.67
0.67
-2.33
7.33
1.0
3.0
3.33
8.67
13.33
10.67
-3.0
-2.33
5.33
9.67
8.33
1.67
0.67
-6.67
7.0
2.33
-5.0
7.67
-6.67
1.0
-3.0
-3.67
-1.33
17.0
8.67
8.0
4.0
10.0
-7.0
1.33
2.0
-1.33
8.67
3.33
8.33
0.67
4.33
2.67
10.33
-6.67
-4.67
8.33
-3.0
-3.67
4.67
5.0
0.33
-0.33
7.0
6.33
4.67
-2.0
4.67
1.0
1.67
7.33
-0.67
-4.0
5.0
3.67
-6.67
-3.33
5.0
2.33
16.33
11.67
19.33
-1.0
8.0
4.33
-3.33
3.33
3.0
8.33
0.0
5.33
2.33
8.0
6.67
0.0
0.0
8.67
1.67
10.33
6.33
-9.67
7.67
7.33
1.0
3.0
0.0
7.0
2.67
-2.67
9.67
0.0
-3.0
-2.0
5.33
1.0
-4.67
7.67
0.33
-3.0
9.33
2.0
4.33
-2.33
5.33
0.67
-3.33
2.0
12.33
1.33
8.0
-2.33
-6.0
10.0
-1.33
3.0
0.33
0.67
5.33
1.0
-2.0
1.33
-0.67
-0.33
-2.0
5.67
2.33
1.33
7.0
5.33
7.33
2.0
1.67
6.67
0.67
2.33
0.33
5.67
5.67
8.0
5.33
0.33
4.0
13.0
2.67
8.67
3.0
5.33
-1.67
1.33
3.0
3.0
-5.33
7.0
-6.67
5.33
2.0
1.67
2.33
1.67
2.67
0.0
-4.67
-2.67
-4.0
7.67
1.67
7.0
0.33
2.0
3.67
-2.0
-4.67
6.67
1.0
2.0
3.33
1.67
5.33
-2.0
5.0
-2.67
0.0
0.67
-4.0
1.67
-1.67
-2.33
3.0
0.33
-0.33
1.33
1.33
-0.33
1.33
-0.67
-3.67
2.0
-2.33
0.67
1.0
-0.67
-0.33
5.0
2.67