File: EDX Back Ups and Old Files/Spectra copy 3.3.23/Calibration/.ipynb_checkpoints/LaB6-checkpoint.txt
0.0
6247.0
7730.0
8523.0
8584.0
7492.0
6354.0
4630.0
3384.0
2155.0
1365.0
870.0
527.0
329.0
202.0
119.0
58.0
26.0
18.0
7.0
7.0
3.0
1.0
1.0
3.0
2.0
3.0
1.0
1.0
3.0
1.0
2.0
3.0
1.0
3.0
2.0
5.0
1.0
2.0
6.0
4.0
5.0
2.0
5.0
5.0
2.0
10.0
14.0
9.0
6.0
15.0
14.0
21.0
22.0
25.0
25.0
29.0
25.0
31.0
32.0
41.0
39.0
58.0
54.0
66.0
72.0
75.0
75.0
81.0
87.0
82.0
101.0
99.0
121.0
114.0
114.0
102.0
113.0
126.0
108.0
119.0
109.0
120.0
97.0
123.0
102.0
99.0
116.0
123.0
118.0
110.0
114.0
98.0
127.0
103.0
127.0
108.0
108.0
102.0
122.0
113.0
84.0
104.0
106.0
94.0
124.0
108.0
111.0
112.0
98.0
94.0
113.0
113.0
114.0
91.0
99.0
119.0
105.0
93.0
81.0
88.0
102.0
97.0
105.0
95.0
100.0
92.0
95.0
83.0
74.0
90.0
81.0
98.0
87.0
76.0
72.0
84.0
66.0
67.0
79.0
75.0
62.0
84.0
56.0
72.0
77.0
63.0
66.0
73.0
73.0
83.0
53.0
78.0
71.0
62.0
68.0
56.0
66.0
67.0
70.0
64.0
69.0
54.0
55.0
65.0
74.0
67.0
56.0
53.0
41.0
42.0
50.0
46.0
44.0
43.0
38.0
54.0
46.0
51.0
44.0
57.0
43.0
39.0
40.0
41.0
46.0
41.0
52.0
37.0
34.0
49.0
39.0
44.0
44.0
42.0
39.0
37.0
29.0
32.0
35.0
32.0
46.0
26.0
39.0
42.0
22.0
30.0
34.0
39.0
17.0
30.0
30.0
39.0
34.0
33.0
37.0
29.0
32.0
24.0
18.0
40.0
31.0
31.0
26.0
27.0
22.0
26.0
21.0
21.0
34.0
31.0
24.0
29.0
27.0
29.0
32.0
40.0
35.0
36.0
30.0
39.0
21.0
30.0
28.0
29.0
22.0
37.0
30.0
20.0
29.0
29.0
26.0
32.0
40.0
36.0
32.0
37.0
62.0
82.0
115.0
159.0
175.0
204.0
237.0
186.0
135.0
94.0
48.0
50.0
37.0
28.0
31.0
31.0
21.0
31.0
33.0
39.0
33.0
26.0
33.0
34.0
30.0
40.0
33.0
27.0
37.0
34.0
38.0
37.0
50.0
35.0
37.0
49.0
52.0
49.0
67.0
79.0
115.0
80.0
85.0
60.0
64.0
60.0
49.0
65.0
60.0
65.0
67.0
57.0
57.0
64.0
81.0
66.0
68.0
76.0
60.0
71.0
72.0
71.0
71.0
63.0
72.0
86.0
74.0
75.0
78.0
89.0
83.0
81.0
86.0
89.0
100.0
78.0
82.0
91.0
94.0
99.0
98.0
78.0
109.0
117.0
131.0
105.0
126.0
109.0
124.0
109.0
127.0
125.0
148.0
136.0
159.0
167.0
132.0
168.0
155.0
153.0
172.0
188.0
147.0
181.0
200.0
192.0
199.0
205.0
198.0
245.0
190.0
196.0
205.0
216.0
226.0
213.0
206.0
229.0
204.0
243.0
224.0
255.0
232.0
244.0
216.0
213.0
216.0
246.0
248.0
235.0
205.0
239.0
247.0
278.0
280.0
237.0
266.0
269.0
253.0
277.0
278.0
277.0
282.0
267.0
294.0
303.0
280.0
283.0
307.0
311.0
298.0
282.0
312.0
323.0
326.0
320.0
324.0
304.0
318.0
317.0
302.0
292.0
309.0
329.0
324.0
308.0
304.0
304.0
347.0
364.0
316.0
369.0
313.0
329.0
358.0
329.0
304.0
355.0
342.0
341.0
333.0
322.0
305.0
319.0
341.0
309.0
335.0
351.0
322.0
334.0
339.0
340.0
338.0
353.0
345.0
336.0
337.0
343.0
364.0
410.0
350.0
335.0
339.0
358.0
366.0
335.0
365.0
378.0
350.0
387.0
404.0
403.0
379.0
374.0
394.0
356.0
352.0
352.0
361.0
359.0
337.0
344.0
358.0
314.0
357.0
377.0
357.0
322.0
343.0
375.0
396.0
408.0
357.0
365.0
356.0
360.0
384.0
370.0
335.0
400.0
380.0
338.0
361.0
370.0
359.0
348.0
360.0
326.0
341.0
332.0
383.0
368.0
355.0
360.0
326.0
322.0
362.0
376.0
323.0
364.0
347.0
386.0
324.0
350.0
335.0
375.0
372.0
340.0
312.0
369.0
349.0
348.0
377.0
348.0
363.0
359.0
354.0
341.0
339.0
351.0
318.0
333.0
357.0
316.0
360.0
331.0
315.0
345.0
340.0
321.0
314.0
341.0
307.0
322.0
317.0
311.0
340.0
334.0
351.0
328.0
361.0
364.0
349.0
356.0
377.0
387.0
418.0
455.0
375.0
368.0
363.0
329.0
344.0
322.0
335.0
315.0
301.0
320.0
333.0
325.0
318.0
283.0
279.0
308.0
294.0
266.0
285.0
290.0
277.0
288.0
273.0
333.0
302.0
308.0
339.0
293.0
293.0
275.0
262.0
313.0
233.0
249.0
276.0
262.0
236.0
247.0
222.0
248.0
227.0
234.0
213.0
219.0
246.0
229.0
230.0
233.0
241.0
226.0
243.0
234.0
207.0
200.0
222.0
220.0
205.0
197.0
213.0
204.0
187.0
231.0
205.0
223.0
197.0
214.0
209.0
217.0
202.0
197.0
190.0
196.0
191.0
197.0
222.0
180.0
185.0
165.0
214.0
181.0
186.0
184.0
194.0
190.0
169.0
185.0
166.0
164.0
165.0
178.0
186.0
186.0
172.0
168.0
163.0
163.0
182.0
177.0
157.0
186.0
175.0
187.0
168.0
199.0
200.0
173.0
172.0
186.0
165.0
155.0
158.0
149.0
168.0
139.0
139.0
151.0
136.0
129.0
165.0
126.0
137.0
133.0
130.0
142.0
148.0
144.0
109.0
132.0
144.0
121.0
120.0
112.0
111.0
124.0
121.0
102.0
106.0
106.0
81.0
102.0
94.0
112.0
128.0
110.0
86.0
92.0
89.0
104.0
94.0
81.0
104.0
81.0
86.0
107.0
82.0
100.0
85.0
81.0
100.0
79.0
88.0
71.0
93.0
86.0
90.0
80.0
99.0
72.0
82.0
89.0
72.0
93.0
82.0
89.0
95.0
84.0
66.0
82.0
71.0
83.0
66.0
79.0
63.0
76.0
67.0
71.0
67.0
68.0
72.0
50.0
67.0
65.0
69.0
66.0
82.0
76.0
63.0
65.0
63.0
72.0
55.0
55.0
57.0
60.0
63.0
68.0
58.0
70.0
65.0
52.0
55.0
47.0
59.0
73.0
60.0
74.0
54.0
73.0
80.0
67.0
90.0
84.0
101.0
68.0
82.0
68.0
69.0
70.0
67.0
56.0
84.0
72.0
46.0
77.0
59.0
51.0
44.0
53.0
48.0
42.0
52.0
47.0
39.0
44.0
41.0
45.0
58.0
47.0
41.0
43.0
41.0
48.0
41.0
24.0
40.0
41.0
43.0
35.0
34.0
41.0
35.0
37.0
42.0
30.0
27.0
29.0
28.0
33.0
34.0
42.0
33.0
36.0
32.0
36.0
30.0
41.0
32.0
31.0
37.0
36.0
26.0
37.0
24.0
21.0
27.0
29.0
35.0
24.0
25.0
19.0
36.0
29.0
31.0
31.0
27.0
29.0
33.0
30.0
29.0
27.0
25.0
32.0
19.0
28.0
27.0
31.0
23.0
23.0
23.0
24.0
25.0
19.0
28.0
30.0
22.0
31.0
20.0
25.0
16.0
19.0
22.0
23.0
32.0
27.0
24.0
32.0
25.0
29.0
23.0
31.0
20.0
19.0
28.0
23.0
23.0
22.0
13.0
20.0
28.0
18.0
21.0
14.0
21.0
20.0
14.0
27.0
20.0
30.0
18.0
22.0
25.0
25.0
30.0
24.0
17.0
32.0
21.0
16.0
20.0
27.0
17.0
14.0
17.0
28.0
22.0
19.0
20.0
19.0
18.0
16.0
17.0
21.0
22.0
18.0
15.0
29.0
16.0
16.0
22.0
21.0
25.0
28.0
20.0
19.0
13.0
21.0
23.0
28.0
14.0
9.0
13.0
24.0
15.0
22.0
23.0
13.0
16.0
21.0
15.0
20.0
25.0
9.0
22.0
17.0
24.0
17.0
21.0
21.0
16.0
20.0
16.0
17.0
20.0
23.0
16.0
25.0
30.0
24.0
24.0
8.0
13.0
12.0
21.0
23.0
15.0
12.0
15.0
22.0
15.0
14.0
14.0
12.0
10.0
11.0
16.0
21.0
10.0
18.0
9.0
14.0
22.0
12.0
17.0
16.0
10.0
13.0
14.0
12.0
17.0
14.0
14.0
17.0
16.0
15.0
12.0
12.0
12.0
11.0
14.0
8.0