File: EDX Back Ups and Old Files/Spectra copy 3.3.23/Samples/Low pH SF 25C 4d/10.0.txt
0.0
-31.33
14.33
-107.33
-25.0
-17.0
-68.33
-5.0
10.0
-3.67
-16.67
36.67
1.33
-7.67
-9.0
7.0
-3.33
-1.0
0.67
1.0
1.33
2.67
0.0
1.0
-0.33
0.0
0.0
0.0
-0.33
0.33
0.33
-1.67
0.33
0.0
-1.0
0.0
0.0
-0.33
-1.33
0.0
0.0
0.67
0.67
-0.33
0.67
0.0
0.0
-1.33
0.33
-1.67
-0.67
1.33
-1.0
0.0
0.67
3.33
-1.33
0.0
1.67
0.33
3.0
2.0
4.33
-1.0
-1.33
2.33
0.33
0.67
3.33
0.67
3.67
6.33
2.0
-2.33
-1.67
5.67
-2.67
1.0
-2.33
-3.0
6.0
4.67
6.0
2.33
-4.0
-2.33
-0.67
6.0
8.0
-1.67
8.67
6.67
0.33
0.67
3.33
1.0
5.0
6.33
7.33
-2.67
1.0
7.33
2.33
1.33
-3.0
4.67
3.67
-0.33
3.0
1.33
4.67
5.67
-2.33
9.33
-8.33
13.67
-2.67
1.33
7.33
-2.0
8.67
6.33
2.0
6.0
-1.67
1.0
5.33
-1.0
4.0
5.0
6.33
-4.0
5.67
-1.0
-0.67
-2.67
-0.33
-2.67
-2.33
1.0
1.0
0.67
-2.67
0.33
5.0
3.33
5.67
2.67
0.67
6.33
1.33
-0.67
0.67
3.0
1.0
1.0
6.67
7.33
-5.33
-0.33
3.0
7.33
5.0
0.0
4.0
3.0
-6.0
0.33
-2.33
-1.0
2.33
6.0
3.67
6.33
2.0
5.33
7.67
2.0
1.33
5.33
3.67
2.33
-1.33
7.0
-0.33
2.67
3.33
3.67
1.0
-3.0
-3.0
-7.67
-1.0
1.33
1.33
2.0
6.67
-3.0
1.67
2.67
1.67
0.0
-3.33
0.33
1.67
5.33
6.33
2.0
0.0
1.33
4.67
9.67
-1.33
0.0
-3.67
2.33
1.0
4.33
6.33
1.67
2.0
2.0
2.0
1.33
3.33
-1.33
0.67
4.33
5.0
-3.67
0.33
3.67
-4.0
-0.67
0.0
0.0
0.67
3.33
1.67
1.67
0.33
2.0
-0.67
4.67
3.0
-1.67
-1.67
2.0
2.33
2.67
7.33
1.67
4.33
-1.33
8.67
-0.33
-3.67
5.33
2.33
3.0
-2.0
5.0
2.67
0.67
-0.33
-2.67
5.67
-1.33
4.0
-0.33
-3.0
1.67
-0.33
-2.67
0.67
-0.33
2.0
1.0
-0.33
1.0
3.67
-1.33
-1.0
3.67
-2.0
4.67
-1.0
1.0
0.33
6.0
5.67
-4.0
-2.67
0.0
0.0
0.33
2.33
-2.67
0.67
1.67
1.0
-1.67
1.33
3.67
3.0
-2.33
5.67
4.67
-3.0
2.33
-2.33
-0.67
-2.33
4.33
2.67
3.0
-1.0
-2.0
1.67
2.33
1.0
-1.33
-1.0
1.33
1.33
1.33
3.0
-1.33
4.33
3.33
-3.33
1.67
6.33
-0.33
3.0
-3.0
3.67
-0.67
6.0
-0.33
1.67
1.67
4.67
1.67
-1.0
-5.0
0.0
0.67
7.0
-1.0
-1.67
0.33
3.67
-2.0
-0.67
3.67
-3.0
-1.0
4.67
3.33
-1.67
-2.67
-1.33
1.67
4.67
1.0
-2.33
3.33
8.0
6.0
-2.33
4.0
-4.0
3.33
8.0
6.67
3.0
4.33
0.0
0.0
1.33
-2.33
1.33
1.0
6.0
0.0
3.0
-3.67
-1.0
4.67
-1.0
5.33
1.0
-3.0
3.0
0.67
9.33
1.0
1.67
-1.0
7.0
5.0
11.0
-3.0
0.0
8.0
2.33
1.33
5.67
5.33
0.67
1.67
1.33
-0.33
12.33
9.67
7.67
-0.33
9.67
10.0
3.67
16.33
4.33
9.67
7.67
11.0
2.0
8.67
7.0
-1.33
3.67
10.0
7.0
6.67
8.67
2.33
2.67
12.33
5.67
8.33
4.33
5.33
10.67
7.0
2.67
23.33
6.67
5.0
18.67
1.67
4.67
10.33
5.0
13.33
8.33
-0.67
6.33
8.33
5.67
11.67
11.0
7.0
20.67
14.0
11.67
23.67
37.67
30.33
27.33
26.0
13.33
22.67
8.0
21.0
13.67
27.0
12.0
25.0
12.33
10.67
9.67
12.33
10.0
13.33
18.0
28.67
21.33
30.33
37.0
39.0
40.67
46.0
49.67
40.0
40.0
26.0
31.33
38.33
48.0
42.33
33.0
16.33
29.0
14.67
22.67
24.67
25.33
18.33
33.0
21.33
24.0
27.67
28.67
17.33
25.0
14.33
12.0
20.0
18.33
22.0
20.33
12.0
12.33
13.67
25.33
22.0
14.0
29.67
31.67
19.0
36.67
26.33
36.33
22.67
37.0
32.33
18.0
33.0
15.0
33.0
35.33
43.33
40.0
35.33
36.67
48.67
46.67
45.67
45.33
30.33
22.67
27.67
30.67
10.67
17.0
7.33
13.33
17.33
17.33
19.33
10.67
5.67
16.33
7.0
7.33
23.0
10.67
14.33
16.67
5.0
13.67
10.33
19.33
19.33
11.0
22.67
19.67
23.67
4.67
16.33
8.0
20.67
14.0
17.33
6.0
5.0
18.33
12.0
18.33
37.0
38.0
58.0
87.33
136.33
143.33
177.33
221.33
206.33
220.0
208.0
185.67
185.67
119.0
91.67
58.0
67.67
47.67
39.33
33.33
43.67
41.33
44.67
34.67
28.67
45.67
44.67
41.0
37.67
42.0
60.0
59.0
85.33
77.67
88.0
75.67
79.67
76.33
40.33
56.0
62.33
47.33
21.67
26.33
13.33
18.0
26.67
21.67
4.0
15.33
7.33
11.33
6.33
18.0
9.67
13.0
8.67
10.33
11.33
11.0
16.33
10.0
10.0
9.0
13.0
16.67
18.0
16.0
18.67
11.0
9.0
21.0
24.0
39.67
11.33
14.67
25.0
14.33
21.33
16.67
16.0
18.0
11.33
10.0
30.67
11.0
21.0
28.67
22.33
29.0
21.0
11.33
17.0
15.67
18.33
18.33
46.0
18.67
31.0
22.67
24.0
26.0
22.0
15.33
10.67
17.33
9.67
5.0
3.0
13.0
14.33
13.67
19.67
16.67
16.0
11.67
11.67
15.0
5.33
2.67
15.33
17.0
18.0
9.67
2.33
7.67
13.33
9.0
2.67
-0.33
14.0
12.33
15.67
2.67
6.0
3.67
4.67
25.0
-3.0
11.33
1.0
19.0
5.33
29.0
11.67
17.0
14.67
5.33
2.33
9.67
13.0
16.33
16.33
3.67
12.33
0.67
7.33
9.0
7.67
15.0
-1.0
14.67
1.33
12.0
6.67
13.67
10.0
14.67
0.0
3.33
-3.67
3.0
8.0
9.33
9.0
6.67
1.33
4.0
2.67
11.67
22.0
14.67
13.0
2.67
11.33
3.33
8.67
1.67
17.0
6.67
10.0
-2.33
17.67
9.0
1.33
9.67
11.33
18.0
11.33
2.0
9.33
17.67
12.33
-2.67
4.33
8.0
-6.0
2.0
17.0
14.0
13.33
10.0
18.67
8.33
-1.33
12.67
10.67
9.67
7.67
4.33
6.33
19.33
10.0
1.33
4.33
14.0
6.67
9.67
3.67
9.67
2.33
5.33
4.67
-11.0
19.67
4.67
0.0
2.0
6.33
-3.33
17.0
5.0
7.0
5.33
5.33
0.33
7.67
9.0
0.33
0.33
8.67
9.67
9.33
0.67
-3.33
2.0
-8.67
-5.67
2.0
4.67
2.33
0.33
3.67
5.0
7.33
5.0
3.33
-3.67
7.67
5.0
1.33
-1.67
2.33
1.33
20.33
19.0
6.67
11.0
7.33
11.33
0.0
7.67
10.67
-0.33
0.33
8.0
-3.33
4.67
-0.67
8.33
5.33
12.33
8.33
-5.67
7.67
-4.0
2.33
-2.67
2.67
4.67
-2.67
3.0
2.33
1.67
1.67
5.67
6.67
-1.67
1.33
0.0
1.67
9.0
4.0
3.0
0.33
1.0
-0.33
3.33
-1.67
2.67
-4.0
-7.67
2.0
1.67
-0.33
-3.67
9.0
-3.67
3.0
3.33
12.33
0.67
-1.67
2.0
-3.33
-4.67
-2.67
5.33
5.33
-0.33
-4.33
6.67
0.67
8.33
5.0
0.0
5.33
6.0
5.67
0.33
-1.0
-0.67
2.33
3.33
1.67
1.0
-1.33
0.33
-4.0
0.33
8.0
-2.0
-1.67
0.0
4.67
1.67
-0.67
5.67
3.0
1.0
-0.67
3.67
1.0
12.67
3.33
5.33
0.0
3.33
-5.67
2.33
-1.33
4.0
6.33
3.67
1.33
5.67
0.33
4.67
0.67
6.33
4.0
5.67
-1.0
-0.67
5.67
-4.33
0.0
9.0
1.67
0.67
2.0
7.67
1.33
4.33
1.0
-3.0
-2.0
1.33
-5.67
3.0
-1.33
3.33
0.0
0.0
-0.67
-0.67
8.33
3.33
1.0
5.0
0.33
1.67
-0.33
5.33
3.67
0.0
-1.67
-2.33
2.33
1.67
0.33
1.67
1.33
1.0
-5.0
4.33