File: EDX Back Ups and Old Files/Spectra copy 3.3.23/Samples/Low pH SF 25C 4d/10.75.txt
0.0
66.67
12.33
65.67
52.0
-5.0
24.67
6.0
49.0
-22.67
-3.67
-24.33
23.33
-4.67
8.0
1.0
5.67
-2.0
2.67
0.0
-0.67
0.67
0.0
0.0
0.67
1.0
0.0
0.0
-0.33
-0.67
-0.67
-0.67
-0.67
0.0
0.0
0.0
1.0
0.67
-0.33
0.0
0.0
-0.33
-0.33
0.67
-0.33
-1.0
-1.0
0.67
1.33
-1.67
-0.67
0.33
-1.0
3.0
-1.33
-0.67
0.67
-2.0
1.67
-0.67
-1.0
2.0
-0.67
-4.0
2.67
1.33
0.33
4.67
-2.67
-4.33
3.67
3.33
3.0
2.67
0.33
4.67
-1.67
2.0
3.67
-2.0
1.0
-0.33
8.0
3.33
2.0
0.67
4.33
2.0
9.0
1.33
1.67
-2.33
3.33
0.67
-0.67
6.0
-2.0
2.33
0.33
1.33
-4.0
1.33
3.33
1.33
5.0
0.67
-3.33
2.67
7.0
3.33
0.67
7.67
-1.33
0.33
-4.33
8.67
3.33
4.33
10.33
-1.0
-1.33
6.33
4.0
12.0
0.33
-2.0
11.33
7.0
5.0
3.0
3.33
4.0
10.67
2.0
1.33
3.33
5.67
-2.67
-1.33
0.0
7.0
-1.33
-1.67
1.33
7.0
5.33
1.67
5.67
6.67
4.33
6.33
3.33
-0.33
1.0
-3.0
-1.0
-4.33
7.33
-5.33
4.67
1.0
3.33
1.0
-3.0
5.0
1.0
-4.0
2.33
3.67
1.0
-0.67
0.0
-2.33
-1.67
5.0
-4.67
4.67
3.0
1.33
-1.67
-1.33
4.33
-1.33
6.0
6.67
0.67
-1.67
4.67
-3.0
1.0
4.0
-6.67
1.0
-2.67
3.33
4.0
0.67
0.0
-0.33
-0.33
-4.33
0.0
-2.33
4.33
-0.33
3.33
0.33
0.0
0.0
2.33
3.67
10.67
6.67
-3.0
4.33
-0.67
-1.0
2.33
2.33
0.67
-1.0
-1.0
1.0
0.33
-3.67
-3.33
2.67
0.33
2.0
-3.67
3.33
-1.33
-2.0
0.33
-1.0
3.0
-4.33
1.33
1.67
0.67
-4.67
5.0
-2.67
3.67
4.0
-0.67
1.33
3.0
0.33
3.67
1.33
1.67
0.33
-0.33
-0.33
-3.33
-0.67
4.33
3.33
0.0
3.0
2.0
3.67
-2.33
2.67
-4.67
0.67
-3.33
6.0
-2.33
3.0
-0.33
-1.33
-3.67
1.67
-3.33
2.0
-3.0
0.67
-1.0
-1.33
6.67
1.0
-0.33
2.0
1.67
1.0
10.0
2.33
2.0
5.67
-3.0
2.33
-2.0
4.0
-2.67
2.33
0.33
5.67
2.67
1.0
-2.67
2.33
1.67
2.0
3.67
4.67
3.67
-2.0
7.33
-5.33
3.33
2.67
4.33
1.67
-1.0
-1.0
-4.0
2.67
1.33
-4.0
0.67
0.0
-0.67
3.33
0.33
1.0
2.67
-1.67
1.33
-1.33
1.67
-4.67
4.67
0.0
0.0
-0.33
7.33
3.0
-0.33
1.67
2.67
-2.33
-2.33
-3.0
-1.0
-2.0
4.67
0.0
-1.0
-0.67
0.33
0.67
0.0
-2.67
-1.33
1.0
4.0
3.67
4.33
-0.67
3.33
8.67
2.67
-4.33
5.0
-0.33
0.33
0.0
8.0
0.67
4.0
-5.0
-3.67
8.0
-2.33
1.0
1.33
-5.0
1.0
4.33
-1.33
1.33
-1.0
-1.0
-2.0
5.0
2.33
4.0
4.67
-1.0
-5.67
1.0
2.0
12.0
0.67
5.33
-2.0
2.67
6.0
4.0
4.0
5.0
4.0
10.0
3.0
6.33
5.33
2.67
3.33
2.67
8.67
6.33
6.67
13.33
3.67
4.67
8.67
5.67
10.0
1.67
9.33
3.33
6.67
0.67
15.0
8.0
9.67
13.0
4.67
13.67
11.0
8.0
0.67
7.67
6.33
8.67
4.33
4.67
10.33
2.33
1.33
8.67
15.0
4.67
10.33
9.67
5.0
11.67
10.67
7.67
16.33
8.0
12.33
9.33
15.33
15.33
12.33
12.67
8.67
21.0
14.0
12.67
10.0
22.67
25.67
27.67
25.33
29.33
30.0
35.33
33.67
40.0
42.0
30.67
24.0
27.0
19.0
16.33
23.67
7.67
21.33
14.0
13.33
18.0
14.67
20.33
21.33
9.0
24.0
25.67
25.0
41.67
32.0
28.0
38.0
48.33
69.33
68.0
63.33
68.0
49.33
41.0
33.67
22.67
20.67
14.33
19.33
15.0
19.33
18.0
26.67
16.67
18.33
20.0
21.33
25.0
21.0
28.33
19.0
23.33
20.0
18.33
19.67
42.33
22.0
40.0
39.67
38.67
34.0
27.67
46.33
37.33
47.67
43.0
30.33
37.0
23.0
14.0
28.0
23.33
22.33
21.0
31.33
21.67
32.67
24.67
30.67
20.33
24.33
15.67
17.67
29.67
17.67
18.0
15.33
15.33
21.33
11.33
13.33
14.67
12.67
6.33
18.0
9.33
16.0
14.67
19.33
1.67
5.0
7.67
23.33
7.33
9.33
25.0
9.67
25.67
11.67
8.67
16.33
2.0
9.67
18.0
21.33
12.0
11.0
16.33
36.0
24.33
43.0
66.0
67.0
95.33
103.33
110.33
154.33
167.33
158.33
136.0
136.0
157.67
145.67
114.0
89.67
86.0
78.67
40.67
36.33
24.33
32.67
11.33
29.67
18.67
36.67
38.67
54.67
70.0
57.67
62.0
77.0
93.0
103.33
99.67
73.0
92.67
105.67
101.33
117.33
138.0
108.33
95.33
81.67
104.33
75.33
65.0
46.67
46.67
32.0
24.33
13.33
20.33
17.33
15.0
5.67
28.0
12.67
19.33
16.33
13.0
19.33
20.0
23.0
10.0
39.0
22.67
29.0
32.0
12.67
21.0
36.0
25.0
35.0
36.67
44.33
26.67
36.0
14.33
23.33
13.67
28.0
25.0
22.33
12.0
19.67
12.0
10.0
20.67
14.33
28.0
15.0
10.33
19.0
12.67
18.33
27.33
23.0
28.67
13.0
24.67
20.0
10.0
13.0
17.33
9.67
23.33
17.67
16.0
14.0
17.0
21.33
17.67
1.67
10.67
4.0
17.67
8.67
18.0
11.33
10.67
8.33
14.0
11.0
11.67
10.33
21.67
15.33
7.0
6.67
13.67
17.0
7.33
18.67
6.67
4.0
12.67
5.67
8.0
-8.0
17.33
7.0
5.0
3.33
16.0
-0.33
21.0
5.67
6.33
2.33
9.67
6.0
10.33
0.33
-0.33
5.33
-13.33
-5.67
8.0
0.67
24.0
3.0
3.67
0.33
6.0
6.67
7.67
-1.0
14.67
-1.0
14.33
7.33
6.0
17.0
19.33
7.0
14.67
23.33
-1.0
5.67
-0.33
6.0
5.67
3.0
3.67
4.33
7.33
23.67
16.67
-2.0
5.67
12.0
3.67
4.67
8.0
15.33
15.67
14.33
20.0
4.33
11.0
10.33
12.67
15.33
14.33
14.33
16.0
5.0
16.0
12.0
19.0
25.33
9.0
28.67
9.33
0.67
2.67
5.67
7.67
4.67
4.33
10.33
6.33
18.0
4.33
0.33
10.0
3.67
-1.33
4.67
15.67
11.33
13.33
8.67
-1.0
10.67
-2.33
10.0
7.0
9.33
3.67
11.0
-1.0
-1.0
9.33
16.33
5.33
12.67
20.0
7.33
5.33
14.67
3.67
-1.67
1.67
-0.33
8.0
10.33
-3.67
0.0
-4.33
12.33
3.33
-1.33
10.0
5.33
7.0
-4.67
2.33
2.67
10.0
2.33
-3.67
6.33
-7.67
11.33
9.0
8.67
-4.0
2.33
7.33
-6.0
6.67
10.67
5.67
4.33
4.0
15.67
6.67
4.33
3.33
0.33
-4.67
-1.67
-0.67
4.67
0.0
5.33
11.33
5.67
5.67
-2.67
5.0
6.33
11.67
2.67
10.67
8.67
-3.67
3.33
-1.0
3.67
-6.0
2.0
6.0
0.33
0.0
2.67
3.33
1.33
2.67
0.0
-9.67
5.0
7.67
5.67
4.33
1.0
-4.67
3.0
-3.67
4.33
7.67
-5.67
5.0
0.67
2.33
5.33
2.33
4.33
2.67
7.67
2.67
4.67
3.33
4.0
6.0
3.33
0.0
-3.33
-1.67
5.0
-0.67
5.33
5.33
-2.33
-2.0
7.67
-3.67
-2.0
5.33
11.0
6.0
2.33
1.0
6.67
2.67
11.33
1.67
0.0
-1.0
-3.67
-0.33
6.0
4.67
12.33
5.33
0.0
-0.67
-2.67
6.33
4.67
2.0
2.33
2.67
5.33
8.67
4.33
5.67
0.67
2.33
11.0
0.67
5.0
5.33
2.67
5.67
-4.0
5.0
1.67
1.67
4.0
-0.33
8.33
3.33
2.0
3.0
-2.0
1.33
-0.67
5.0
-1.33
2.33
1.0
0.0
0.33
2.33
5.33
-2.67
4.0
1.0
-6.67
8.67
-2.33
2.33
-2.33
1.0
-2.67
1.67
2.33
3.67
1.33
0.67
6.33
4.0
0.0
4.33