File: EDX Back Ups and Old Files/Spectra copy 3.3.23/Samples/Low pH SF 25C 4d/11.0.txt
0.0
29.67
-27.67
-74.33
18.0
-5.0
-39.33
-37.0
3.0
-43.67
-1.67
-18.33
8.33
-4.67
-8.0
3.0
-1.33
-5.0
-3.33
0.0
0.33
3.67
0.0
0.0
-0.33
0.0
0.0
0.0
0.67
-0.67
0.33
-1.67
0.33
1.0
-1.0
0.0
1.0
-0.33
0.67
0.0
0.0
-0.33
-0.33
-0.33
-0.33
-1.0
0.0
2.67
1.33
-0.67
1.33
-0.67
0.0
-1.0
-1.33
0.33
1.67
1.0
4.67
-3.67
-1.0
3.0
1.33
-1.0
4.67
5.33
3.33
4.67
-1.67
-4.33
1.67
-0.67
-3.0
-2.33
5.33
8.67
-4.67
-2.0
-2.33
3.0
2.0
3.67
0.0
-3.67
1.0
-4.33
1.33
6.0
5.0
-0.67
1.67
-1.33
5.33
1.67
-0.67
7.0
2.0
0.33
9.33
1.33
2.0
-0.67
2.33
2.33
5.0
0.67
2.67
0.67
9.0
-1.67
-2.33
3.67
0.67
-0.67
6.67
2.67
4.33
3.33
-0.67
0.0
7.67
-1.67
-1.0
5.0
-1.67
2.0
1.33
5.0
10.0
6.0
0.33
1.0
5.67
2.0
2.33
1.33
7.67
0.33
3.67
5.0
-4.0
-1.33
-6.67
5.33
-4.0
5.33
5.67
5.67
-1.33
0.33
3.33
3.33
3.67
6.0
-5.0
2.0
-0.33
-2.67
-5.33
2.67
1.0
1.33
6.0
-1.0
4.0
7.0
-5.0
2.33
5.67
7.0
6.33
0.0
7.67
-3.67
-2.0
2.33
2.67
0.0
1.33
3.33
7.67
-4.67
0.67
5.0
1.67
0.67
4.33
4.67
-3.0
3.0
1.0
-5.67
7.0
8.33
0.33
5.0
2.67
3.0
-0.33
4.67
-5.33
1.0
-3.33
8.33
0.67
1.33
-0.67
1.0
1.0
-0.67
0.67
4.67
0.67
-2.0
-2.67
4.33
-5.0
2.33
-0.67
0.67
-4.0
0.0
5.0
4.33
-4.67
-1.33
0.67
1.33
3.0
-1.67
-4.67
-2.33
-2.0
0.33
1.0
1.0
-2.33
3.33
0.67
-1.33
-2.67
1.0
-0.67
0.67
3.0
5.33
0.33
3.0
1.33
-0.33
-0.67
-1.33
4.33
0.67
6.67
2.67
0.33
7.33
2.33
3.0
1.0
1.0
2.67
-0.33
0.67
1.33
3.67
0.67
1.0
0.67
-3.0
2.67
0.67
0.33
5.67
-1.33
7.0
-3.0
1.67
-3.0
4.67
1.67
1.0
4.67
1.0
0.67
-7.0
3.0
3.33
5.0
-0.33
-3.0
3.33
-1.0
4.0
-0.67
2.33
-1.67
-2.33
0.67
3.0
-0.67
-2.67
4.67
4.0
-0.33
-0.33
6.67
4.0
2.33
-0.33
2.33
-0.33
5.33
2.67
3.0
1.0
4.0
0.67
0.33
-1.0
-2.33
-2.0
1.33
2.33
0.33
-1.0
-2.33
-2.67
3.33
2.67
1.67
-0.67
2.67
-3.0
-3.0
3.67
-1.67
5.0
-2.33
2.67
5.67
-5.33
-1.33
-2.0
-1.0
-2.0
5.67
1.0
2.0
0.33
-0.67
0.67
-2.0
2.33
9.67
-5.0
3.0
6.67
-0.67
-1.67
2.33
2.67
-2.33
4.67
0.0
7.67
6.33
4.0
3.0
3.67
2.0
-5.0
2.33
4.0
1.67
4.0
4.33
-5.0
-2.0
3.33
-2.33
2.33
2.0
5.0
1.0
4.0
7.33
3.0
0.67
1.0
9.33
1.0
3.0
2.0
4.67
5.33
-1.0
-2.33
0.0
12.0
4.0
6.0
4.0
6.0
0.0
2.33
8.33
6.67
7.33
2.67
4.67
3.33
3.67
15.33
2.67
4.67
1.67
2.67
8.0
-0.33
12.33
2.33
3.67
4.67
8.0
14.0
26.67
10.0
5.67
3.67
15.0
4.0
2.67
15.67
8.33
6.67
9.33
12.67
6.33
5.33
14.33
9.67
13.0
9.67
15.33
12.67
11.0
12.67
9.67
13.67
14.33
14.0
11.33
9.33
15.33
7.33
11.33
1.67
8.67
9.0
4.0
8.67
13.0
13.67
25.67
19.67
25.33
23.33
23.0
33.33
34.67
31.0
26.0
24.67
23.0
22.0
21.0
11.33
26.67
11.67
18.33
15.0
9.33
9.0
10.67
12.33
22.33
12.0
46.0
25.67
24.0
37.67
53.0
47.0
57.0
51.33
62.33
47.0
53.33
37.0
35.33
20.0
31.67
29.67
8.67
25.33
16.33
17.0
14.33
11.0
15.67
20.67
20.33
24.0
12.33
14.0
24.0
30.33
15.0
25.33
16.0
23.33
23.67
18.33
21.0
39.0
32.67
29.67
41.0
48.67
61.33
48.33
50.67
57.0
52.33
36.0
37.0
29.0
44.0
27.33
20.33
18.0
26.33
24.67
20.67
26.67
27.67
28.33
17.33
9.67
12.67
17.67
12.67
19.0
20.33
10.33
3.33
10.33
14.33
6.67
14.67
9.33
21.0
12.33
7.0
3.67
11.33
14.67
16.0
18.67
13.33
12.33
16.33
12.0
9.67
23.67
14.67
14.67
19.33
8.0
16.67
14.0
24.33
12.0
15.0
31.33
51.0
46.33
60.0
75.0
93.0
109.33
121.33
101.33
128.33
146.33
133.33
120.0
107.0
99.67
88.67
82.0
89.67
65.0
40.67
36.67
31.33
26.33
23.67
10.33
27.67
26.67
29.67
45.67
35.67
64.0
80.67
65.0
86.0
87.0
75.33
77.67
74.0
49.67
57.67
46.33
26.33
39.0
30.33
38.33
31.67
37.33
33.33
31.0
18.67
25.67
21.0
14.33
2.33
13.33
8.33
19.0
15.67
15.0
10.67
11.33
5.33
7.0
24.33
23.0
16.0
11.0
27.0
28.67
18.0
16.0
27.67
33.0
30.0
29.0
37.0
38.67
35.33
40.67
34.0
27.33
42.33
30.67
24.0
36.0
31.33
20.0
19.67
18.0
18.0
16.67
21.33
22.0
23.0
10.33
17.0
22.67
28.33
11.33
25.0
7.67
11.0
9.67
28.0
10.0
4.0
2.33
3.67
19.33
11.67
18.0
5.0
6.0
6.33
13.67
17.67
0.67
13.0
16.67
19.67
19.0
10.33
15.67
14.33
14.0
15.0
20.67
11.33
11.67
5.33
14.0
22.67
18.67
8.0
9.33
19.67
7.67
18.0
14.67
7.67
32.0
16.0
13.33
10.0
9.0
10.33
8.0
2.67
14.0
4.67
10.33
4.33
2.67
6.0
4.33
9.33
15.67
4.33
0.67
6.33
4.0
8.67
13.0
-1.0
-2.33
11.33
5.0
6.67
9.67
3.0
15.67
10.0
4.33
4.33
5.0
4.0
14.33
2.0
2.67
10.33
-6.0
-2.33
6.67
7.0
17.67
5.0
14.67
13.33
-0.67
14.67
4.67
5.0
20.67
4.0
-0.33
11.67
20.0
12.33
26.67
15.33
18.0
5.33
9.0
15.33
15.67
16.33
7.33
0.33
20.0
-2.0
2.0
14.0
16.0
26.33
12.0
9.67
14.33
5.67
9.67
11.67
-1.33
6.67
12.33
4.33
0.33
4.0
4.33
13.33
19.0
8.67
11.67
9.67
9.67
20.33
14.33
1.67
4.0
12.67
11.67
12.0
9.0
14.33
16.67
2.0
12.0
2.0
5.33
9.33
5.33
-6.33
6.0
2.33
-7.67
8.67
-1.33
-3.67
-0.33
-8.33
11.0
11.33
-5.67
7.0
0.67
-2.67
2.33
-0.33
12.0
9.33
0.0
8.33
-2.67
-2.33
4.0
-2.67
1.33
2.33
-0.67
3.33
1.0
0.67
7.0
4.33
3.33
3.0
12.67
5.67
-2.33
11.33
1.0
7.67
1.67
12.33
10.33
-1.67
3.33
0.33
-4.67
13.67
0.0
18.33
6.33
-5.33
5.67
5.33
1.0
1.33
9.67
3.67
2.67
-3.33
-0.67
-3.67
11.0
-2.33
1.0
3.0
7.0
5.33
-8.0
3.67
5.33
-0.67
1.67
6.0
-1.67
1.0
6.67
1.67
0.33
-4.0
-0.67
2.0
-2.67
6.33
4.67
-5.67
3.0
2.67
2.33
1.33
8.33
3.33
-3.33
-1.33
7.67
12.67
2.33
2.0
-4.0
-1.67
7.0
-5.33
-1.67
0.0
6.33
-0.67
3.33
-5.33
-3.0
10.67
7.33
10.0
2.33
9.0
2.0
3.33
-1.0
7.67
6.67
8.33
-5.33
2.0
3.0
8.33
-0.33
-2.0
13.67
4.33
0.33
2.0
-3.67
1.33
2.33
1.67
-1.0
6.33
3.67
3.33
5.67
-1.67
0.67
0.67
-3.67
-3.0
-0.33
-1.0
4.33
3.67
0.67
-3.0
2.0
1.67
8.67
0.0
6.67
-5.67
12.33
3.0
4.0
-2.0
-2.67
-0.67
2.0
-3.33
8.33
4.0
2.0
-0.67
6.33
2.33
3.33
3.0
6.0
-1.67
2.67
1.67
-3.67
4.67
-1.0
1.33
1.67
-0.67
-0.33
-1.67
-4.33
3.33
3.0
3.0
-1.67