File: EDX Back Ups and Old Files/Spectra copy 3.3.23/Samples/Low pH SF 25C 4d/12.25.txt
0.0
12.67
21.33
-89.33
-3.0
4.0
-12.33
-5.0
38.0
55.33
22.33
-35.33
27.33
-1.67
-4.0
-1.0
3.67
-3.0
-1.33
0.0
-0.67
-0.33
2.0
1.0
-0.33
0.0
0.0
0.0
-0.33
-0.67
-0.67
-0.67
-0.67
0.0
-1.0
1.0
0.0
0.67
-1.33
0.0
1.0
0.67
-0.33
0.67
-0.33
0.0
-1.0
-1.33
0.33
-0.67
-0.67
1.33
-1.0
0.0
-2.33
0.33
2.67
-3.0
2.67
-1.67
2.0
1.0
-1.67
-1.0
6.67
2.33
0.33
4.67
0.33
-2.33
7.67
4.33
-3.0
-0.33
6.33
0.67
-8.67
3.0
-2.33
-6.0
0.0
-2.33
6.0
-4.67
-7.0
-3.33
6.33
-1.0
2.0
-3.67
3.67
-2.33
-4.67
7.67
-2.67
2.0
-3.0
2.33
4.33
2.33
3.0
-0.67
2.33
-0.67
-1.0
-5.33
-5.33
-2.33
3.0
-0.67
-1.33
-0.33
-5.33
-0.67
-2.33
3.67
-2.67
1.33
1.33
-5.0
2.67
3.33
-4.0
-3.0
-4.67
-1.0
7.33
6.0
7.0
2.0
2.33
4.0
-0.33
-2.0
-2.67
-1.67
-2.33
-4.67
3.67
1.0
-4.0
-1.33
4.33
-5.67
-4.0
5.33
4.67
1.67
1.67
-0.67
-5.67
-1.67
5.67
0.0
-7.0
5.0
-1.33
-2.67
-4.33
-1.33
-1.0
-2.67
4.0
-6.0
-2.0
-2.0
-8.0
-1.67
1.67
1.0
-2.67
0.0
-2.33
-0.67
-4.0
-1.67
-1.33
-4.0
2.33
6.33
-2.33
-2.67
-0.33
-2.0
0.67
2.67
1.33
4.67
-3.0
-1.0
-1.0
-5.67
-2.0
-1.67
2.33
-1.0
1.67
-3.0
-2.33
-3.33
-5.33
-7.0
-3.33
9.33
-3.33
4.33
4.33
1.0
-2.0
-0.67
4.67
8.67
3.67
0.0
-1.67
-0.67
-2.0
4.33
4.33
4.67
-4.0
2.0
2.0
1.33
2.33
-2.33
0.67
0.33
1.0
-6.67
3.33
-0.33
0.0
1.33
1.0
-5.0
1.67
3.33
3.67
-2.33
0.33
1.0
0.33
0.67
1.0
3.33
-0.67
2.0
-0.67
-1.33
-1.67
-6.33
0.33
3.67
-0.33
0.67
2.33
4.33
0.33
-3.0
-2.0
-2.0
-0.33
-1.33
4.67
1.33
-0.33
-0.33
8.0
2.67
-1.0
-0.33
-6.33
-2.67
1.67
0.67
3.0
2.0
-1.33
-1.0
2.67
-0.33
1.0
1.67
-1.0
1.67
-6.0
2.0
-1.67
1.0
0.67
1.0
0.33
-4.0
-1.0
-0.67
1.33
-0.67
0.67
-2.33
-2.0
1.33
-4.67
-2.33
3.0
-2.33
-1.33
0.67
-5.0
2.33
-0.33
3.33
-2.33
0.33
-2.33
-1.0
0.0
3.0
5.67
2.33
-1.0
0.67
-2.0
-0.67
-0.67
1.33
0.0
0.67
-0.67
-0.67
-2.33
-1.33
-4.67
2.67
4.0
0.0
0.67
-1.67
3.0
-1.33
-0.33
4.67
-4.33
-2.33
1.0
1.0
4.0
-3.33
-3.0
1.0
-0.67
-4.67
-0.33
-1.0
2.33
-1.33
-1.0
-2.0
1.67
-1.67
-3.67
0.33
2.67
0.67
0.67
0.0
-3.33
2.33
1.0
-2.0
-0.33
0.0
-3.0
-1.67
0.0
-3.33
-2.0
-3.67
-6.0
-3.0
4.33
-4.33
0.33
0.0
2.0
-3.0
-4.0
3.33
0.0
-1.33
0.0
-4.67
8.0
0.0
7.0
-4.33
8.33
-4.0
-1.33
0.0
-2.0
-6.0
-2.0
-2.0
-1.0
-2.0
4.33
-0.67
-0.33
3.33
-1.33
1.67
-1.67
0.67
3.33
1.67
0.67
-0.33
-4.33
10.0
-0.33
-0.67
1.33
-7.33
-5.33
3.0
-2.0
4.67
-3.0
-5.33
-4.33
9.0
3.0
-5.33
-1.33
-0.67
-2.33
4.33
0.67
1.33
-6.67
-5.67
-6.33
-1.0
-2.33
-2.67
2.67
-5.0
1.67
-1.33
-1.33
5.33
-2.0
-1.67
-5.67
-1.67
-3.67
-0.67
-2.33
-1.33
-3.0
-7.0
-3.33
-7.0
-4.33
1.67
2.67
6.33
4.33
-8.0
5.33
0.67
-2.0
-2.0
1.67
1.0
1.0
4.0
5.33
5.67
0.67
1.33
2.0
1.33
1.0
-0.33
-3.67
4.33
-3.0
-1.0
-7.33
-4.0
4.67
-2.0
1.0
-1.0
-2.67
2.33
1.0
0.33
-2.0
0.33
-1.0
-1.33
-6.33
1.67
-1.67
5.33
0.0
0.33
2.0
-0.33
-3.33
-1.67
2.0
-1.67
0.0
2.0
1.33
-2.0
1.33
0.0
-2.67
-7.33
0.33
3.0
0.0
5.67
6.67
-7.0
1.67
5.33
1.33
-1.33
-5.0
-4.67
2.0
4.0
-6.0
1.0
4.33
0.33
-3.0
1.33
5.67
0.67
-0.33
7.67
2.33
4.33
1.67
0.67
-1.33
4.67
-2.0
-2.67
-1.67
3.33
5.33
0.33
2.67
2.67
4.33
0.0
-1.67
6.0
-2.33
-0.67
-5.33
-6.0
3.67
5.33
7.33
-6.67
-2.0
-8.33
-1.33
-2.33
-6.33
-1.67
3.0
0.67
5.0
3.33
-3.0
5.0
1.33
4.0
-2.67
-4.0
0.0
-6.0
-4.67
14.33
3.33
-0.67
3.33
0.33
4.0
-2.0
1.67
0.67
-2.0
1.67
0.0
3.67
-3.33
-2.67
-3.67
-1.33
4.33
-2.33
-4.33
1.67
0.67
-4.33
2.0
0.67
-1.0
4.0
-5.0
3.33
-0.33
-4.0
-2.33
3.67
0.33
-9.67
0.0
-5.67
1.33
-0.33
-4.67
0.33
3.0
-4.33
2.67
4.0
-3.67
0.33
-10.67
1.33
-2.0
-8.33
-3.0
-6.33
8.33
-2.67
-3.0
4.33
-6.0
-1.0
4.0
4.0
-0.33
-13.0
6.0
2.67
1.0
0.0
-1.0
1.0
3.67
6.33
-5.33
3.0
-11.67
0.33
-4.33
-5.0
5.0
2.33
2.0
6.67
8.0
-4.0
-0.33
3.33
-5.0
-2.0
-4.67
-2.0
-2.33
-9.67
11.33
15.0
0.67
-8.0
-0.33
4.0
-6.0
-1.0
-5.67
-5.33
-0.67
0.67
0.0
5.0
-5.0
-5.67
2.67
-8.33
-0.33
-5.0
-7.33
-2.33
0.0
2.33
-0.33
-1.67
1.0
-1.0
-5.33
-2.67
-5.33
4.33
1.0
-6.33
-5.33
1.0
4.33
0.67
-8.33
0.0
-4.33
-11.33
5.0
-9.0
1.33
-1.0
7.0
0.33
3.0
0.67
7.0
-12.33
0.33
-2.67
-1.33
9.0
-5.67
4.33
-10.33
-0.67
-2.33
-5.67
6.0
0.67
5.0
-4.0
-9.33
4.33
8.0
-0.33
4.67
10.0
6.67
2.0
4.33
-2.67
-1.0
8.0
9.33
-9.0
6.67
16.33
4.0
-11.33
6.67
-7.0
1.67
-9.0
0.67
8.33
-3.67
5.67
-9.33
-2.0
1.67
1.0
-3.33
-7.33
4.0
6.33
-1.33
2.33
6.0
-0.67
9.0
-4.67
1.67
0.33
0.33
-0.67
7.0
1.0
3.0
-1.0
2.0
3.33
-2.0
4.67
-0.67
-5.33
-2.33
1.67
-6.33
6.67
-1.67
10.33
7.33
3.0
3.33
5.33
17.0
-4.33
3.67
-6.33
8.67
2.33
0.33
4.67
-4.0
3.67
-7.33
-8.0
-2.0
7.33
-6.33
8.0
2.0
5.0
4.33
6.33
-0.67
-7.33
-1.0
0.33
-4.67
0.67
1.67
-3.67
4.67
6.67
-4.0
-5.67
-2.67
-2.0
1.67
5.33
-0.67
3.67
9.0
-0.67
3.0
-4.67
-0.67
4.67
4.0
2.33
2.33
0.33
-5.67
-1.67
4.0
-3.33
3.0
2.33
1.33
-2.0
4.67
7.67
-0.33
-1.67
1.0
-1.33
5.67
-3.67
1.33
2.33
-2.67
0.33
-0.67
0.67
-4.0
3.33
1.33
-4.33
-1.33
-2.67
6.0
0.33
-2.33
2.67
-2.33
-5.33
-6.67
5.33
-2.0
8.67
-4.0
2.0
8.0
0.33
-4.0
-2.33
2.33
0.33
-0.33
-5.0
-9.67
0.0
-3.33
-0.33
-6.67
3.0
-6.67
1.0
-1.67
5.33
-5.33
-12.67
0.0
-3.33
1.33
-0.67
-10.67
1.33
5.67
-0.33
-3.33
4.67
-5.67
0.0
-2.0
1.33
0.0
-6.33
1.33
1.0
5.33
-2.67
-0.67
-6.33
0.0
7.67
-3.67
-4.0
-2.67
-5.0
0.0
0.33
-6.0
-0.33
4.67
-1.67
-0.33
-2.0
-2.0
-1.67
-4.33
2.0
2.67
4.33
2.33
-3.0
-1.67
-3.67
-2.67
0.67
-2.0
-0.67
4.67
2.33
-3.33
0.33
0.67
-0.33
-2.67
-2.0
-3.33
5.0
7.33
-5.33
2.67
1.0
6.0
-2.33
2.67
-4.0
-3.33
-0.67
-2.67
6.0
-2.0
-3.0
-3.67
-2.67
2.0
2.67
0.33
-3.0
-1.0
-4.67
-2.67
6.33
2.33
-3.0
0.0
-7.67
2.67
-1.33
0.33
3.67
-3.0
1.33
2.67
-4.67
1.67
-7.67
-2.33
5.33
-1.0
-5.0
1.33