File: EDX Back Ups and Old Files/Spectra copy 3.3.23/Samples/Low pH SF 25C 4d/6.5.txt
0.0
11.67
12.33
-12.33
49.0
-90.0
-110.33
-53.0
-49.0
-8.67
-25.67
3.67
14.33
0.33
-10.0
5.0
-1.33
-2.0
-0.33
0.0
2.33
-0.33
0.0
1.0
0.67
0.0
0.0
0.0
-0.33
-0.67
-0.67
-1.67
-0.67
0.0
-1.0
0.0
2.0
0.67
-1.33
0.0
0.0
-0.33
-0.33
0.67
0.67
-1.0
-1.0
0.67
1.33
-0.67
2.33
3.33
2.0
0.0
0.67
0.33
1.67
-1.0
0.67
-0.67
1.0
1.0
10.33
-1.0
4.67
1.33
1.33
1.67
-2.67
0.67
11.67
-1.67
4.0
0.67
2.33
3.67
4.33
4.0
0.67
-3.0
3.0
0.67
0.0
5.33
1.0
8.67
8.33
1.0
7.0
1.33
7.67
8.67
5.33
5.67
4.33
10.0
-4.0
13.33
12.33
-4.67
2.0
3.33
3.33
2.33
5.0
2.67
5.67
-0.33
6.0
1.33
2.67
12.67
3.67
5.33
-0.33
5.67
1.33
5.33
0.33
3.0
7.67
-0.67
-4.0
2.0
3.33
2.0
11.33
-3.0
0.0
5.0
11.33
4.0
7.67
3.0
0.33
3.33
2.67
1.33
1.67
4.0
-1.0
-1.33
0.33
-3.67
-4.0
2.33
7.67
10.67
9.67
0.33
2.33
0.33
1.67
6.0
4.0
6.0
6.67
7.33
1.67
3.67
3.0
-1.67
0.0
2.0
7.0
5.0
-1.0
10.33
-0.33
7.0
4.33
6.0
1.67
4.33
3.0
9.33
6.67
-4.0
4.33
7.33
-2.33
-0.67
4.67
4.0
4.67
1.67
5.33
3.67
5.0
2.0
0.0
-6.67
3.0
4.33
3.33
-2.0
7.67
-1.0
2.67
8.67
1.67
1.0
2.67
-1.67
0.67
1.33
-1.67
1.0
6.0
2.33
1.67
6.67
5.67
-1.0
7.33
5.33
-1.0
3.33
1.33
1.67
2.0
1.0
2.0
5.33
3.33
-0.33
0.67
-1.67
3.0
-1.67
-4.67
1.67
-1.0
3.33
9.0
0.0
-0.33
3.33
3.67
0.67
1.33
0.0
2.33
2.67
2.0
4.33
1.33
-2.0
0.33
-1.33
-1.67
-1.33
6.33
2.67
1.67
1.67
2.33
4.33
2.33
-2.0
5.0
1.0
2.67
2.67
-1.33
-3.67
4.67
3.67
6.0
0.67
-3.0
3.67
-3.33
4.33
0.67
-0.33
3.0
1.0
6.67
0.0
3.67
1.67
4.0
0.67
3.0
-0.33
0.0
1.0
8.33
5.0
3.67
1.0
1.33
4.0
-2.0
5.33
3.33
-3.67
-1.33
0.67
-2.0
8.33
0.33
5.67
0.0
1.67
4.67
1.67
0.0
1.33
-5.33
0.33
-2.33
0.33
-1.33
2.0
2.0
4.0
2.67
1.33
-2.0
1.67
1.0
6.33
4.33
0.33
4.0
1.67
4.33
1.33
0.67
0.67
0.33
-0.33
5.0
-1.0
1.67
5.33
4.0
0.67
3.67
4.67
-1.33
0.67
-3.0
-1.0
3.0
-1.33
1.0
-1.0
0.33
-1.67
0.67
-3.0
5.33
6.67
-1.0
3.0
4.67
2.33
-2.67
0.33
-2.33
1.67
-0.33
4.0
-1.33
1.33
6.0
-1.0
1.67
2.0
0.0
-4.67
4.0
-0.33
6.0
4.33
-2.0
-3.0
2.33
0.67
-2.67
3.0
-1.0
0.0
-1.0
7.33
-1.0
2.67
2.0
0.33
-2.0
3.0
2.0
7.67
3.33
1.0
-5.33
1.0
9.0
-3.0
0.0
4.0
2.0
1.0
2.33
9.33
0.67
5.33
0.67
-0.33
-0.67
-1.33
7.33
3.67
1.67
0.67
5.67
8.0
1.67
6.33
3.33
8.67
0.67
2.0
10.0
4.67
-3.0
0.67
0.67
13.0
8.0
1.67
2.67
7.33
9.67
2.33
2.67
8.33
0.33
6.33
6.67
0.0
4.67
5.33
4.67
5.0
12.67
6.67
7.67
7.33
2.0
7.33
6.33
3.33
1.33
10.33
3.67
0.67
6.0
0.0
0.67
8.0
11.67
8.67
9.67
17.33
14.33
21.0
19.33
16.67
21.0
17.0
16.67
13.0
8.0
20.0
15.33
9.67
7.67
5.33
13.0
11.33
15.0
11.67
10.33
13.33
13.0
12.0
16.67
10.0
19.67
33.0
31.0
27.0
12.33
21.33
14.0
15.33
18.0
12.33
13.0
22.67
23.67
22.67
34.33
23.33
21.0
24.33
11.0
16.67
8.67
7.33
12.0
20.33
20.0
28.0
23.33
24.0
35.33
16.0
24.33
32.67
27.33
28.0
32.0
39.67
29.67
27.0
19.67
38.33
33.33
29.67
20.0
20.33
14.0
12.0
16.0
16.0
16.33
18.33
22.0
29.33
16.67
23.67
16.67
24.67
25.33
19.33
5.67
19.67
9.67
10.67
7.0
5.33
8.33
13.33
12.33
13.33
8.67
12.67
11.33
1.0
14.33
9.0
12.67
7.33
0.67
16.0
17.67
18.33
23.33
22.33
15.0
23.67
28.67
22.67
11.67
12.33
14.0
16.67
23.0
11.33
2.0
18.0
15.33
11.0
29.33
21.0
43.0
59.0
86.33
102.33
116.33
122.33
127.33
115.33
133.0
87.0
95.67
106.67
62.0
56.67
53.0
70.67
57.67
39.33
46.33
39.67
33.33
35.67
26.67
20.67
27.67
35.67
44.0
29.67
61.0
47.0
56.0
60.33
43.67
58.0
41.67
36.67
42.33
36.33
16.0
17.33
43.33
19.67
21.33
13.33
11.0
11.67
15.67
11.0
9.33
8.33
10.33
7.33
19.0
13.67
3.0
0.67
12.33
-0.67
5.0
15.33
15.0
8.0
6.0
7.0
2.67
13.0
16.0
14.67
20.0
17.0
17.0
17.0
22.67
19.33
15.67
29.0
19.33
36.33
19.67
15.0
32.0
27.33
22.0
14.67
21.0
24.0
29.67
31.33
20.0
12.0
25.33
27.0
9.67
22.33
25.33
23.0
19.67
16.0
20.67
13.0
29.0
10.0
0.33
8.67
9.33
8.67
14.0
2.0
12.0
2.33
12.67
12.67
6.67
9.0
7.67
8.67
10.0
10.33
13.67
8.33
11.0
19.0
2.67
3.33
15.67
8.33
13.0
2.67
9.67
0.0
17.33
10.67
0.67
6.0
10.67
14.67
4.0
1.0
17.33
15.0
19.0
14.33
20.0
17.67
24.0
-3.33
0.33
9.33
14.67
10.0
4.33
19.33
-7.33
-2.67
-5.33
12.33
10.0
-3.33
11.0
4.0
22.67
1.33
18.0
15.67
9.67
8.0
17.67
12.0
16.33
13.33
8.0
10.0
5.33
8.0
9.67
14.33
-7.0
2.67
12.67
9.0
12.67
8.0
8.67
19.33
21.33
11.67
22.67
15.0
12.67
20.0
-2.33
10.67
9.0
16.33
20.67
26.33
10.0
19.33
20.0
6.33
5.67
11.33
16.33
17.33
20.0
-3.0
20.0
12.0
13.0
13.33
8.0
11.67
-8.67
0.67
-0.33
12.67
4.67
5.67
8.33
11.33
3.33
14.0
7.33
4.33
18.0
3.67
8.67
4.67
23.67
5.33
13.33
7.67
6.0
11.67
6.67
9.0
10.0
0.33
5.67
5.0
6.0
17.0
5.33
8.33
4.33
-3.33
5.0
1.33
-1.67
-0.33
1.67
2.33
11.67
7.67
-3.0
7.33
0.33
1.0
11.67
8.33
4.33
8.67
8.0
2.33
-2.0
4.33
2.33
-0.33
2.0
5.33
10.33
4.33
3.33
7.33
14.0
-0.33
6.0
10.33
1.33
7.0
10.67
11.67
10.67
1.33
2.0
11.67
13.67
-2.67
3.33
8.33
-7.67
7.33
8.33
4.67
-6.0
2.33
4.33
3.67
0.67
6.33
5.0
-1.67
12.67
13.67
9.67
-1.33
-2.67
1.33
5.0
2.67
8.0
6.0
3.0
1.33
3.0
4.67
3.33
2.33
10.67
5.0
-4.67
9.0
8.67
11.67
2.33
6.0
-0.67
8.0
-3.67
9.33
5.67
1.33
9.0
2.67
-4.67
2.33
11.33
6.33
-3.33
-2.33
3.67
2.67
3.33
4.0
0.0
-0.67
6.0
0.67
9.33
-2.0
-0.67
6.33
4.33
-0.33
9.0
7.67
-4.67
4.0
4.33
3.0
12.0
-0.67
2.0
2.67
-0.33
0.33
7.67
0.0
1.0
1.33
-0.33
5.0
5.67
0.33
4.33
2.0
-1.67
-1.67
-3.67
3.67
3.0
1.33
6.67
2.33
-1.33
-2.67
4.67
5.67
1.33
1.0
2.67
3.0
7.33
4.67
-1.33
2.0
5.0
2.67
7.67
-3.0
-1.33
7.33
5.33
11.0
2.0
3.0
0.33
-0.67
3.0
1.67
2.33
-2.0
5.0
0.33
5.33
11.33
2.33
2.0
2.0
-1.67
3.67
9.67
0.33
0.67
-2.0
-1.67
1.67
3.33
8.67
4.33
2.67
3.33
3.0
-2.0
3.33