File: EDX Back Ups and Old Files/Spectra copy 3.3.23/Samples/Low pH SF 25C 4d/7.25.txt
0.0
27.67
-32.67
-11.33
-67.0
-89.0
-54.33
-38.0
-11.0
-13.67
32.33
-17.33
1.33
-13.67
-6.0
5.0
0.67
-1.0
-1.33
0.0
2.33
-0.33
0.0
2.0
-0.33
0.0
0.0
1.0
0.67
-0.67
-0.67
0.33
0.33
1.0
-1.0
3.0
0.0
-0.33
-1.33
0.0
1.0
-0.33
1.67
-0.33
-0.33
-1.0
0.0
-0.33
0.33
-0.67
-0.67
1.33
-1.0
0.0
-0.33
-0.67
4.67
-3.0
2.67
-1.67
1.0
2.0
2.33
-2.0
3.67
1.33
-2.67
6.67
5.33
2.67
4.67
0.33
4.0
4.67
3.33
4.67
-2.67
4.0
2.67
1.0
4.0
1.67
2.0
2.33
-2.0
2.67
12.33
7.0
-1.0
0.33
1.67
4.67
1.33
4.67
-0.67
4.0
1.0
4.33
2.33
-1.67
-1.0
4.33
7.33
1.33
-1.0
-2.33
-2.33
0.67
7.0
-0.67
4.67
3.67
1.67
4.33
8.67
-2.33
-0.67
-0.67
4.33
2.0
7.67
-2.67
-3.0
2.0
-1.67
2.0
0.33
3.0
9.0
1.0
7.33
10.0
9.67
3.0
-0.67
8.33
2.67
-0.67
-0.33
1.0
-3.0
5.67
4.33
1.33
-3.0
4.33
6.67
0.67
7.67
2.33
6.33
3.33
2.67
3.0
1.0
10.0
-1.33
-2.67
-1.33
-1.33
6.0
-0.67
3.0
1.0
9.0
-1.0
-6.0
4.33
-1.33
5.0
-0.67
1.0
4.67
1.33
-4.0
2.33
6.67
-1.0
2.33
1.33
-1.33
1.33
3.67
3.0
1.67
6.67
0.33
7.67
3.0
1.0
3.0
-3.67
-1.0
2.33
0.33
-1.0
-0.33
3.0
-0.33
6.67
1.67
-4.0
-4.33
-0.67
-4.33
1.33
0.33
2.0
1.0
4.33
3.67
9.67
-1.33
0.0
1.33
3.33
-2.0
6.33
0.33
-1.33
-5.0
0.0
4.0
3.33
-1.67
1.67
2.67
5.33
8.0
-2.67
-3.67
-3.33
-1.0
0.33
-1.0
9.0
-3.33
6.33
3.67
6.67
0.33
9.0
1.33
0.67
5.0
1.33
6.33
4.0
4.33
-2.33
0.33
-0.33
1.33
-1.33
1.67
-4.33
0.33
6.33
4.33
1.0
6.0
1.0
6.67
-1.33
0.67
0.33
4.67
-0.33
4.0
3.67
3.0
3.67
-3.33
2.33
-0.33
0.67
6.0
3.0
4.67
0.0
2.67
-0.33
0.0
0.67
2.0
-1.33
-5.0
7.0
-0.67
0.0
1.67
-4.0
-1.67
3.0
1.0
-0.67
1.33
0.33
2.67
-0.33
0.0
-1.67
-1.67
-0.33
4.0
0.67
4.67
1.67
-2.0
1.33
-2.33
3.33
0.67
2.33
-1.33
5.0
0.0
3.0
3.67
-1.67
-5.0
-0.33
-1.0
3.33
0.33
2.33
1.0
-1.33
1.33
4.33
2.67
6.67
0.33
-3.33
-2.0
-2.0
1.67
1.33
2.0
1.67
0.67
4.67
0.67
0.67
3.0
-1.0
7.0
0.67
-1.0
-2.0
1.33
3.33
2.67
-1.0
6.33
1.67
-2.0
4.0
-2.33
-0.67
-4.67
1.33
1.67
-1.33
-0.33
-5.0
0.67
4.33
8.0
0.0
4.67
10.0
-7.0
-0.67
8.0
-2.33
-1.0
1.33
-1.0
3.0
3.33
5.67
5.33
4.0
-3.0
-6.0
2.0
1.33
-2.0
6.67
-2.0
-0.67
2.0
-1.0
10.0
1.67
6.33
-4.0
2.67
3.0
9.0
-1.0
-3.0
-3.0
7.0
2.0
-2.67
5.33
10.67
5.33
-0.33
3.67
-0.67
-1.33
1.33
7.67
3.67
0.67
0.67
0.0
0.67
1.33
4.33
7.67
1.67
7.0
4.0
7.67
8.0
8.67
4.67
5.0
7.0
10.67
9.67
7.33
4.67
7.33
5.67
17.33
-1.67
1.33
3.67
3.0
5.67
2.33
6.67
3.0
4.67
11.67
9.67
7.33
3.0
5.33
1.33
-0.67
5.33
11.33
0.67
11.67
9.0
11.0
11.67
2.0
10.67
26.67
26.67
40.33
49.33
43.0
47.33
37.67
38.0
40.0
13.67
34.0
16.0
24.0
13.33
18.67
10.67
6.33
11.0
11.33
14.0
11.67
11.33
13.33
2.0
14.0
7.67
11.0
14.67
20.0
12.0
31.0
15.33
25.33
16.0
9.33
11.0
9.33
7.0
12.67
14.67
12.67
17.33
8.33
7.0
16.33
11.0
17.67
8.67
25.33
16.0
33.33
15.0
17.0
13.33
18.0
13.33
10.0
14.33
7.67
20.33
19.0
19.0
24.67
29.67
32.0
25.67
29.33
36.33
40.67
29.0
19.33
22.0
12.0
20.0
26.0
14.33
15.33
15.0
11.33
15.67
21.67
18.67
20.67
16.33
15.33
9.67
11.67
19.67
9.67
10.0
12.33
12.33
10.33
8.33
17.33
9.67
3.67
4.33
11.0
6.33
9.0
10.67
11.33
5.67
3.0
12.67
13.33
6.33
18.33
15.0
19.67
14.67
11.67
15.67
9.33
15.0
15.67
14.0
12.33
12.0
11.0
16.33
19.0
7.33
14.0
32.0
27.0
35.33
73.33
56.33
86.33
112.33
119.33
127.0
142.0
174.67
167.67
164.0
150.67
120.0
97.67
76.67
47.33
39.33
30.67
16.33
19.67
15.67
14.67
31.67
17.67
23.0
24.67
28.0
37.0
28.0
34.33
31.67
30.0
43.67
18.67
45.33
29.33
32.0
21.33
24.33
25.67
11.33
10.33
16.0
6.67
25.67
18.0
18.33
11.33
2.33
12.33
11.0
8.67
10.0
11.67
9.33
6.33
-1.0
15.33
12.0
7.0
5.0
15.0
13.67
10.0
19.0
6.67
26.0
11.0
10.0
19.0
16.67
15.33
13.67
21.0
12.33
36.33
13.67
23.0
26.0
14.33
14.0
14.67
26.0
14.0
21.67
14.33
15.0
21.0
10.33
30.0
9.67
11.33
33.33
16.0
18.67
7.0
15.67
10.0
10.0
9.0
12.33
8.67
15.33
4.67
5.0
11.0
4.0
20.33
14.67
13.67
4.67
10.0
7.67
9.67
16.0
13.33
13.67
5.33
8.0
3.0
13.67
16.33
6.67
11.33
7.0
4.67
8.67
4.0
13.33
10.67
4.67
14.0
9.67
7.67
24.0
1.0
12.33
7.0
5.0
14.33
6.0
6.67
16.0
11.67
-4.67
-1.67
14.67
16.0
6.33
19.33
3.67
-1.67
-6.33
4.33
4.0
3.67
19.0
2.0
9.67
8.33
12.0
5.67
2.67
2.0
17.67
14.0
0.33
-0.67
-1.0
14.0
14.33
4.0
13.67
17.33
18.0
16.67
7.67
25.0
11.67
3.0
10.67
8.33
3.33
11.67
13.67
4.0
7.67
20.0
4.67
13.67
9.0
27.33
12.67
18.33
20.0
21.33
18.0
16.33
14.67
7.33
7.33
6.33
13.0
9.0
18.0
14.0
17.0
9.33
10.0
10.67
-2.67
-8.33
6.67
14.67
5.67
11.67
5.33
1.33
14.33
14.0
7.33
10.33
9.0
19.67
12.67
-1.33
16.67
6.33
12.33
0.67
15.0
15.67
3.67
8.0
14.0
18.33
1.67
8.0
-2.0
6.0
9.33
-0.67
14.33
0.67
13.0
1.33
0.33
-3.33
7.67
0.33
12.67
-6.33
-5.0
-0.67
4.33
4.0
-2.33
9.33
7.33
5.67
11.0
12.33
-3.0
0.33
-1.67
9.67
6.0
-2.67
2.33
2.33
2.33
6.33
-5.0
-3.33
8.0
-2.67
10.33
-1.0
6.67
15.67
3.67
-1.67
3.0
7.67
4.67
4.33
5.33
4.33
0.33
-6.67
3.33
4.67
7.0
12.33
17.33
9.67
5.67
0.33
4.0
12.33
1.67
6.67
-4.33
1.67
10.33
-3.67
3.0
7.67
-5.0
6.0
10.0
-5.67
1.0
5.67
0.33
1.33
3.67
6.0
-3.67
7.0
4.67
1.67
0.33
4.0
-4.67
7.0
7.33
13.33
6.67
-5.67
11.0
4.67
-0.67
2.33
0.33
8.33
-5.33
-0.33
6.67
2.67
0.33
5.0
2.0
2.33
2.0
-1.33
-1.67
3.0
1.33
8.33
3.33
-1.33
-1.0
6.67
2.33
0.0
-0.67
-2.0
1.0
2.33
-1.0
5.67
2.67
0.33
-0.33
1.0
1.0
1.33
8.67
-1.0
-0.33
10.33
1.33
5.0
2.33
-3.67
6.33
1.67
-1.0
-0.67
1.67
5.33
-2.33
-1.67
2.67
0.67
8.33
3.0
-5.33
9.0
6.33
0.67
6.67
8.0
3.0
11.67
1.67
2.0
11.67
4.33
5.33
0.0
-1.0
7.0
1.33
-1.67
-1.0
1.67
8.33
1.0
4.0
8.33
4.33
2.33
3.33
2.0
3.0
-0.67
0.67
5.67
0.33
0.67
-3.0
0.33
2.67
3.33
2.67
1.33
-0.33
4.33
6.0
-4.0
6.33