File: EDX Back Ups and Old Files/Spectra copy 3.3.23/Samples/Low pH SF 25C 4d/7.75.txt
0.0
4.67
-21.67
16.67
8.0
-59.0
42.67
7.0
97.0
-23.67
24.33
-16.33
18.33
-8.67
-1.0
-1.0
-0.33
-3.0
-2.33
-1.0
-0.67
-0.33
0.0
1.0
-0.33
0.0
0.0
0.0
-0.33
-0.67
-0.67
-1.67
0.33
0.0
-1.0
0.0
0.0
-0.33
-1.33
1.0
0.0
-0.33
-0.33
1.67
0.67
1.0
-1.0
-1.33
1.33
0.33
-0.67
0.33
-2.0
1.0
1.67
-0.67
2.67
4.0
1.67
2.33
0.0
3.0
2.33
-1.0
4.67
2.33
3.33
7.67
-1.67
-3.33
7.67
4.33
7.0
-0.33
-1.67
9.67
-5.67
-1.0
-4.33
0.0
5.0
3.67
5.0
5.33
4.0
8.67
2.33
-1.0
7.0
-2.67
10.67
0.67
1.33
2.67
5.33
5.0
6.0
7.33
7.33
5.33
-1.0
7.33
1.33
8.33
2.0
-6.33
-3.33
-0.33
7.0
0.33
2.67
6.67
4.67
-1.67
8.67
2.67
1.33
5.33
0.33
-1.0
2.67
-1.67
11.0
4.0
3.33
6.0
1.33
2.0
7.0
2.0
0.33
7.0
10.67
2.0
9.33
2.33
11.67
2.33
4.67
2.0
0.0
-1.33
10.33
2.33
-1.0
10.33
8.67
0.67
2.67
3.33
-0.67
5.33
6.67
7.0
-2.0
4.0
7.67
1.33
-8.33
2.67
2.0
0.33
4.0
1.0
7.0
1.0
-7.0
10.33
5.67
2.0
4.33
13.0
-0.33
3.33
8.0
5.33
4.67
3.0
5.33
3.33
-0.33
-1.67
4.67
4.0
0.67
-2.33
3.33
2.67
-1.0
1.0
2.0
1.33
3.0
-0.67
2.33
4.0
2.67
7.0
5.67
0.67
-4.33
1.0
2.67
9.33
4.67
0.33
4.33
3.0
3.0
-0.67
6.67
6.67
6.67
-5.0
0.33
4.33
-3.0
9.33
2.33
5.67
4.0
2.0
1.0
6.33
-4.67
0.67
2.67
-2.67
1.0
-3.67
0.33
-2.33
-2.0
2.33
12.0
2.0
-0.33
4.33
-1.33
0.67
-1.67
1.0
0.33
1.67
7.0
3.33
-0.67
1.0
-0.67
0.67
1.33
-1.33
7.33
-2.33
0.67
-0.33
0.33
1.33
-2.67
2.0
-4.0
2.0
6.67
-0.33
1.67
2.33
0.67
0.67
3.0
4.67
-5.0
2.67
-4.33
-0.67
-0.33
2.67
11.0
2.0
0.67
1.0
-3.33
-0.33
0.0
0.67
1.0
5.67
-3.0
2.0
-0.67
3.0
-0.33
-4.0
1.33
-1.0
1.0
2.33
-0.67
-3.67
-1.33
-1.33
-2.0
1.33
-0.67
2.67
6.0
-1.33
2.67
2.67
-1.0
8.33
-4.33
1.33
5.67
1.33
6.67
4.0
-2.0
1.0
-1.33
6.33
3.0
-0.33
0.0
2.33
2.33
-2.67
-2.0
-0.33
-0.67
1.33
1.67
-1.33
-3.67
-1.33
-1.0
0.0
-1.33
2.33
1.0
-0.33
2.67
1.67
-1.33
4.67
2.0
0.0
1.0
3.67
7.0
-2.0
-1.67
0.33
0.67
3.0
-4.67
0.67
0.0
4.0
1.67
-0.67
-4.67
-4.67
2.67
1.67
3.67
1.0
-2.33
1.33
-2.0
2.0
0.67
4.0
1.0
9.33
3.0
3.67
0.0
-4.67
0.0
-4.0
1.33
3.67
1.33
-4.0
3.0
0.0
4.0
4.33
5.0
1.67
-4.0
-3.67
7.0
-2.0
-1.0
-0.33
2.33
4.0
0.67
-3.0
3.0
1.0
-3.0
4.0
0.0
5.0
-2.67
-0.67
5.67
5.33
5.67
5.67
-1.67
2.67
6.33
2.67
2.67
4.67
-5.33
4.0
8.67
6.33
3.33
3.67
9.67
-1.0
4.0
11.67
4.0
-2.33
4.67
12.0
6.0
5.67
7.67
4.33
8.67
5.33
13.67
10.33
5.33
0.33
7.67
2.0
-0.33
9.33
12.67
6.0
1.67
6.67
3.67
4.33
8.0
3.33
3.33
7.33
6.33
11.33
8.67
6.67
7.0
6.0
1.67
5.0
-2.33
14.67
19.67
19.33
24.33
30.0
46.33
46.67
37.0
49.0
51.67
44.0
19.0
21.0
16.33
5.67
7.67
13.33
12.0
11.33
1.0
8.67
11.33
17.33
13.0
11.0
11.67
25.0
23.67
19.0
25.0
19.0
15.33
26.33
14.0
20.33
17.0
21.33
15.0
18.67
23.67
11.67
14.33
14.33
18.0
15.33
23.0
18.67
32.67
38.33
27.0
20.33
19.0
20.0
18.33
11.0
17.33
9.0
17.33
26.67
21.33
26.0
32.0
29.67
26.67
22.0
26.67
35.33
20.33
25.67
22.0
21.33
21.0
10.0
10.0
10.0
8.33
17.33
15.0
12.33
18.67
11.67
10.67
17.67
20.33
16.33
16.67
9.67
23.67
13.67
15.0
11.33
8.33
9.33
13.33
6.33
8.67
13.67
17.33
11.0
5.33
13.0
10.67
18.33
5.67
18.0
13.67
9.33
26.33
17.33
7.0
3.67
26.67
15.67
15.67
15.33
18.0
14.67
15.0
15.33
10.0
12.0
24.33
33.0
25.33
44.0
53.0
68.0
109.33
147.33
149.33
200.33
234.33
185.33
203.0
143.0
152.67
124.67
101.0
77.67
57.0
31.67
21.67
23.33
11.33
14.67
12.33
11.67
12.67
14.67
20.67
12.67
23.0
23.67
28.0
33.0
38.0
33.33
34.67
51.0
33.67
40.67
51.33
35.33
39.0
43.33
37.33
38.67
23.33
22.33
21.0
20.67
24.67
14.0
17.33
-3.67
13.33
0.33
14.0
15.67
16.0
11.67
13.33
1.33
5.0
1.33
-2.0
12.0
11.0
16.0
16.67
12.0
8.0
20.67
16.0
20.0
20.0
22.0
33.67
26.33
20.67
25.0
26.33
22.33
12.67
28.0
29.0
20.33
16.0
17.67
25.0
10.0
19.67
13.33
14.0
17.0
4.33
21.0
17.67
29.33
27.33
14.0
4.67
7.0
12.67
6.0
16.0
9.0
11.33
12.67
17.33
10.67
5.0
15.0
6.0
9.33
8.67
3.67
4.67
3.0
2.67
13.67
11.0
11.33
6.67
18.33
12.0
2.0
4.67
6.33
16.67
11.33
12.0
12.67
13.67
12.0
19.33
10.67
3.67
9.0
5.67
11.67
11.0
9.0
16.33
13.0
8.0
16.33
-1.0
11.67
15.0
11.67
6.33
1.33
16.67
12.0
14.33
11.33
9.67
2.33
-1.33
4.33
1.0
4.67
19.0
12.0
5.67
14.33
16.0
-6.33
24.67
7.0
10.67
7.0
-1.67
5.33
3.0
8.0
1.33
17.0
10.67
4.33
7.0
1.67
11.67
1.0
12.67
10.0
3.67
14.33
2.33
14.67
15.67
14.0
6.67
11.0
-1.33
-0.33
10.0
16.33
8.67
20.33
20.0
25.33
18.0
19.33
19.67
1.33
14.33
9.33
17.0
9.0
12.0
15.0
25.0
10.33
3.0
6.67
13.33
1.67
-0.33
-3.33
3.67
5.67
-2.67
7.33
7.33
14.0
15.33
1.33
7.0
4.67
3.67
-1.33
18.67
3.33
9.33
3.67
12.0
6.67
3.67
10.0
-1.0
6.33
5.67
6.0
0.0
-3.0
13.33
9.33
7.33
2.67
9.0
7.33
5.33
8.67
6.67
-1.67
0.67
4.67
3.0
15.33
-0.67
1.0
5.67
6.33
1.33
8.67
14.0
2.33
-12.0
5.33
-5.67
10.67
-2.0
-0.67
8.33
8.33
-0.67
9.33
6.0
-0.33
7.0
-1.67
7.33
12.0
8.67
17.67
0.67
-2.67
2.0
9.67
7.67
7.33
7.33
-1.67
6.33
2.33
-2.67
8.67
5.0
14.33
9.33
6.67
11.67
-0.67
3.0
7.33
1.67
8.67
8.67
-0.33
1.33
2.33
7.0
-5.33
-5.0
5.0
5.0
-3.67
1.0
-0.33
6.33
2.33
2.67
2.0
-4.67
3.0
-3.33
5.67
0.33
12.0
-3.67
5.0
2.33
7.33
-1.33
2.33
8.0
5.67
1.33
7.33
-3.67
2.33
5.67
0.67
5.67
2.67
2.33
6.0
2.0
8.33
1.0
2.67
-2.67
3.0
-1.67
1.33
0.33
2.67
6.0
7.67
-0.67
4.0
6.33
-1.0
5.0
-1.67
-6.0
1.67
3.67
2.33
1.67
-4.0
-5.0
-1.67
6.67
6.0
2.67
6.33
2.33
-1.0
1.33
-0.67
3.33
-3.33
-6.0
7.33
3.67
4.33
0.67
-0.67
1.67
3.67
-1.67
6.0
-0.33
3.0
-1.67
3.67
1.67
5.0
5.0
1.67
3.67
1.0
3.67
-0.67
5.33
9.0
-5.0
1.0
4.33
1.33
4.0
-2.33
2.33
1.0
3.0
-0.67
6.33
1.33
2.33
0.0
0.0
-0.67
7.67
-0.33
-0.67
2.67
6.0
3.33
-1.33
5.33
0.67
1.33
-3.33
9.33
3.0
-2.0
-2.67