File: EDX Back Ups and Old Files/Spectra copy 3.3.23/Samples/Low pH SF 25C 4d/9.5.txt
0.0
-46.33
-66.67
-81.33
-39.0
11.0
-63.33
5.0
22.0
-18.67
11.33
-20.33
17.33
-10.67
-12.0
-4.0
-1.33
-3.0
-0.33
1.0
-0.67
-0.33
0.0
0.0
-0.33
0.0
0.0
0.0
0.67
0.33
-0.67
-1.67
0.33
0.0
0.0
0.0
0.0
-0.33
-1.33
0.0
0.0
-0.33
0.67
-0.33
0.67
1.0
0.0
-0.33
2.33
-1.67
1.33
1.33
0.0
-1.0
-1.33
-0.67
0.67
3.0
6.67
-0.67
6.0
1.0
1.33
2.0
-0.33
2.33
5.33
2.67
-2.67
-4.33
9.67
5.33
-3.0
-2.33
6.33
-0.33
-3.67
0.0
2.67
-1.0
-1.0
-2.33
-4.0
0.33
-5.0
-4.33
-0.67
-1.0
5.0
-1.67
6.67
4.67
1.33
11.67
6.33
3.0
6.0
3.33
2.33
0.33
1.0
5.33
7.33
-2.67
3.0
1.67
-0.33
4.67
1.0
-2.67
1.67
-0.33
-3.33
5.33
6.67
11.67
5.33
5.33
4.33
3.0
6.67
-0.67
2.0
-4.0
3.33
1.0
10.33
2.0
7.0
10.0
2.33
3.0
9.67
7.0
2.33
5.33
13.67
-1.67
5.67
1.0
0.0
2.67
-2.67
-0.67
4.0
2.33
6.67
4.67
-0.33
-0.67
3.33
-2.67
3.67
6.0
-5.0
1.0
1.67
-3.67
-5.33
1.67
2.0
1.33
-1.0
0.0
10.0
-2.0
-4.0
4.33
0.67
0.0
7.33
4.0
-0.33
8.33
0.0
2.33
4.67
-5.0
3.33
-0.67
-0.33
-2.67
-1.33
0.0
3.67
0.67
-0.67
10.67
6.0
6.0
0.0
-1.67
-2.0
0.33
4.33
2.0
-0.33
-1.0
0.67
3.67
-0.33
4.0
1.67
3.33
-2.33
5.33
8.33
5.0
4.0
3.33
1.67
4.67
-2.33
-4.0
4.33
2.33
0.0
5.33
1.33
2.67
-1.0
2.0
-2.0
-0.67
3.33
-0.33
3.67
-4.67
1.0
1.33
2.33
-3.33
-2.0
0.33
-2.0
1.0
4.67
0.33
0.67
2.67
1.33
0.0
2.33
-0.33
1.0
0.33
0.33
-3.0
5.33
-1.33
1.33
-1.33
5.33
-2.33
2.67
0.67
0.33
3.33
0.33
-3.0
8.0
2.0
-1.33
-1.33
6.67
-0.67
4.67
2.67
6.0
2.67
-5.0
0.67
-5.33
-1.67
0.67
0.67
0.0
6.0
0.67
0.0
3.67
1.67
4.0
3.67
1.0
-1.33
-2.0
2.0
1.33
6.0
5.67
6.0
-2.67
0.0
-1.0
-3.67
-0.67
-0.67
4.67
0.67
-1.0
2.33
-0.67
2.67
4.0
7.67
6.67
2.67
-2.0
1.33
1.67
1.33
-1.33
-1.67
1.67
4.0
1.0
1.0
0.67
0.33
-3.0
-0.33
2.0
0.33
0.33
-1.67
3.0
-1.33
4.33
2.33
3.67
0.67
-4.67
3.67
3.0
0.0
1.67
0.33
4.0
-0.33
-0.33
6.67
1.67
-0.33
2.0
-1.0
2.0
-2.33
2.0
5.0
0.33
0.33
2.67
0.0
-1.67
3.67
-2.0
-4.0
5.67
-1.67
1.33
1.33
-0.33
-2.33
-2.33
1.0
-1.33
-1.67
0.0
4.0
2.67
7.0
-3.0
0.33
4.0
-0.33
3.0
3.33
0.0
-1.0
3.33
-2.33
-1.67
0.0
6.0
-3.0
6.0
1.33
-2.0
-0.33
2.0
2.33
5.0
2.0
12.0
2.67
5.33
-9.0
-0.33
5.0
7.0
-2.0
0.0
4.0
5.0
-1.0
7.33
1.33
-0.33
6.33
-0.33
3.67
1.33
-1.33
5.33
1.67
5.67
6.67
4.67
11.0
8.67
2.33
9.33
1.67
7.67
-3.0
-1.0
15.67
8.0
5.67
0.67
12.0
9.0
0.67
3.67
8.33
2.67
2.33
3.67
4.33
2.33
9.33
12.67
11.0
3.67
7.33
7.67
6.0
8.67
13.67
8.67
17.33
2.0
6.33
8.33
10.33
4.33
11.33
12.67
7.67
6.0
8.0
7.67
5.0
7.67
12.67
9.67
22.33
19.33
17.0
23.33
9.67
28.0
10.0
9.67
16.0
13.0
14.0
12.33
13.67
5.67
9.33
16.0
10.33
15.0
8.67
15.33
17.33
16.0
14.0
18.67
19.0
18.67
16.0
19.0
17.0
23.33
16.33
18.0
2.33
15.0
12.33
15.0
10.67
8.67
21.67
14.33
18.33
29.0
22.33
12.0
22.67
10.67
20.33
18.0
18.33
17.0
18.0
19.33
16.0
22.33
7.0
3.33
25.67
11.33
11.0
21.0
39.67
35.67
37.0
29.67
50.33
37.33
49.67
40.0
45.33
29.0
32.0
28.0
31.0
31.33
27.33
28.0
22.33
18.67
22.67
25.67
22.67
19.33
15.33
6.67
12.67
15.67
16.67
14.0
10.33
9.33
9.33
23.33
12.33
13.67
4.67
6.33
12.0
7.33
9.0
7.67
12.33
3.67
2.0
18.67
5.33
15.33
20.33
34.0
6.67
29.67
28.67
24.67
0.33
17.0
15.67
4.0
16.33
8.0
14.0
16.33
35.0
35.33
45.0
69.0
84.0
118.33
155.33
188.33
159.33
156.33
149.33
141.0
122.0
109.67
113.67
73.0
65.67
52.0
41.67
35.67
35.33
34.33
32.67
29.33
46.67
33.67
36.67
48.67
42.67
48.0
29.67
30.0
35.0
34.0
39.33
27.67
42.0
36.67
39.67
31.33
21.33
22.0
17.33
41.33
13.67
7.33
15.33
18.0
18.67
32.67
14.0
24.33
4.33
13.33
11.33
14.0
8.67
18.0
12.67
-0.67
8.33
8.0
12.33
16.0
16.0
13.0
13.0
15.67
16.0
12.0
14.67
20.0
29.0
27.0
32.0
28.67
21.33
24.67
20.0
22.33
25.33
19.67
16.0
19.0
17.33
10.0
11.67
20.0
17.0
20.67
19.33
11.0
9.0
26.33
20.0
31.67
25.33
25.33
34.0
24.67
26.0
28.67
32.0
29.0
18.0
14.33
9.67
12.33
20.67
12.0
15.0
12.0
24.33
21.67
12.67
14.67
24.0
16.67
25.67
14.0
15.33
26.67
9.33
5.0
7.0
7.67
2.33
16.67
8.33
11.0
6.67
14.67
6.0
15.33
13.67
8.67
9.0
4.67
0.67
11.0
12.0
11.33
15.0
2.0
5.33
22.0
6.67
14.0
8.67
-0.67
8.33
9.67
6.0
4.33
11.33
4.67
-1.67
4.67
10.33
9.0
-3.33
12.0
-4.0
1.67
9.33
11.0
12.67
4.67
-1.0
15.67
7.0
2.33
23.33
6.0
6.0
15.33
7.0
13.67
13.33
5.0
7.67
-5.33
11.0
5.67
6.0
10.67
19.33
9.33
10.67
20.67
10.0
17.67
15.0
13.67
4.67
18.0
16.33
22.67
10.33
21.0
8.33
22.0
10.33
12.67
11.33
9.33
21.33
12.0
3.0
0.0
-3.0
10.0
9.33
16.0
8.67
-5.67
2.67
4.67
7.67
2.67
-1.33
-0.67
9.33
11.33
9.0
13.33
7.33
19.0
9.67
-6.33
15.67
10.67
13.33
19.33
13.67
1.0
3.67
11.67
0.0
6.0
5.33
0.67
16.0
-1.0
4.0
6.33
5.33
8.33
-0.33
7.0
6.33
-1.67
22.67
2.67
4.33
12.67
-4.33
11.0
4.33
-0.67
5.0
6.67
1.33
-2.67
7.67
3.0
6.33
1.0
-1.67
-6.67
-1.33
7.0
9.33
1.33
-1.67
-0.67
6.33
8.0
3.67
-1.0
4.33
8.33
-2.0
7.67
7.67
5.67
-0.67
8.0
7.67
8.67
10.33
0.33
2.33
6.33
7.33
6.33
11.67
-7.0
9.33
1.33
3.67
3.67
-5.67
7.0
5.33
7.67
4.67
4.67
7.67
-2.67
6.33
9.0
9.67
3.0
3.0
5.0
-1.67
-6.0
3.67
4.33
0.33
1.67
6.0
-6.67
5.0
1.67
3.67
-4.67
3.0
-6.67
8.0
-2.67
1.33
-4.33
3.33
2.0
-3.33
-3.67
5.33
4.33
6.33
3.67
2.67
4.67
5.67
-2.67
4.0
0.0
8.33
-1.0
-2.33
2.33
3.0
0.33
0.33
0.33
-5.33
2.0
6.67
1.33
2.0
3.33
3.0
-7.0
2.33
2.0
6.67
-2.33
-2.67
-0.33
1.0
-3.0
3.33
-4.33
8.0
7.67
9.33
-1.67
-1.0
-2.67
5.33
-5.67
-2.33
-4.0
-0.67
3.67
5.33
2.67
0.33
2.67
-1.33
-0.67
2.0
2.67
7.0
4.33
6.67
0.67
0.0
4.0
5.67
2.67
0.0
7.67
6.33
7.33
3.0
4.0
9.0
-3.67
-6.67
3.0
-1.33
4.33
8.0
1.0
-1.67
0.33
2.33
1.33
3.0
5.0
-2.67
3.67
4.67
-1.67
2.67
-5.0
5.33
0.67
-1.67
-2.33
-1.67
-2.33
9.33
4.0
5.0
1.33