File: EDX Back Ups and Old Files/Spectra copy 3.3.23/Samples/Low pH SF 25C 14d/10.25.txt
0.0
27.0
4.67
-126.0
28.33
-68.33
-109.33
-50.33
8.33
-65.0
2.0
19.0
-1.33
-2.33
2.33
-1.67
3.33
-2.33
1.33
-0.33
0.67
-1.0
1.33
0.0
-0.33
-0.67
0.0
0.0
-0.33
0.0
1.0
0.0
2.0
-1.0
0.0
-0.67
0.0
0.0
1.33
-0.33
1.0
0.67
1.0
0.33
-0.33
0.67
0.33
0.67
1.67
0.33
0.0
0.33
-2.0
-0.33
0.0
0.0
0.0
2.33
0.67
-1.0
-2.67
-0.67
-2.0
-1.0
4.33
0.0
1.0
3.0
5.33
-0.33
3.33
3.0
1.67
10.33
-1.0
-1.67
1.0
6.33
3.33
-0.67
2.0
5.33
-0.33
7.0
0.33
5.0
1.67
2.33
1.67
5.33
3.0
2.67
6.33
-1.33
3.0
-2.67
-1.33
-2.67
-1.67
2.33
0.0
-1.33
3.33
2.33
6.67
4.0
6.33
5.0
0.67
6.67
-2.33
6.67
7.0
2.67
6.0
5.67
-1.0
0.33
4.33
3.67
1.33
-1.33
4.67
6.33
-3.33
4.33
5.0
-4.67
6.67
4.67
4.67
1.33
4.33
4.0
3.67
3.0
1.0
4.0
4.0
1.0
-0.33
5.0
0.33
9.67
6.0
5.33
10.0
-3.67
7.33
3.67
7.33
2.67
4.33
4.0
6.67
2.67
-1.67
-1.33
-0.67
9.67
-3.33
-3.0
1.0
5.0
-0.33
1.0
0.67
2.33
5.67
1.33
3.0
4.0
-6.33
2.67
1.33
0.67
4.33
5.67
2.67
5.67
4.0
-3.33
0.33
-3.67
-1.67
1.0
4.67
0.67
6.0
8.67
3.33
1.67
0.33
3.33
5.0
5.0
4.0
10.0
0.33
2.33
4.33
-5.0
-0.33
2.0
0.33
3.67
4.33
0.0
4.67
-3.33
2.33
-4.0
8.0
3.33
2.0
4.0
2.67
-1.33
1.0
-2.33
-0.67
2.0
0.33
-1.33
3.33
2.67
1.33
-2.0
-0.33
3.33
1.33
1.33
-1.33
1.0
1.67
0.0
-3.0
1.33
9.33
2.67
-2.33
-1.33
5.33
-0.33
-1.33
-0.67
5.67
0.0
1.67
1.67
-0.33
0.0
5.33
6.67
-0.33
7.67
-0.33
2.67
-1.0
4.0
-3.33
2.0
-3.0
0.67
0.33
1.67
3.0
-0.33
5.67
2.33
2.33
-3.0
-1.67
1.67
1.0
-1.0
-0.33
1.0
2.33
2.33
-2.0
-0.67
2.67
4.0
4.33
1.67
4.67
2.33
0.33
5.33
-2.33
0.0
-1.33
-2.33
1.33
-2.0
0.67
-2.33
-3.0
-1.67
1.0
2.67
-1.0
-0.33
0.0
6.0
4.0
1.67
-2.0
2.0
-2.33
-1.0
1.0
-2.0
-0.67
2.0
5.0
0.0
2.0
1.33
-1.67
0.33
-0.33
-2.67
2.0
-1.0
5.33
0.0
0.0
1.33
-6.0
4.67
-0.33
3.0
1.33
0.33
-4.33
1.67
-2.67
-2.67
2.67
-2.67
1.33
0.0
0.33
1.33
2.33
-0.33
3.33
3.0
-0.67
-1.0
5.0
3.33
2.33
-2.67
3.33
-1.0
1.67
2.0
-1.67
0.0
0.33
1.33
0.67
4.33
3.67
1.67
-1.67
9.33
5.33
-2.33
3.0
7.0
-3.0
3.0
3.0
5.0
4.67
6.67
-1.0
4.33
0.0
-4.0
-0.67
5.0
-2.67
5.0
1.67
0.33
-5.33
0.0
0.0
0.33
-2.0
1.67
5.0
-3.33
-0.67
4.0
0.33
6.67
2.0
-0.33
4.67
1.0
10.33
2.0
2.0
5.33
-0.67
4.33
2.0
13.0
1.67
9.67
1.67
2.0
3.67
9.0
9.33
-1.0
4.67
5.67
9.33
4.0
6.67
7.67
6.67
7.0
2.33
14.67
5.0
15.33
3.67
6.0
11.33
5.67
10.33
13.0
10.33
11.67
11.67
12.67
7.67
1.0
8.67
8.0
5.33
7.33
6.33
11.0
12.67
7.33
18.33
13.67
5.0
8.33
1.0
16.33
8.33
9.33
10.0
14.0
19.67
26.67
31.67
39.67
53.67
65.0
71.0
76.67
78.67
78.33
68.33
80.0
60.67
28.0
32.33
30.67
20.33
21.0
5.0
22.67
13.0
18.0
28.33
31.33
43.33
54.0
50.33
48.33
55.67
47.67
48.33
32.33
17.0
26.67
24.67
19.33
16.67
14.33
15.67
9.0
14.0
8.67
4.67
9.0
14.0
16.0
20.67
11.33
19.0
17.67
16.33
19.33
22.33
22.33
15.33
21.0
11.33
34.67
17.67
23.33
10.33
26.67
13.33
30.0
27.0
29.33
46.67
29.67
38.33
40.33
53.67
39.33
30.33
30.33
31.0
28.67
34.0
25.67
19.0
26.0
19.67
33.67
15.0
23.0
9.67
22.33
12.67
14.33
21.67
16.33
19.0
20.0
11.33
14.0
5.0
13.67
18.33
7.0
7.33
4.0
13.67
14.0
9.33
7.67
15.67
10.33
16.33
22.33
12.0
11.0
23.67
23.67
12.67
12.0
18.33
17.0
8.0
28.33
23.0
11.33
15.67
12.33
9.33
13.33
22.67
21.33
24.0
52.67
81.0
104.67
102.0
117.67
143.33
154.67
134.0
157.33
123.67
113.67
107.67
86.0
75.67
67.0
56.0
50.33
56.0
51.67
46.67
34.0
38.0
29.33
35.67
59.0
54.33
66.0
86.33
93.33
109.33
99.67
71.67
94.67
61.33
55.0
56.33
48.67
48.33
35.33
37.0
25.67
12.0
15.0
28.33
2.0
13.67
17.67
12.67
13.0
13.0
5.33
11.0
7.33
7.0
-1.33
11.0
4.67
6.67
10.33
7.67
17.33
21.67
14.67
21.67
20.33
20.67
24.33
22.33
25.33
40.33
31.67
35.33
41.0
34.0
22.67
24.0
42.33
18.0
25.33
30.0
28.0
18.67
14.67
24.0
23.0
25.33
26.67
31.67
29.33
43.0
25.0
29.67
30.0
17.0
25.0
27.0
34.67
41.0
23.67
27.33
11.67
13.33
20.67
11.67
12.33
8.67
7.0
15.67
7.33
4.0
2.0
6.0
0.67
25.33
5.0
9.0
8.33
10.0
9.67
10.33
20.67
9.33
4.67
15.33
7.0
4.67
12.33
10.67
8.33
12.67
-0.67
6.33
5.33
16.67
13.33
14.67
3.67
2.0
10.33
5.0
5.67
20.0
5.33
3.67
16.67
6.67
3.0
1.33
6.0
-8.67
11.33
12.67
-1.33
-0.67
15.67
1.33
-3.33
13.67
-7.0
3.33
-4.0
4.33
11.0
3.33
7.0
10.33
12.33
6.0
2.0
-4.0
10.33
3.0
16.33
7.33
12.67
4.33
15.0
23.33
3.0
13.33
7.0
-0.67
6.33
-1.33
-3.67
19.0
9.33
4.67
3.67
6.0
18.67
21.33
29.67
13.33
14.33
27.0
13.67
27.0
5.33
-1.0
10.67
14.67
12.33
7.67
4.33
7.0
9.0
9.33
5.67
9.0
-4.33
10.33
5.67
10.67
8.0
-0.33
7.33
9.67
8.0
7.33
6.67
16.0
4.67
3.67
8.0
-2.33
-6.67
9.67
7.33
10.67
-4.33
1.67
6.0
19.0
8.67
-2.33
3.67
13.0
16.0
19.0
7.33
8.33
6.33
3.67
-7.0
10.0
2.67
1.67
-2.33
0.33
0.33
-2.0
9.67
7.67
1.33
6.0
6.0
-4.33
-3.67
2.0
2.0
11.33
-1.0
-7.0
13.33
5.67
-1.33
7.67
-3.67
4.0
8.0
6.33
4.33
-0.67
14.0
1.67
6.33
23.33
3.33
10.33
-6.67
7.0
5.0
5.0
7.33
4.67
0.0
5.0
1.0
0.67
-1.0
4.67
1.67
6.67
-3.33
-1.33
-1.33
3.67
0.0
-0.67
13.0
2.0
4.0
7.33
1.33
1.0
2.0
9.33
0.0
7.67
-6.33
1.67
7.33
2.33
7.33
2.67
9.0
9.33
-3.67
8.0
2.67
9.33
2.67
-2.33
-1.33
4.0
3.67
8.67
3.0
-3.67
4.33
3.67
-1.33
0.0
1.33
2.33
11.67
5.67
5.0
2.33
4.67
2.0
10.67
8.0
5.33
-2.0
14.33
5.67
8.67
5.33
-4.0
10.67
3.33
4.0
4.67
1.67
2.0
0.67
8.33
-1.33
1.67
1.67
2.67
3.0
8.0
6.33
-2.33
1.0
0.33
-1.33
3.33
6.33
2.67
0.67
0.0
-4.33
6.33
0.67
1.0
-0.33
2.67
-8.33
6.33
-0.33
0.33
6.0
1.33
1.33
5.33
8.0
-2.0
7.0
7.67
2.33
2.67
2.0
2.67
0.33
-1.67
1.67
5.0
0.33
-4.0
1.33
1.33
2.0
9.33
2.0
1.67
2.67
7.33
-2.0
1.33
1.0
0.0
2.67
-4.33
-2.67
0.0
-0.33
0.67
-0.33
6.0
2.0
1.33
1.0
2.67
0.33
11.0
0.33
1.67
0.33
2.67
-2.0