File: EDX Back Ups and Old Files/Spectra copy 3.3.23/Samples/Low pH SF 25C 14d/10.5.txt
0.0
66.0
11.67
-93.0
-8.67
-31.33
-57.33
-10.33
20.33
13.0
-16.0
20.0
-4.33
9.67
-0.67
-2.67
-1.67
-4.33
1.33
0.67
0.67
0.0
-0.67
0.0
0.67
0.33
-1.0
0.0
1.67
1.0
2.0
0.0
1.0
0.0
1.0
-0.67
0.0
1.0
-0.67
0.67
0.0
0.67
1.0
-0.67
-0.33
2.67
0.33
0.67
0.67
-1.67
0.0
-0.67
0.0
-1.33
0.0
0.0
0.0
0.33
-1.33
1.0
-2.67
0.33
3.0
-2.0
2.33
-1.0
1.0
3.0
5.33
0.67
4.33
5.0
4.67
1.33
0.0
6.33
3.0
0.33
-1.67
6.33
2.0
7.33
-1.33
-2.0
7.33
8.0
0.67
4.33
5.67
1.33
5.0
-0.33
4.33
3.67
-1.0
-2.67
-1.33
2.33
0.33
4.33
3.0
-1.33
2.33
5.33
4.67
0.0
4.33
-4.0
-3.33
9.67
-1.33
-0.33
6.0
12.67
3.0
7.67
6.0
5.33
3.33
-0.33
1.33
-0.33
2.67
1.33
5.67
-2.67
0.0
-1.67
1.67
7.67
12.67
-0.67
5.33
1.0
-3.33
5.0
-4.0
4.0
-1.0
5.0
0.67
4.0
1.33
-2.33
9.0
0.33
5.0
1.33
0.33
6.67
0.33
-2.33
-1.67
-3.0
6.67
5.67
1.33
3.67
1.33
3.67
-2.33
6.0
4.0
3.0
0.67
8.0
7.67
4.33
-1.33
-1.67
4.0
1.0
-8.33
1.67
0.33
0.67
4.33
4.67
-0.33
8.67
0.0
-0.33
0.33
4.33
0.33
3.0
-1.33
5.67
5.0
-0.33
-0.67
1.67
-3.67
3.33
1.0
9.0
0.0
-2.0
2.33
-4.67
-1.67
-5.0
-0.33
-1.0
1.33
1.67
-1.67
3.0
-2.33
-3.33
1.33
1.0
0.0
2.33
7.0
-3.0
1.67
1.67
-2.0
5.67
0.33
5.0
1.33
4.67
1.33
-0.33
-2.67
-2.0
5.67
9.33
6.33
1.33
-2.33
2.0
10.67
0.0
-2.0
2.33
0.33
2.67
0.67
2.67
3.33
0.67
-1.33
0.33
-0.33
6.0
-2.33
-1.33
-4.33
4.0
5.33
-0.33
3.67
-0.33
0.67
2.67
1.0
4.0
-0.33
-3.0
0.0
0.67
-1.67
-1.33
-2.0
1.67
-1.33
3.33
-0.67
-1.0
-2.67
0.67
0.0
-1.0
2.67
1.0
0.33
1.33
-2.0
4.33
-0.33
2.0
-3.67
5.67
2.67
2.33
-1.67
10.33
1.67
-3.0
-0.33
-2.33
1.33
0.0
2.67
2.67
3.0
1.33
3.0
0.67
-3.0
-1.33
8.0
4.0
-1.0
1.67
2.0
5.0
-1.33
3.0
-2.0
-1.0
-0.67
7.0
3.0
5.0
3.0
0.33
-0.67
5.33
-0.33
1.33
3.0
-1.0
3.33
-1.0
3.0
-1.67
1.0
3.67
0.67
8.0
1.33
3.33
3.67
2.67
-0.67
-0.67
1.67
-2.67
-0.67
-3.0
-2.67
0.33
-5.67
-1.33
4.33
6.0
8.33
2.0
1.0
2.33
-3.67
0.33
6.33
0.0
7.67
5.0
5.33
3.0
-1.67
7.33
-3.33
0.33
2.67
-0.33
2.33
3.33
2.33
2.67
6.0
-1.0
-3.0
0.0
7.0
8.0
0.67
0.67
5.0
3.33
4.0
2.0
7.33
2.0
1.33
3.0
1.67
2.33
-0.33
0.0
0.0
3.33
6.0
11.67
7.0
5.67
1.33
11.0
1.33
2.67
5.0
1.67
9.67
10.0
5.33
8.0
0.0
1.33
7.33
7.33
-2.0
3.0
-3.33
5.67
5.67
5.0
8.67
5.0
6.33
4.0
6.67
2.67
5.33
0.0
6.67
7.67
1.67
-1.0
3.33
9.67
5.0
9.33
12.67
5.0
5.33
-2.33
4.33
5.0
9.33
1.67
4.67
7.67
5.67
2.0
0.67
2.0
13.33
4.33
11.33
11.0
10.67
13.33
10.33
10.67
3.0
10.33
10.0
5.33
9.33
13.33
10.0
31.0
25.67
23.67
27.67
35.67
37.67
46.0
40.0
45.67
66.67
65.33
83.33
82.0
89.67
74.0
64.33
34.67
22.33
34.0
19.0
14.67
7.0
20.0
21.33
27.33
38.33
46.0
56.33
44.33
55.67
41.67
54.33
42.33
26.0
40.67
35.67
22.33
23.67
19.33
6.67
12.0
18.0
4.67
10.67
10.0
16.0
8.0
19.67
17.33
25.0
27.67
14.33
13.33
23.33
16.33
20.33
16.0
14.33
20.67
32.67
23.33
21.33
18.67
16.33
27.0
25.0
25.33
35.67
56.67
40.33
44.33
54.67
41.33
52.33
53.33
37.0
38.67
34.0
36.67
30.0
28.0
32.67
26.67
20.0
26.0
18.67
20.33
22.67
26.33
10.67
19.33
17.0
15.0
14.33
9.0
7.0
12.67
13.33
3.0
9.33
10.0
13.67
9.0
14.33
4.67
14.67
19.33
8.33
18.33
22.0
10.0
13.67
25.67
11.67
20.0
19.33
19.0
19.0
12.33
12.0
13.33
12.67
11.33
14.33
18.33
18.67
18.33
47.0
51.67
67.0
67.67
76.0
105.67
97.33
96.67
92.0
89.33
61.67
63.67
51.67
35.0
46.67
52.0
59.0
58.33
47.0
29.67
45.67
33.0
37.0
39.33
40.67
62.0
57.33
61.0
86.33
105.33
67.33
93.67
85.67
87.67
65.33
64.0
73.33
52.67
47.33
24.33
28.0
17.67
24.0
31.0
30.33
12.0
3.67
20.67
8.67
5.0
21.0
7.33
11.0
12.33
13.0
10.67
17.0
8.67
6.67
23.33
18.67
11.33
24.67
18.67
22.67
31.33
30.67
23.33
24.33
39.33
30.33
16.67
34.33
27.0
35.0
19.67
19.0
29.33
27.0
25.33
24.0
18.0
10.67
16.67
32.0
23.0
10.33
21.67
46.67
34.33
23.0
40.0
29.67
41.0
29.0
48.0
48.0
38.67
38.0
25.67
28.33
18.67
10.33
22.67
16.67
9.33
5.67
11.0
13.67
14.33
8.0
11.0
9.0
13.67
9.33
4.0
10.0
3.33
10.0
8.67
5.33
7.67
7.33
10.67
12.33
13.0
11.67
10.33
11.67
16.33
8.67
13.33
16.33
11.33
1.67
15.33
2.67
6.67
1.0
13.33
5.0
-0.33
9.0
8.33
2.67
6.67
1.67
3.0
3.33
2.0
2.33
12.33
12.67
13.67
7.33
9.67
12.33
4.67
10.67
5.0
10.33
-1.0
4.33
14.0
3.33
12.0
4.33
1.33
23.0
22.0
10.0
15.33
5.0
15.33
12.33
16.67
-1.67
7.0
13.33
9.0
14.33
1.0
14.33
22.33
0.67
8.33
20.0
1.33
-6.33
13.67
15.0
8.67
24.33
17.67
7.33
6.33
14.0
9.67
3.0
-2.67
15.0
11.67
8.67
27.33
25.67
15.33
4.0
2.0
9.33
13.67
4.0
2.67
6.33
2.67
23.67
9.0
-1.33
15.33
2.67
12.0
11.33
-4.33
12.0
18.67
10.67
9.0
10.67
7.33
15.67
25.33
-0.33
7.67
5.67
21.0
-1.0
6.67
15.67
11.67
17.0
11.0
18.0
10.33
8.33
4.33
6.67
3.0
15.0
0.67
-4.33
6.67
2.33
3.33
5.0
0.67
-3.33
0.33
3.0
0.0
-0.33
-0.67
1.0
2.0
0.33
-7.0
-3.0
2.33
2.67
-3.33
6.67
0.33
-6.0
5.0
11.33
-4.67
-1.67
-3.0
-4.33
8.33
2.33
4.33
-0.67
-8.67
1.0
13.0
2.0
11.33
7.67
-1.0
0.0
4.0
-1.33
4.0
8.67
15.67
6.67
-0.33
0.67
-4.33
-1.33
1.0
1.33
4.0
-8.0
4.0
16.33
-0.67
0.0
-3.0
1.33
3.0
1.67
5.67
3.67
3.33
1.33
5.33
0.67
5.0
4.33
3.33
8.0
-0.33
-0.67
4.67
4.67
1.67
3.0
4.67
-0.33
4.0
9.33
-4.67
2.67
1.67
-2.0
-1.67
6.33
5.67
0.67
-1.0
2.33
3.67
-1.0
4.67
5.0
-0.67
-1.0
6.33
0.67
8.67
5.33
0.0
3.67
12.33
5.0
3.67
1.67
4.0
1.67
3.33
4.67
0.67
0.67
-1.33
3.0
15.0
0.33
-1.33
-1.0
-0.67
-3.33
2.33
3.33
-3.33
0.67
8.0
1.67
6.33
1.67
-4.0
-4.33
-3.33
-1.33
7.33
1.67
1.33
3.0
-3.67
2.33
-0.67
-3.0
5.0
-1.0
2.67
1.33
6.67
3.0
3.67
4.33
-4.67
-2.33
-2.0
6.33
-2.0
0.33
0.33
5.0
5.33
5.0
0.67
3.67
1.33
0.0
-0.67
7.0
4.0
3.67
0.67
-1.67
3.0
-3.33
5.67
2.67
5.0
7.0
2.33
6.0
-1.33
5.33
6.0
2.33
1.67
-1.67
-1.33
6.0