File: EDX Back Ups and Old Files/Spectra copy 3.3.23/Samples/Low pH SF 25C 14d/11.0.txt
0.0
-40.0
49.67
6.0
-52.67
-17.33
-33.33
14.67
26.33
18.0
-19.0
11.0
-16.33
-9.33
-0.67
2.33
0.33
-4.33
-0.67
-0.33
2.67
-1.0
-0.67
0.0
0.67
-0.67
-1.0
0.0
-0.33
1.0
0.0
0.0
0.0
0.0
1.0
-0.67
0.0
0.0
-0.67
0.67
0.0
-0.33
0.0
-0.67
-0.33
-0.33
-0.67
-0.33
1.67
-0.67
0.0
-1.67
2.0
1.67
-1.0
-1.0
0.0
1.33
1.67
3.0
-2.67
8.33
0.0
2.0
-0.67
2.0
-1.0
3.0
2.33
-0.33
2.33
3.0
3.67
3.33
2.0
10.33
5.0
6.33
4.33
-3.67
2.0
9.33
0.67
6.0
-0.67
5.0
0.67
-0.67
9.67
6.33
2.0
5.67
-3.67
6.67
2.0
-0.67
-1.33
4.33
-1.67
11.33
5.0
0.67
1.33
-0.67
0.67
-4.0
2.33
1.0
-1.33
0.67
2.67
8.67
1.0
4.67
10.0
6.67
8.0
4.33
13.33
4.67
-1.67
6.67
6.67
3.33
3.67
2.33
2.0
1.33
4.67
3.67
5.67
9.33
-1.67
7.0
-2.33
-1.0
2.0
9.0
1.0
-1.0
-1.33
-1.0
5.33
0.67
4.0
-2.67
3.0
-3.67
1.33
-0.33
4.33
0.67
4.33
-3.0
9.67
5.67
-2.67
-4.33
-2.67
-1.33
3.67
4.0
-1.0
4.0
3.67
1.0
-2.33
-3.67
3.67
-5.67
5.0
1.0
1.67
-4.33
1.33
4.67
-0.67
1.67
3.67
-1.33
6.0
-5.33
-2.67
7.33
3.33
-2.0
1.67
9.67
7.0
3.67
-0.67
0.67
1.33
6.33
2.0
6.0
1.0
5.0
1.33
-1.67
3.33
-3.0
0.67
-1.0
1.33
3.67
2.33
-1.0
-3.33
-3.33
0.33
-3.0
6.0
-0.67
2.0
-2.0
-1.33
-1.33
3.0
6.67
-1.67
6.0
8.33
2.67
4.33
4.67
-3.67
-5.0
3.67
4.33
1.33
2.33
-4.33
3.0
1.67
1.0
1.0
-2.67
8.33
2.67
3.67
2.67
5.33
2.67
-0.33
2.33
1.67
-1.0
3.67
-1.33
0.67
1.0
9.33
2.67
0.67
-1.33
1.67
1.67
-3.0
-2.0
-1.33
-4.0
-2.0
0.67
-2.67
-0.33
0.0
0.67
-0.33
5.33
4.33
-3.0
-1.67
1.67
-2.0
2.0
1.67
-1.0
3.33
-1.67
0.0
-4.67
6.67
1.0
-0.67
9.67
-0.33
3.33
3.33
6.33
-1.33
0.0
-0.33
-1.33
0.33
-2.0
5.67
-0.33
0.0
-0.67
0.0
0.67
3.0
2.67
4.0
3.0
2.0
-2.33
3.0
-2.0
4.67
3.0
2.0
4.0
-2.67
3.0
0.0
1.0
7.0
2.33
-1.67
-2.67
-1.33
6.33
1.0
2.0
-0.67
-1.0
-2.0
-1.67
-3.0
-1.33
0.67
4.0
-0.67
-0.67
-2.33
-1.33
-3.67
5.33
2.67
6.33
1.33
-3.0
0.33
1.33
-3.67
7.67
-1.67
2.0
0.33
-1.0
6.0
3.33
-0.67
6.33
8.33
-3.0
7.67
4.0
-0.67
-1.0
3.33
1.33
2.67
3.33
-0.33
-4.33
2.33
0.33
6.33
3.67
4.0
6.0
0.0
5.0
-2.0
4.0
0.67
6.67
3.0
3.33
4.0
1.0
0.33
5.0
3.33
6.0
-1.33
8.33
0.67
6.0
5.0
0.33
5.0
2.67
3.0
4.67
3.33
3.0
2.33
7.67
3.0
0.67
9.67
2.0
14.33
10.0
0.0
-0.67
5.33
10.33
2.0
8.0
-0.33
5.67
6.67
-1.0
14.67
2.0
12.33
-7.0
13.67
4.67
1.33
11.0
6.67
13.67
6.67
10.0
5.33
7.67
6.0
10.33
2.67
6.0
16.33
7.67
19.33
5.0
14.33
13.67
8.67
4.67
7.67
4.0
7.67
6.0
8.33
9.33
7.33
11.0
7.67
15.33
11.33
15.67
12.0
13.33
-2.0
11.33
16.33
17.33
11.0
33.0
30.67
35.67
48.67
42.67
52.67
58.0
54.0
64.67
79.67
79.33
123.33
118.0
85.67
77.0
57.33
30.67
12.33
15.0
19.0
7.67
9.0
20.0
8.33
14.33
24.33
20.0
39.33
39.33
38.67
47.67
42.33
49.33
54.0
55.67
40.67
31.33
35.67
28.33
14.67
22.0
19.0
20.67
19.67
6.0
20.0
12.0
17.67
11.33
23.0
5.67
15.33
25.33
33.33
35.33
21.33
21.0
23.33
22.67
24.67
28.33
32.33
39.67
13.33
38.0
42.0
39.33
60.67
54.67
62.33
84.33
66.67
62.33
57.33
43.33
55.0
51.67
23.0
51.67
51.0
49.0
41.67
46.67
37.0
30.0
21.67
17.33
17.67
17.33
17.67
25.33
19.0
18.0
17.33
2.0
13.0
4.67
4.33
7.0
8.33
11.0
21.67
26.0
7.33
5.67
15.67
5.33
17.33
28.33
19.0
17.0
7.67
23.67
15.67
36.0
23.33
14.0
12.0
6.33
13.0
3.33
23.67
27.33
17.33
46.33
37.67
62.33
67.0
99.67
97.0
89.67
104.0
120.67
130.33
103.67
97.0
101.33
77.67
89.67
70.67
60.0
48.67
54.0
44.0
49.33
26.0
10.67
36.67
26.0
32.0
24.33
36.67
38.0
52.33
47.0
76.33
55.33
61.33
59.67
77.67
51.67
39.33
62.0
45.33
34.67
24.33
27.33
24.0
21.67
32.0
21.0
18.33
4.0
19.67
11.67
18.67
13.0
10.0
8.33
13.0
6.33
15.0
9.67
30.0
20.67
17.67
16.33
20.67
20.33
39.67
10.67
12.67
27.33
21.67
17.33
32.33
33.33
38.33
38.67
30.33
35.0
32.0
34.67
29.0
34.33
34.0
18.33
27.0
24.0
30.67
23.67
32.0
22.0
26.33
27.67
35.67
27.33
46.0
25.0
25.67
39.0
28.0
32.0
31.0
25.67
30.0
9.67
9.33
19.67
0.33
15.67
15.67
16.33
6.67
5.0
7.67
11.33
4.0
6.0
2.0
5.67
5.33
8.0
9.0
-2.67
2.0
1.67
6.33
13.67
6.33
4.67
20.33
11.0
9.67
-0.67
12.67
13.33
1.67
18.33
-4.67
-3.67
8.67
5.33
7.67
15.67
1.0
14.33
8.0
4.67
15.0
13.33
6.67
6.67
6.67
14.0
1.33
12.0
-9.67
0.33
5.67
7.67
10.33
18.67
4.33
14.67
14.67
11.0
6.33
3.0
8.33
17.0
9.33
3.0
5.33
10.33
13.0
14.0
1.0
15.33
-3.0
24.33
9.33
9.67
5.33
11.0
14.33
4.0
1.33
19.0
-6.67
11.33
7.67
4.33
19.0
15.33
-6.33
-2.33
14.0
16.67
23.33
13.67
7.33
8.33
15.0
15.67
11.0
14.33
2.0
12.67
4.67
12.33
14.67
9.33
-3.0
10.0
0.33
10.67
10.0
5.67
0.33
12.67
4.67
10.0
-3.33
18.33
-2.33
18.0
15.33
2.67
13.0
16.67
-10.33
16.0
6.67
3.33
17.67
18.33
7.67
-2.33
12.67
0.0
8.0
13.67
7.67
6.67
9.0
10.0
13.0
12.33
5.33
3.33
1.67
0.0
9.0
6.67
11.67
-4.33
5.33
8.33
3.0
8.67
2.67
3.33
-5.0
-3.0
-4.33
-0.67
11.0
-3.0
4.33
8.0
-11.0
0.33
-5.33
-10.33
-0.33
1.33
10.0
6.0
1.33
-2.67
-1.67
-5.0
7.67
2.33
11.33
9.33
-7.67
2.33
-4.0
14.0
3.0
0.33
5.67
-2.0
-3.0
2.0
7.67
9.0
1.67
0.67
3.67
3.67
1.67
-2.33
-2.33
7.0
-3.67
1.0
3.0
6.0
-3.67
-6.67
5.0
0.0
10.33
7.0
4.67
-1.33
-1.33
1.33
1.33
-0.67
5.67
0.0
0.33
-2.67
4.0
12.67
8.33
7.67
-0.33
7.67
2.0
-1.33
3.67
-7.0
-3.67
5.33
0.67
1.67
6.0
3.33
4.33
6.67
10.67
5.0
1.33
5.67
-4.0
5.67
0.0
0.33
8.0
1.33
0.67
1.67
7.33
-2.0
4.67
3.33
3.0
3.67
5.67
-1.0
-2.33
3.33
1.67
-5.33
4.67
5.67
7.0
1.0
9.33
3.67
4.0
1.33
7.67
4.33
2.33
3.67
0.67
0.0
-4.33
3.33
-0.33
3.0
-3.33
2.67
9.67
7.33
-2.33
-3.67
3.0
2.33
0.33
1.33
4.0
-3.0
1.0
-0.33
-5.67
4.67
-1.0
2.67
4.33
-0.67
-4.33
-1.0
-0.67
3.0
-1.67
-5.67
0.0
8.33
9.0
-1.33
0.67
6.33
-4.0
1.33
1.0
-5.0
0.67
0.67
-2.67
2.0
-1.33
-1.33
3.67
7.0
0.0
-0.67
0.0
-0.33
1.33
2.0
6.33
-0.33
7.33
5.67
2.0