File: EDX Back Ups and Old Files/Spectra copy 3.3.23/Samples/Low pH SF 25C 14d/11.75.txt
0.0
26.0
72.67
-39.0
-10.67
-26.33
-23.33
-2.33
4.33
-58.0
30.0
8.0
9.67
-2.33
-5.67
3.33
2.33
-1.33
1.33
-3.33
2.67
0.0
-0.67
0.0
-0.33
-0.67
-1.0
1.0
-0.33
1.0
1.0
0.0
0.0
-1.0
0.0
-0.67
1.0
0.0
0.33
-0.33
0.0
-0.33
0.0
-0.67
-0.33
-0.33
0.33
0.67
0.67
-1.67
1.0
0.33
0.0
-1.33
1.0
4.0
1.0
-0.67
-2.33
3.0
0.33
2.33
-1.0
1.0
2.33
0.0
0.0
2.0
5.33
4.67
-0.67
3.0
3.67
2.33
1.0
1.33
6.0
4.33
0.33
2.33
5.0
-1.67
2.67
2.0
2.33
2.0
3.67
5.33
8.67
4.33
-1.0
0.67
0.33
2.67
3.0
1.33
0.67
6.33
0.33
0.33
1.0
1.67
4.33
-4.67
5.67
-4.0
1.33
-1.0
-4.33
4.67
1.67
6.67
-1.0
-1.33
0.0
7.67
7.0
0.33
3.33
6.67
0.33
7.67
3.67
-2.67
-0.33
-4.67
4.0
6.33
2.67
3.67
5.67
0.33
0.33
-2.0
-3.33
1.0
-7.0
0.0
7.0
1.0
3.67
-1.0
-2.67
1.67
0.0
0.33
5.0
4.33
-4.67
-2.33
-0.67
2.67
4.33
1.0
7.67
6.67
-6.67
1.67
0.33
-0.33
5.67
0.0
5.0
1.0
0.67
4.0
1.67
1.33
-2.33
-2.67
-2.0
4.0
3.67
0.67
1.33
0.67
1.33
0.67
-4.33
4.67
7.0
-3.33
-1.67
-1.67
6.33
1.0
-2.33
0.67
4.0
5.67
6.33
2.67
-1.67
2.33
3.0
1.0
-2.0
3.0
-1.67
-2.67
-0.67
2.0
-0.33
2.0
-1.67
9.67
0.33
4.0
-1.33
-1.33
2.33
-6.0
-1.0
-1.67
1.0
1.0
-1.33
3.67
-2.0
0.67
-2.67
3.0
0.33
2.67
-2.67
-4.33
-0.67
-1.0
1.67
4.33
-1.67
6.33
-1.33
7.0
5.67
0.0
-2.0
-2.67
6.33
0.67
-2.33
0.67
2.33
4.67
-1.33
2.33
2.67
3.0
1.67
2.67
0.67
5.0
0.33
4.67
1.67
-1.33
1.67
5.67
-5.0
3.0
-0.33
2.0
-1.0
2.67
1.33
4.67
-1.0
1.67
-0.33
3.33
-3.67
-2.0
-3.67
1.67
2.0
3.0
0.67
-2.0
1.33
0.33
-5.0
0.33
4.67
4.0
-0.67
-0.33
2.67
-0.67
-1.67
3.33
0.67
0.0
3.67
-4.33
0.33
0.0
-0.33
3.67
-5.0
-1.67
2.0
3.67
-1.0
-0.33
2.0
2.0
1.0
1.67
1.0
-2.0
0.67
2.0
4.0
1.0
-1.67
7.0
0.0
0.0
1.0
0.33
0.33
2.33
7.67
3.33
2.0
1.0
-0.67
-1.0
2.0
-0.67
-1.0
2.67
-3.33
0.0
3.33
1.33
2.67
5.67
2.33
1.33
1.67
6.33
8.33
0.0
5.33
-0.67
1.33
-2.33
2.33
1.0
-0.67
0.0
0.0
16.33
-2.67
-0.67
3.33
2.0
12.67
4.0
-0.67
-1.0
0.33
7.33
2.67
4.33
9.67
-1.33
-1.67
0.33
7.33
-1.33
3.0
-5.0
-1.0
9.0
1.0
0.0
5.67
2.67
0.0
-0.67
1.0
-7.0
3.33
5.0
7.33
3.0
-0.33
7.33
-3.33
4.0
7.0
3.33
3.0
7.67
6.0
0.67
12.33
3.0
2.33
5.67
-2.0
-3.33
1.67
1.0
7.33
2.0
3.0
1.33
2.33
1.33
0.0
3.0
2.67
10.67
7.67
0.0
-0.33
9.0
7.33
1.0
5.67
7.67
5.33
3.0
3.67
7.67
-0.33
1.0
7.33
5.67
7.0
7.33
4.67
3.0
5.33
2.67
2.33
14.0
9.33
3.67
2.67
4.67
2.67
7.0
6.67
3.0
6.33
1.33
-2.67
9.0
4.67
0.33
13.33
8.67
1.0
8.33
2.0
10.33
3.33
15.33
12.0
22.0
13.67
11.67
23.67
22.67
28.67
38.0
22.0
27.67
39.67
26.33
52.33
53.0
54.67
40.0
30.33
25.67
15.33
12.0
5.0
9.67
11.0
8.0
12.33
13.33
11.33
6.0
23.33
10.33
19.67
16.67
29.33
17.33
12.0
31.67
23.67
17.33
19.67
8.33
24.67
12.0
13.0
26.67
12.67
13.0
11.0
2.0
13.67
18.33
15.0
19.67
20.33
36.33
38.33
28.33
19.33
24.0
36.33
19.67
43.67
38.33
58.33
43.67
57.33
58.0
67.0
58.33
66.67
67.67
36.33
51.33
49.67
45.33
32.33
37.33
29.0
34.67
30.0
35.67
40.0
37.0
34.67
31.67
24.0
31.0
25.67
25.33
17.67
15.33
20.67
12.33
11.0
18.0
20.33
6.0
-2.0
12.67
8.33
10.0
6.33
-3.0
17.67
8.0
3.33
11.67
8.67
8.33
13.33
20.33
17.0
5.0
21.67
12.67
20.67
22.0
33.33
18.0
10.0
22.33
12.0
5.33
9.67
17.33
17.33
28.33
24.67
35.33
56.0
44.67
49.0
72.67
71.0
83.67
87.33
106.67
82.0
68.33
60.67
58.67
69.67
82.0
33.67
40.0
31.0
31.33
8.0
19.67
25.67
31.0
31.0
18.33
32.67
21.0
19.33
39.0
26.33
23.33
44.33
43.67
51.67
59.67
60.33
54.0
57.33
33.67
29.33
29.33
25.0
20.67
14.0
23.0
11.33
15.0
15.67
9.67
16.67
4.0
-2.0
1.33
9.0
3.33
0.0
6.67
11.0
7.67
7.67
6.33
9.67
14.33
17.67
4.67
22.67
24.33
21.67
20.33
30.33
27.33
51.33
39.67
36.33
38.0
36.0
17.67
20.0
29.33
19.0
1.33
22.0
15.0
18.67
27.67
29.0
34.0
23.33
16.67
13.67
13.33
24.0
36.0
19.67
17.0
18.0
25.0
24.0
14.67
24.0
-0.33
12.33
1.67
12.33
11.67
5.67
15.33
11.67
0.0
3.67
14.33
10.0
8.0
3.0
6.67
5.33
2.0
11.0
-0.67
13.0
-0.33
0.33
5.67
3.33
10.67
14.33
1.0
11.67
1.33
-1.33
1.33
2.67
-2.67
1.33
-2.67
1.67
0.33
-2.33
9.67
5.0
-2.67
6.0
1.67
15.0
4.33
0.67
1.67
2.67
-2.0
3.33
-3.0
2.33
5.33
-0.33
6.67
-0.67
-3.33
-7.67
-2.33
8.67
1.0
7.33
-11.0
0.33
4.0
-4.67
15.0
2.33
1.33
14.0
9.0
5.0
4.33
3.0
6.33
10.33
16.67
-4.67
8.0
11.33
0.0
2.33
12.0
5.33
14.33
5.67
11.33
-1.0
-3.67
6.67
18.67
2.0
9.67
18.33
8.67
8.33
1.33
27.0
-1.33
1.0
4.33
-3.0
-1.33
10.67
9.33
7.67
10.33
2.0
-3.0
17.33
11.67
-3.0
1.67
5.33
3.67
2.67
17.0
-7.33
-3.67
-6.33
-2.0
11.33
-1.33
2.0
13.67
-3.33
9.0
4.67
-0.67
-1.33
2.33
1.67
-10.33
11.67
13.0
2.0
7.67
0.67
-0.33
13.0
7.0
13.0
4.33
-0.67
12.33
7.67
2.0
7.0
0.67
-1.33
-6.33
5.33
0.33
0.0
-5.33
-2.33
-1.67
-7.0
3.0
-2.33
-6.67
-1.0
7.0
-1.67
-4.0
-12.0
4.33
3.67
4.67
5.67
2.33
5.0
2.0
16.33
1.33
-4.67
1.0
3.67
3.33
9.33
-1.67
5.33
-3.67
1.0
13.0
-3.0
11.33
-4.33
5.0
-2.0
11.0
6.67
2.0
5.67
-0.33
-1.33
-5.33
7.67
2.67
-4.33
4.0
-2.67
5.0
-2.0
-1.0
-1.67
-3.67
6.0
-4.0
-4.67
0.0
8.67
4.67
3.67
-1.67
-0.67
-3.67
-2.33
3.0
10.33
-0.67
4.0
0.67
6.33
0.67
3.67
2.67
10.0
0.67
3.67
5.0
0.33
-1.67
3.67
0.67
3.0
0.33
2.33
-1.33
7.67
6.0
-2.67
5.67
-3.0
3.67
-3.0
8.33
1.0
4.33
3.67
-0.33
4.33
2.0
10.67
6.33
2.0
2.67
-2.33
-2.0
1.67
2.33
2.67
-3.33
4.67
2.67
4.0
3.0
-0.67
-0.33
9.0
3.33
-1.33
7.33
1.33
1.67
0.67
3.0
1.67
1.33
-1.33
3.0
-0.33
3.67
6.67
3.33
6.67
6.33
-1.0
0.33
4.33
7.33
1.0
3.0
0.0
-1.33
0.33
8.67
8.0
-2.33
-0.67
-1.67
-1.33
2.0
4.33
-1.0
4.33
-0.67
2.0
2.33
-1.0
-0.33
4.67
5.33
-3.0
2.33
3.0
1.0
2.67
-3.33
-2.67
1.0
0.67
2.67
-0.33
2.0
5.0
1.33
3.0
5.67
0.33
4.0
4.33
-3.33
4.33
1.67
4.0