File: EDX Back Ups and Old Files/Spectra copy 3.3.23/Samples/Low pH SF 25C 14d/6.5.txt
0.0
-14.0
24.67
6.0
24.33
-1.33
44.67
43.67
2.33
-10.0
13.0
-1.0
0.67
7.67
13.33
6.33
6.33
-1.33
3.33
-2.33
1.67
-1.0
-0.67
2.0
1.67
-0.67
-1.0
0.0
-0.33
0.0
0.0
0.0
0.0
-1.0
1.0
1.33
0.0
0.0
-0.67
-0.33
0.0
-0.33
0.0
0.33
-0.33
0.67
-0.67
0.67
-0.33
0.33
0.0
1.33
0.0
1.67
3.0
3.0
0.0
0.33
1.67
2.0
-1.67
6.33
0.0
1.0
-0.67
1.0
2.0
8.0
6.33
-3.33
1.33
7.0
3.67
-3.67
6.0
9.33
4.0
5.33
6.33
1.33
13.0
3.33
-0.33
4.0
3.33
-1.0
3.67
1.33
5.67
8.33
10.0
3.67
-1.67
3.67
5.0
-0.67
0.67
5.33
5.33
-0.67
9.0
7.67
9.33
3.33
9.67
-2.0
5.33
4.0
6.67
13.67
0.67
10.67
0.0
4.67
6.0
3.67
6.0
2.33
5.33
3.67
2.33
6.67
3.67
0.33
3.67
6.33
4.0
3.33
0.67
5.67
11.67
7.33
0.33
0.0
2.67
5.0
-5.0
10.0
9.0
10.0
-5.33
1.0
8.33
6.67
6.0
-1.67
6.0
1.33
1.33
10.67
-0.67
8.67
0.33
10.0
4.67
5.67
2.33
2.67
1.33
-0.33
-2.33
2.0
-2.0
4.0
0.67
5.0
-1.33
0.33
7.67
2.33
5.0
9.0
2.67
2.67
5.33
0.67
2.33
1.67
-2.33
4.67
2.0
6.67
0.33
2.33
3.33
2.0
6.67
2.67
5.0
8.67
-1.67
0.67
-1.67
8.33
8.0
3.0
3.0
1.0
4.33
-1.67
5.33
-8.0
0.67
4.0
4.33
3.67
-0.67
1.0
-2.33
2.67
-0.67
4.0
3.0
6.33
3.0
3.0
6.67
0.67
5.0
1.67
-3.67
2.0
7.33
2.67
5.33
5.67
-2.67
-1.0
4.67
4.33
5.33
2.33
-2.33
5.0
4.67
-2.0
-1.0
-1.67
5.33
4.67
2.67
0.67
4.33
2.67
5.67
4.33
2.67
9.0
6.67
1.67
1.67
-1.0
-0.67
8.67
-0.33
-2.33
-0.33
0.67
3.0
8.0
2.67
-2.0
-1.0
7.67
2.33
0.67
0.0
0.67
6.67
4.33
5.33
2.0
2.33
3.67
0.0
0.0
3.67
5.0
9.33
-1.67
1.0
-1.67
-1.33
1.0
0.33
7.67
2.67
0.33
5.33
7.33
0.67
0.0
1.67
-0.33
2.33
0.0
1.67
0.67
5.0
-3.67
4.0
0.67
4.0
6.67
3.0
2.0
4.0
1.67
2.0
0.0
0.67
0.0
2.0
6.0
0.33
3.0
3.0
4.0
3.0
1.33
-2.67
0.33
0.67
3.33
5.0
1.0
3.33
3.0
0.0
-2.67
1.0
-0.33
1.67
-3.0
1.33
-1.67
2.67
2.67
-3.67
5.33
4.67
4.33
0.33
-4.0
0.33
-2.67
-2.67
2.67
4.33
-1.0
2.33
4.0
4.0
4.33
-2.67
-1.67
-0.67
3.0
1.67
1.0
1.33
-3.0
-1.67
5.33
-2.33
1.33
-0.33
-0.33
3.33
2.33
5.33
-1.33
5.0
2.0
2.0
-1.0
0.0
4.0
0.67
2.67
3.0
2.33
-1.0
5.0
-5.67
0.0
-1.67
0.0
-2.33
-0.67
-0.33
2.0
-3.0
-4.67
3.0
0.67
2.0
-2.33
1.33
3.0
9.33
1.67
1.0
-1.33
5.67
5.0
3.33
3.0
-3.0
3.33
-0.67
9.33
-1.0
7.0
1.67
-0.33
7.67
1.0
7.67
2.0
4.33
8.0
11.67
4.67
0.33
-1.0
1.67
9.67
8.67
7.0
7.33
6.67
11.0
8.33
1.67
10.0
14.33
-1.33
3.33
-2.0
7.33
1.67
3.67
6.67
3.67
3.0
1.67
1.0
10.33
9.33
-0.67
3.0
5.67
7.33
9.33
3.67
-2.0
15.33
0.0
11.33
12.33
7.33
3.0
7.0
8.67
24.67
22.67
7.67
10.67
9.0
18.0
5.67
20.67
13.33
3.33
8.0
6.67
15.0
12.33
7.67
14.33
8.0
11.0
7.67
10.0
16.0
13.33
8.33
11.33
14.0
20.33
11.33
15.67
31.67
25.33
21.33
31.0
8.67
14.67
25.33
17.67
16.33
16.67
4.0
7.0
8.67
11.67
6.0
13.0
5.0
8.67
13.33
16.0
2.67
15.33
2.33
13.33
10.33
11.33
21.0
11.33
23.67
33.67
15.33
13.33
23.67
21.33
13.0
25.0
25.33
17.67
26.67
24.33
20.33
16.67
15.33
28.33
21.33
15.0
20.67
21.0
12.67
19.0
22.0
26.67
20.67
20.0
27.0
26.67
8.33
18.67
22.33
25.67
16.33
14.0
9.0
10.33
1.0
6.0
7.67
11.33
18.0
11.33
7.0
22.67
24.0
23.33
16.67
10.67
17.33
25.33
21.33
15.0
13.0
13.67
6.67
17.67
14.0
6.33
22.0
16.0
12.33
14.0
17.33
15.67
7.33
15.33
13.33
27.67
32.33
45.0
71.67
69.0
109.67
112.0
131.67
149.33
133.67
131.0
108.33
90.67
75.67
64.67
49.0
23.67
17.0
22.0
20.33
6.0
5.67
21.67
17.0
19.0
21.33
11.67
18.0
24.33
38.0
37.33
36.33
39.33
38.67
33.67
27.67
43.33
32.0
46.33
27.67
38.33
32.33
27.0
16.67
23.0
16.0
25.33
13.0
13.67
6.67
21.67
15.0
16.0
3.33
17.0
10.33
12.0
5.67
18.0
6.67
9.67
11.33
14.67
9.33
11.67
11.67
22.67
23.33
20.67
30.33
27.33
22.33
32.33
9.67
22.33
21.0
13.0
27.67
38.0
37.33
19.0
3.33
21.0
14.0
6.67
16.67
20.0
17.0
21.33
13.67
33.67
21.33
32.0
22.0
28.67
24.0
26.0
12.0
23.0
16.67
15.0
11.67
5.33
15.67
16.33
18.67
15.67
17.33
14.67
10.0
8.67
15.33
10.0
18.0
3.0
7.67
5.33
17.0
11.0
7.33
8.0
11.67
9.33
7.67
22.33
8.67
12.33
16.0
17.67
-0.67
12.67
1.33
5.67
11.33
10.33
7.33
6.67
10.33
10.67
2.67
7.0
8.33
20.0
5.67
13.0
18.33
13.67
12.67
6.67
12.0
8.33
27.0
6.33
15.33
17.67
8.67
3.33
2.67
0.33
2.67
12.67
1.0
5.33
-10.0
17.33
12.0
7.33
4.0
3.33
4.33
10.0
18.0
14.0
8.33
11.0
5.33
8.33
13.67
8.33
10.0
12.33
-3.0
11.33
13.0
1.33
21.33
8.67
10.33
30.0
8.33
0.67
4.67
6.0
12.67
24.33
11.67
4.33
9.33
8.0
6.67
23.0
16.33
23.0
13.67
5.67
21.33
9.67
19.33
15.0
1.0
33.33
6.67
15.0
16.67
9.33
13.67
-3.33
15.0
-2.33
10.33
5.67
11.0
14.33
10.67
19.0
15.67
6.67
7.0
3.67
10.33
2.67
20.33
7.67
18.67
14.67
4.0
4.0
4.67
5.67
5.67
6.0
0.0
18.0
-1.67
11.33
5.33
5.67
16.0
10.0
9.67
3.67
4.67
9.33
12.33
6.0
1.67
13.67
3.33
9.0
6.0
8.67
0.33
2.0
2.0
4.33
3.0
-6.0
3.33
4.67
-6.33
10.67
3.33
0.0
1.0
12.33
-2.67
1.33
17.0
1.67
0.33
7.33
6.33
-3.67
7.33
5.0
19.0
15.0
16.33
8.67
-4.0
12.0
8.0
6.67
11.0
9.67
5.67
10.67
6.67
10.67
-2.33
-1.33
0.0
2.33
8.0
3.0
-1.0
6.33
-10.67
6.0
5.0
1.33
3.0
13.67
4.67
6.67
8.33
2.33
5.33
2.67
10.0
3.33
5.33
16.0
3.67
7.33
3.67
2.67
3.67
8.0
0.67
14.67
-3.0
-2.67
-4.67
1.67
-1.33
-2.0
3.33
1.33
2.67
5.67
0.0
7.33
-7.33
-3.0
5.67
1.0
7.33
1.0
4.33
5.67
8.67
4.33
6.0
8.67
1.33
-3.0
4.67
0.67
4.0
1.67
-2.67
-0.33
6.67
3.67
2.67
2.0
3.0
-1.67
2.67
11.0
2.33
-0.33
5.33
10.33
-4.33
4.67
-2.0
7.67
2.33
3.67
-1.0
6.67
4.67
0.67
1.33
1.67
4.33
5.0
-1.67
0.33
4.33
-2.0
9.0
0.0
6.67
-4.67
-3.33
7.0
5.67
-0.67
4.33
1.67
1.0
5.33
4.0
5.33
-0.67
12.0
6.33
0.0
0.67
2.67
1.33
4.0
2.33
5.0
6.0
6.67
5.67
1.33
-4.0
3.67
2.67
5.67
5.0
0.0
6.33
-5.0
5.67
3.33
11.0
5.33
-1.33
4.33
0.67
1.0