File: EDX Back Ups and Old Files/Spectra copy 3.3.23/Samples/Low pH SF 25C 14d/7.0.txt
0.0
-17.0
31.67
-140.0
-43.67
-15.33
-21.33
57.67
-32.67
-17.0
10.0
12.0
-4.33
21.67
1.33
0.33
9.33
-4.33
-0.67
-1.33
0.67
0.0
0.33
1.0
-0.33
-0.67
-1.0
0.0
-0.33
0.0
0.0
1.0
0.0
-1.0
0.0
-0.67
1.0
0.0
-0.67
-0.33
1.0
-0.33
1.0
-0.67
-0.33
1.67
0.33
-0.33
-0.33
-0.67
1.0
-1.67
-1.0
0.67
0.0
1.0
1.0
1.33
-0.33
2.0
3.33
2.33
2.0
0.0
5.33
4.0
0.0
0.0
0.33
3.67
1.33
3.0
0.67
2.33
4.0
3.33
0.0
5.33
0.33
-2.67
0.0
3.33
2.67
-3.0
6.33
3.0
4.67
5.33
5.67
14.33
5.0
7.67
10.33
2.67
12.0
6.33
1.67
9.33
2.33
9.33
-1.0
-0.33
6.33
9.33
11.67
-1.0
5.33
0.0
1.67
0.67
-0.33
5.67
8.0
-1.33
12.0
10.67
3.0
0.33
3.33
6.67
4.33
8.67
6.67
5.33
4.67
0.33
8.0
4.33
-4.33
10.67
2.67
-0.67
1.33
7.0
4.67
6.0
6.0
6.0
3.0
9.0
3.67
9.0
0.33
1.67
9.0
5.33
-1.0
1.33
-4.67
-0.33
5.33
7.67
-1.67
7.0
2.67
4.67
-1.67
0.67
-5.67
-0.33
5.67
2.0
3.0
8.0
1.67
-1.0
7.67
7.33
6.67
5.33
6.0
8.0
-0.33
0.67
0.33
6.67
1.33
4.67
0.67
4.67
4.0
-8.33
-1.67
0.33
2.33
1.0
4.67
1.67
4.0
5.67
1.33
2.67
-5.67
7.33
6.0
8.0
1.0
4.0
1.33
0.33
1.33
-6.0
2.67
3.0
-2.67
4.67
10.33
-1.0
0.67
1.67
-3.67
4.0
7.0
4.33
4.0
2.0
-2.33
0.67
2.0
2.67
-2.67
1.0
11.33
2.67
4.33
4.67
-3.67
1.0
0.67
0.33
10.33
2.33
-4.33
6.0
8.67
0.0
-2.0
3.33
6.33
0.67
1.67
4.67
10.33
1.67
-1.33
2.33
3.67
4.0
5.67
3.67
-0.33
5.0
5.33
1.67
0.67
1.67
0.67
5.67
-2.0
0.0
-3.33
2.0
4.0
2.67
2.33
-0.33
1.0
-0.33
2.67
3.33
-0.67
7.0
4.33
0.67
1.0
1.0
-1.33
3.0
-1.67
0.33
1.0
-0.67
-1.33
2.0
3.33
7.67
1.67
-2.67
1.33
7.33
3.67
0.0
1.67
1.67
0.33
-3.0
-1.33
-1.33
3.0
3.33
5.0
9.67
-4.0
2.67
2.0
0.0
-2.0
3.67
0.0
8.0
-0.33
2.0
2.0
2.0
2.33
4.0
1.0
3.0
8.0
1.33
-1.67
0.33
-1.33
1.33
6.0
0.0
1.33
-3.0
0.0
3.33
-1.0
1.67
1.67
2.0
-3.67
-4.67
0.67
4.67
-0.67
-2.67
3.67
1.33
-2.67
2.0
-2.67
-0.67
1.33
-0.33
-0.67
-2.0
4.33
3.0
0.0
4.33
-4.67
5.33
-1.67
4.0
1.67
0.0
-1.67
2.0
0.33
0.33
1.67
-1.67
-1.33
-2.33
11.33
2.33
0.33
3.67
7.0
1.0
1.0
2.0
-1.0
-2.0
1.67
2.67
2.0
1.33
-4.0
0.0
5.33
-4.0
-6.67
4.0
-3.33
5.33
-0.33
5.0
10.0
2.33
5.0
-1.33
8.0
8.67
3.33
3.0
0.33
-3.33
6.0
-0.33
3.67
1.0
8.33
5.0
4.0
1.33
2.33
2.33
-1.0
6.0
-6.33
1.67
10.67
1.0
4.67
2.0
10.33
-3.0
11.67
4.67
-1.67
0.0
2.67
6.67
1.67
6.0
7.33
5.67
4.0
5.33
2.67
6.0
6.33
2.67
7.33
9.0
13.33
14.67
8.67
6.67
5.67
0.0
9.67
3.0
8.33
0.33
2.33
18.0
7.67
-1.67
16.33
12.67
4.0
10.33
6.0
12.33
12.33
5.33
6.0
7.0
4.67
13.67
18.67
7.67
33.67
34.0
40.0
22.67
34.67
28.33
18.33
21.0
12.67
16.0
8.33
6.67
10.33
14.0
-2.0
14.67
1.0
11.0
9.33
12.33
21.33
19.0
27.33
24.33
31.67
29.67
46.33
29.33
18.0
23.67
22.67
11.33
6.67
9.33
8.67
9.0
16.0
11.67
6.67
12.0
19.0
9.0
10.67
8.33
13.0
8.67
16.33
14.33
18.33
14.33
13.33
13.0
12.33
22.67
22.67
13.33
8.33
27.67
30.33
25.0
38.0
27.33
21.67
21.67
37.33
36.33
30.67
33.33
49.33
43.33
38.0
44.67
35.0
25.67
39.0
31.0
35.67
23.67
27.0
19.0
16.67
19.33
16.67
20.33
17.67
9.33
14.0
20.0
7.33
7.0
16.0
11.67
4.33
10.0
7.33
-2.0
18.67
12.0
21.33
5.67
15.67
15.33
12.33
27.33
10.0
8.0
15.67
14.67
14.67
16.0
2.33
10.0
10.0
7.33
18.0
9.33
8.67
12.33
14.33
16.33
24.67
28.33
42.0
43.67
31.0
59.67
52.0
70.67
72.33
76.67
66.0
63.33
47.67
50.67
47.67
54.0
44.67
47.0
56.0
60.33
39.0
61.67
57.67
52.0
52.0
42.33
25.67
38.0
33.33
28.0
25.33
24.33
29.33
45.67
44.67
59.67
52.33
49.0
50.33
60.67
46.33
34.33
42.0
35.67
21.0
24.0
30.33
22.0
10.67
9.67
21.67
11.0
3.0
3.33
17.0
12.33
12.0
2.67
18.0
8.67
10.67
20.33
17.67
6.33
36.67
16.67
25.67
32.33
20.67
24.33
27.33
10.33
21.33
15.67
17.33
28.0
28.0
26.67
29.0
19.33
22.0
23.33
31.0
14.0
10.67
22.67
17.0
26.0
18.33
19.67
30.67
20.33
18.0
20.0
16.67
28.0
12.0
18.0
31.0
11.67
14.0
11.67
9.33
10.67
11.33
4.67
25.67
12.33
9.67
6.0
-4.33
13.33
12.0
27.0
14.0
2.67
-4.67
8.0
8.0
3.33
15.0
22.67
17.33
11.67
10.33
20.67
17.33
9.0
-0.33
3.33
20.67
16.33
0.67
6.33
-1.67
3.33
10.67
7.33
14.67
11.67
14.0
8.33
3.0
6.67
18.0
15.33
4.67
1.67
14.67
13.0
8.33
10.0
-1.67
-0.67
6.67
1.67
4.33
16.67
12.33
2.67
11.67
2.0
18.33
6.0
12.33
1.0
12.33
9.0
6.33
12.33
11.0
15.0
-4.0
20.33
9.0
12.33
7.33
8.67
9.33
6.0
13.33
7.0
19.33
14.0
18.33
18.33
9.67
21.33
12.0
24.33
9.67
17.67
2.0
12.67
16.33
16.67
15.33
18.33
22.0
21.67
13.0
13.33
4.0
27.67
18.67
24.33
28.67
25.33
15.0
27.0
17.33
29.67
10.0
15.67
13.33
21.67
24.67
17.0
12.67
9.33
4.67
9.0
22.33
3.67
5.0
5.67
-3.33
11.0
11.67
3.33
21.67
10.33
9.67
12.67
11.67
7.0
8.0
2.67
13.67
7.67
9.0
12.0
10.0
-3.67
-2.67
6.33
-8.33
8.0
2.0
-2.33
6.67
-1.33
0.33
4.33
7.0
1.67
6.67
0.33
6.0
16.0
2.67
-3.67
3.0
9.0
1.33
-2.0
4.0
3.33
3.67
-6.33
2.67
9.33
6.0
3.0
9.33
4.33
8.33
11.0
7.67
14.33
6.33
6.33
1.33
-2.67
4.0
9.0
9.0
7.33
3.67
-4.0
4.0
5.0
0.67
-3.0
0.67
5.67
-2.33
0.67
5.67
-1.33
-0.33
2.0
1.33
5.0
11.0
-2.0
2.33
6.33
13.0
2.0
4.33
3.0
2.67
2.67
9.67
-2.67
6.33
9.33
2.67
10.0
-0.67
-2.67
13.0
0.67
3.33
3.67
1.67
2.67
12.0
0.67
8.67
5.0
9.33
2.33
5.67
0.67
-1.0
-1.67
10.33
6.67
10.67
-3.0
4.33
3.67
1.0
12.67
-1.0
2.33
5.0
0.33
6.67
10.67
-1.67
0.0
7.67
13.33
2.0
0.67
4.67
3.0
3.67
4.33
0.67
-7.33
5.67
4.67
1.0
4.0
3.33
7.67
-1.0
5.33
9.67
5.33
11.33
4.67
6.67
4.0
6.67
6.33
1.67
5.0
3.67
4.67
4.67
5.33
7.67
5.33
6.0
6.33
2.33
6.33
1.0
3.0
3.0
-1.33
1.33
6.67
-2.0
4.67
-0.67
2.33
5.67
7.0
2.33
4.0
0.33
-1.67
5.0
4.33
7.0
1.67
11.67
-1.67
3.0
2.33
1.0
-4.0
2.67
3.67
9.33
0.0
3.67
5.67
0.67
10.0
3.0
1.33
-5.0
7.67
3.33
10.0
3.33
3.67
0.33
-2.33
1.0