File: EDX Back Ups and Old Files/Spectra copy 3.3.23/Samples/Low pH SF 25C 14d/7.25.txt
0.0
-76.0
55.67
-69.0
-8.67
-0.33
-48.33
-18.33
32.33
-59.0
19.0
46.0
-9.33
3.67
-1.67
6.33
5.33
-0.33
5.33
-1.33
-0.33
0.0
0.33
0.0
0.67
-0.67
0.0
0.0
-0.33
0.0
0.0
0.0
0.0
-1.0
2.0
0.33
0.0
0.0
0.33
-0.33
2.0
-0.33
1.0
0.33
0.67
-0.33
1.33
1.67
-0.33
0.33
0.0
0.33
3.0
-0.33
0.0
3.0
1.0
3.33
1.67
1.0
1.33
1.33
2.0
-2.0
3.33
3.0
-1.0
4.0
3.33
-1.33
-2.67
14.0
5.67
3.33
3.0
1.33
8.0
8.33
-1.67
-2.67
6.0
3.33
3.67
3.0
-0.67
2.0
-3.33
3.33
9.67
4.33
10.0
4.67
5.33
4.67
7.0
1.33
-0.33
7.33
8.33
8.33
-2.0
8.67
4.33
4.33
9.67
0.0
4.33
-1.0
1.67
7.67
5.67
6.67
3.0
1.67
4.0
6.67
3.0
3.33
7.33
6.67
0.33
2.67
8.67
7.33
1.67
-3.67
4.0
2.33
1.67
2.67
8.67
1.33
-1.67
-2.0
-0.33
-3.0
0.0
14.0
1.0
1.0
1.67
4.0
0.33
5.67
9.0
2.33
3.0
2.33
-0.67
7.67
5.33
5.67
1.33
-1.0
3.67
3.67
3.33
0.67
-0.67
3.67
1.67
2.0
6.0
-2.0
0.67
3.0
-2.33
4.33
9.67
8.33
9.0
10.0
-4.33
5.67
6.33
-0.33
11.33
0.67
0.67
4.67
2.0
3.67
-1.67
11.33
2.33
0.0
2.67
2.67
1.0
0.67
0.33
5.67
-1.67
1.33
0.0
3.0
6.0
0.0
6.33
-0.67
-1.67
-2.0
-1.33
-3.0
3.33
2.67
0.33
-2.0
2.67
1.67
6.33
8.0
1.0
5.33
4.0
1.0
5.67
-2.33
5.0
0.67
3.33
1.0
4.33
1.67
5.33
1.67
-2.67
-1.0
9.67
9.33
7.33
2.33
2.67
0.0
0.67
-4.0
0.0
2.33
9.33
1.67
6.67
3.67
3.33
1.67
-2.33
11.33
-1.33
1.0
-0.33
-2.33
-3.33
3.0
2.33
0.67
-1.33
2.67
2.67
0.67
1.0
1.0
-0.33
1.0
3.0
-0.33
1.33
-2.33
-2.0
-1.33
-2.33
-1.67
0.33
2.0
0.33
-1.33
4.0
0.0
-0.33
-1.0
0.33
2.33
-1.0
-0.67
-1.33
-1.0
-2.67
0.67
0.67
-0.67
0.33
0.33
-3.33
1.0
-0.33
-1.33
0.33
-1.0
3.67
-4.33
-1.0
-0.67
2.0
1.67
1.0
3.67
1.0
4.0
0.0
2.67
-2.0
4.0
2.67
2.0
6.0
-1.0
1.33
7.0
0.0
3.0
2.0
0.33
-1.67
2.33
0.67
0.33
6.0
3.0
0.33
-1.0
4.0
2.33
0.0
1.67
-0.33
1.0
4.33
-1.67
3.67
1.67
1.33
-2.67
0.67
6.33
4.33
-2.0
1.33
-1.67
2.33
1.67
-2.67
-1.0
6.33
3.0
4.0
5.33
-3.67
0.33
-2.67
-2.0
-0.33
7.0
-1.67
5.0
-2.67
1.33
-0.33
4.33
6.67
-2.33
1.33
0.33
3.33
0.67
2.0
0.0
2.0
1.0
0.0
6.0
6.67
4.67
-2.0
1.33
2.0
2.0
3.33
3.0
-1.67
4.0
-1.33
6.33
-5.33
1.0
4.0
3.33
1.0
1.67
2.0
2.67
6.33
2.0
-4.67
4.67
9.0
-1.33
1.67
2.0
6.33
2.0
-2.0
3.33
3.33
7.33
-1.0
5.0
1.67
7.67
5.67
-5.0
4.67
3.0
6.33
-1.0
7.67
-0.33
0.33
3.0
-1.33
7.67
1.67
10.0
8.33
5.67
6.0
11.33
1.67
12.0
12.33
-1.33
2.33
3.0
3.33
9.67
0.67
3.67
15.67
2.0
1.67
0.0
5.33
0.33
3.33
8.0
7.67
4.33
11.33
5.67
4.0
7.33
1.0
13.33
7.33
6.33
12.0
8.0
13.67
19.67
14.67
4.67
24.67
27.0
7.0
23.67
28.67
16.33
10.33
19.0
11.67
10.0
-0.67
15.67
11.33
9.0
3.0
6.67
10.0
10.0
6.33
19.33
25.33
15.0
22.33
22.33
9.67
28.67
26.33
39.33
25.0
25.67
11.67
17.33
8.67
6.33
7.67
15.0
16.0
14.67
11.67
9.0
17.0
10.0
17.67
10.33
13.0
10.67
13.33
10.33
9.33
20.33
14.33
20.0
26.33
25.67
22.67
17.33
13.33
16.67
27.33
24.0
40.0
50.33
53.67
37.67
55.33
48.33
51.67
43.33
51.33
59.33
27.0
42.67
36.0
48.67
37.0
31.0
28.67
21.67
15.0
23.0
30.67
18.33
18.67
17.33
16.67
7.33
17.0
8.0
12.33
0.0
6.0
8.67
15.33
11.0
7.33
6.0
6.67
12.0
9.33
9.67
8.67
13.33
10.33
22.33
9.0
17.0
24.67
3.67
5.67
6.0
16.33
24.0
6.0
16.33
8.0
9.33
10.67
11.33
13.33
12.33
6.67
24.33
15.0
60.67
47.0
53.67
66.0
58.67
64.33
67.67
60.0
65.33
63.67
64.67
51.67
67.0
58.67
55.0
66.0
58.33
51.0
73.67
75.67
80.0
76.0
55.33
37.67
52.0
52.33
40.0
59.33
50.33
46.33
53.67
56.67
57.67
67.33
48.0
42.33
33.67
44.33
32.33
42.0
31.67
21.0
26.0
20.33
10.0
2.67
9.67
16.67
16.0
0.0
5.33
8.0
18.33
19.0
4.67
23.0
13.67
14.67
10.33
14.67
7.33
15.67
12.67
20.67
19.33
14.67
17.33
27.33
17.33
37.33
36.67
21.33
35.0
24.0
25.67
37.0
40.33
22.0
18.33
32.0
16.0
19.67
23.67
22.0
17.0
22.33
15.67
14.67
19.33
23.0
12.0
3.67
24.0
25.0
13.0
29.0
19.67
12.0
7.67
13.33
6.67
16.33
9.67
16.67
11.33
18.67
9.0
-0.33
14.33
11.0
16.0
11.0
11.67
6.33
3.0
13.0
18.33
25.0
8.67
9.33
17.67
4.33
10.67
6.33
19.0
13.67
9.33
11.67
7.33
-1.33
16.33
6.33
11.33
12.67
14.33
11.67
14.67
11.0
14.33
8.0
1.67
19.0
11.33
13.67
20.67
6.67
7.0
7.33
12.0
7.33
1.33
1.67
4.67
8.33
-9.33
13.33
3.67
16.67
4.0
5.33
16.0
-0.67
8.0
4.33
8.0
5.33
-1.67
25.0
34.0
12.0
20.33
9.0
18.33
17.33
13.67
16.33
10.0
16.33
11.0
6.33
14.0
4.33
16.33
2.67
8.33
7.0
6.33
0.67
10.67
10.0
13.67
18.33
11.67
15.33
13.33
27.0
8.67
9.0
8.33
-7.0
22.67
21.67
1.33
24.67
9.33
2.0
0.0
5.33
4.67
-3.0
3.67
9.33
10.67
3.67
5.0
4.67
13.33
11.67
21.0
12.33
2.67
10.0
15.67
6.67
8.0
13.67
-7.67
7.67
4.33
-0.33
8.67
-2.33
-3.0
7.0
5.67
11.67
18.67
13.0
6.0
6.0
5.33
13.33
9.33
3.67
-2.0
7.0
-0.33
13.67
9.67
7.33
6.33
2.0
9.67
-5.33
3.33
3.0
3.0
1.67
0.33
4.0
4.0
2.33
-5.0
-9.0
7.33
-3.33
-4.33
2.67
1.33
-6.0
-7.0
7.33
4.33
-7.67
-4.0
11.67
7.33
10.33
3.33
2.33
8.33
1.0
13.0
9.0
7.33
3.67
0.0
18.0
7.0
2.67
10.0
2.67
2.67
9.67
-0.33
0.67
-6.33
-6.33
4.0
-10.67
-2.0
-5.0
12.0
2.33
1.33
6.0
1.0
0.33
4.0
6.67
4.67
4.67
2.33
2.33
2.33
-2.33
3.0
8.33
6.33
13.0
6.67
7.33
2.67
-6.33
2.67
9.0
4.67
8.67
3.0
0.33
-0.67
8.67
-3.33
7.0
-1.67
1.33
2.67
0.67
-6.0
-2.67
-3.33
2.0
2.67
7.0
-0.67
5.0
4.33
6.67
6.67
17.33
0.0
6.67
10.33
4.0
-3.33
10.67
7.0
-0.33
7.33
0.67
0.67
1.67
-2.33
1.0
5.0
5.33
4.67
4.0
-0.67
-1.33
3.33
0.33
1.67
4.67
8.0
-1.33
8.33
-3.33
-1.0
-4.33
3.67
-1.33
-4.67
5.67
2.33
4.0
-0.67
2.33
2.33
4.0
8.0
5.0
1.67
6.33
3.67
4.0
0.67
-1.67
-1.67
3.67
5.0
3.33
6.0
-1.67
-4.67
2.0
9.33
5.0
-0.33
6.67
1.33
1.0
-0.67
4.0
6.0
-1.33
-6.33
5.33
0.0
-1.33
1.67
5.67
8.0
8.0
0.33
0.0
-3.33
-2.67
5.0
4.33
0.67
3.33
3.67
7.0