File: EDX Back Ups and Old Files/Spectra copy 3.3.23/Samples/Low pH SF 25C 14d/7.5.txt
0.0
-24.0
21.67
-64.0
-5.67
-32.33
-60.33
-11.33
-65.67
-35.0
18.0
-17.0
-1.33
-7.33
-5.67
-1.67
-0.67
-6.33
0.33
1.67
-0.33
1.0
0.33
1.0
0.67
-0.67
0.0
1.0
0.67
2.0
1.0
1.0
0.0
-1.0
0.0
0.33
0.0
2.0
1.33
-0.33
1.0
-0.33
0.0
-0.67
-0.33
0.67
0.33
1.67
0.67
0.33
0.0
0.33
-2.0
-0.33
-1.0
-1.0
-1.0
-1.67
2.67
-1.0
1.33
5.33
-1.0
-2.0
0.33
3.0
0.0
2.0
1.33
2.67
-1.67
1.0
1.67
1.33
-1.0
5.33
2.0
5.33
5.33
0.33
0.0
5.33
1.67
3.0
-0.67
6.0
2.67
4.33
3.67
3.33
1.0
-0.33
2.33
5.67
6.0
2.33
0.67
7.33
3.33
1.33
3.0
-0.33
4.33
0.33
6.67
1.0
7.33
-5.0
-1.33
12.67
-0.33
7.67
8.0
1.67
11.0
3.67
2.0
5.33
11.33
14.67
1.33
2.67
4.67
3.33
-0.33
-0.67
4.0
6.33
-0.33
3.67
7.67
-0.67
9.33
-3.0
5.67
6.0
7.0
8.0
0.0
3.0
1.67
3.0
2.33
2.67
4.0
-4.67
5.0
1.33
-0.67
12.67
-1.67
-2.33
6.33
-9.0
-1.33
10.67
-1.67
2.67
-2.67
-2.33
8.67
5.0
3.0
6.0
-0.33
5.0
4.67
4.33
6.67
0.33
-2.0
4.0
2.67
-0.33
4.33
-2.33
1.33
2.67
-3.33
3.67
6.0
-1.33
0.33
6.33
5.33
3.0
0.67
1.67
3.0
7.67
6.33
9.67
-1.67
2.33
1.0
2.0
3.0
0.0
0.33
-4.67
-3.67
1.0
5.67
-2.0
6.33
2.67
6.33
-2.0
4.67
-1.33
1.33
0.0
10.0
3.33
-2.0
4.0
6.67
-2.33
5.0
4.67
2.33
2.0
0.33
0.67
3.33
4.67
-2.67
-2.0
-1.33
0.33
5.33
2.33
-0.33
1.0
2.67
-4.0
1.0
-2.67
3.33
5.67
2.67
0.67
0.33
0.67
1.67
-0.67
7.67
3.0
0.67
-1.33
-3.33
4.0
7.33
3.67
-1.33
-1.33
3.67
4.67
0.0
-4.0
-1.33
-1.0
-2.0
1.67
1.33
0.67
1.0
-1.33
-0.33
3.33
-1.67
1.0
3.33
0.67
-1.0
2.0
3.67
-1.0
0.33
-2.67
-1.0
-4.67
1.67
-1.0
-1.67
1.67
2.67
1.33
3.33
2.33
0.67
-2.0
1.67
0.67
3.33
-1.0
0.67
-4.33
2.0
-1.67
1.0
2.67
-1.0
3.67
4.0
3.0
2.0
-0.33
0.0
3.0
4.67
3.0
0.0
0.0
6.33
4.0
3.0
8.0
1.0
-1.67
2.33
6.33
3.67
9.33
1.0
6.0
2.33
4.0
0.0
4.33
3.0
-2.33
1.67
1.0
-0.67
-1.67
1.67
2.67
-4.67
0.33
2.67
1.33
0.33
0.0
2.33
0.33
2.33
2.67
2.33
0.0
0.33
0.0
5.0
3.33
-1.67
1.33
2.33
1.0
5.67
3.0
-4.67
0.0
0.33
-2.67
-2.33
-0.67
0.67
-1.33
3.33
-0.67
-2.67
2.67
2.0
-1.0
-1.0
-1.0
-5.0
0.0
2.67
4.67
-2.0
5.33
0.0
-1.0
-2.67
-3.0
-0.67
-3.0
3.67
6.33
-4.33
0.0
-2.0
4.33
4.0
5.67
5.0
1.67
-0.67
2.0
3.33
3.67
-1.0
1.67
7.67
2.0
2.33
5.0
4.0
8.33
7.33
0.33
4.0
3.0
7.67
5.67
8.67
2.0
3.67
2.0
4.33
1.0
7.67
6.67
-0.67
5.0
5.67
7.67
0.67
12.0
7.33
6.67
5.0
-1.67
4.67
3.0
5.33
-4.33
5.33
7.0
15.33
4.67
6.67
10.67
2.67
-4.0
4.67
6.0
7.33
11.33
5.33
0.0
6.67
8.33
9.33
12.67
1.0
3.33
2.0
7.33
8.33
3.33
7.0
13.0
18.67
10.67
12.67
16.67
15.67
24.0
13.0
12.67
17.67
14.33
15.33
22.0
11.67
3.0
7.33
6.67
7.33
4.0
2.0
8.67
14.0
3.0
8.33
6.33
8.33
26.0
16.33
23.33
23.67
37.67
32.33
29.33
31.0
33.67
15.67
13.33
16.67
14.33
5.67
12.0
7.0
9.67
10.67
4.0
14.0
4.0
6.67
25.33
17.0
18.67
17.33
10.33
18.33
3.33
23.33
18.0
22.33
20.67
38.67
31.33
48.33
49.67
47.33
56.0
53.0
49.33
37.67
39.67
37.33
55.33
42.67
49.33
51.33
49.33
39.0
38.67
31.0
36.67
45.0
36.0
25.67
19.67
30.0
28.0
28.67
14.33
18.67
12.33
17.67
6.33
12.0
12.0
14.33
6.0
7.0
16.67
9.33
5.0
9.33
4.0
13.67
11.0
11.33
6.67
8.67
15.33
15.33
10.33
20.0
23.0
16.67
13.67
13.67
7.0
5.33
16.0
17.0
20.33
9.0
8.33
12.67
11.33
13.33
25.33
14.67
35.33
36.0
62.67
55.0
74.67
84.0
92.67
126.33
105.67
130.0
113.33
138.67
140.67
129.67
104.0
91.67
74.0
63.0
55.33
53.0
57.67
65.67
84.0
92.0
90.33
77.67
58.0
63.33
58.0
58.33
55.33
71.33
74.67
106.67
95.67
85.33
101.0
79.33
58.67
54.33
47.33
40.0
25.67
21.0
25.0
24.33
11.0
12.67
3.67
2.67
12.0
10.0
4.33
12.0
10.33
20.0
1.67
15.0
24.67
13.67
4.33
13.67
13.33
19.67
12.67
5.67
13.33
28.67
20.33
16.33
23.33
31.33
15.67
27.33
50.0
21.0
26.67
33.0
25.33
38.0
27.33
14.0
24.0
18.67
10.67
4.0
20.0
7.33
15.67
25.67
22.33
35.0
24.0
10.67
34.0
17.0
6.0
18.0
16.67
12.0
6.67
12.33
4.67
17.33
7.67
8.67
14.33
6.67
15.0
11.67
11.33
15.0
7.0
10.0
8.67
12.33
14.0
2.0
-4.67
8.0
-2.33
1.33
10.67
10.33
13.67
11.33
3.0
3.67
1.33
15.67
7.33
5.67
14.33
9.33
1.33
3.67
2.33
14.67
10.67
10.0
7.33
14.0
7.67
19.0
0.33
10.67
16.67
9.67
7.0
7.33
7.0
8.33
8.33
2.67
8.67
0.33
6.67
13.33
12.67
14.67
21.0
14.33
-8.0
24.33
19.0
3.33
0.0
10.33
-4.67
10.0
14.0
6.0
8.33
12.0
15.33
11.33
14.67
4.33
13.0
12.33
22.0
-2.67
12.0
19.33
15.33
1.67
16.33
17.0
10.33
-2.33
2.67
10.0
12.67
20.33
22.67
13.33
13.33
16.0
16.67
-1.0
8.33
13.0
10.67
6.67
4.33
11.67
15.33
12.0
3.0
9.33
11.67
21.0
18.67
6.33
8.67
7.67
9.0
-6.33
12.33
8.67
8.0
10.33
-1.33
8.0
16.67
-7.33
8.0
14.67
0.33
12.67
5.33
-1.33
11.67
5.67
13.0
-4.0
7.67
3.67
3.67
9.0
1.0
5.0
14.33
8.33
2.33
-0.33
3.0
15.0
-0.33
4.67
10.67
-1.67
9.33
1.0
0.67
11.67
-3.67
-1.0
1.0
6.67
10.33
0.0
8.0
-5.67
-1.0
-3.0
15.33
-5.33
-4.33
8.67
8.33
8.0
-3.0
5.33
-3.67
4.33
1.0
9.67
7.33
9.33
5.33
11.33
4.33
2.0
13.0
0.0
3.33
3.67
2.0
8.0
6.0
7.67
10.0
3.67
3.67
4.67
-2.33
7.67
0.67
-4.33
4.0
10.33
-10.0
-4.0
7.0
5.33
3.33
10.0
-2.0
7.33
5.0
0.67
5.67
8.67
-0.67
1.33
-5.67
2.67
9.0
11.33
9.33
11.0
2.67
6.33
5.67
5.67
2.67
7.0
-0.33
1.67
-1.0
-1.67
3.33
7.67
2.67
1.0
4.33
3.33
6.67
7.67
0.0
0.33
5.67
1.0
-0.33
8.0
-2.67
3.0
3.33
3.67
5.67
5.33
5.0
2.67
9.33
4.0
2.67
-0.33
1.0
-2.33
3.33
-0.33
-1.33
10.67
0.67
2.0
6.0
3.33
2.67
0.0
2.33
0.67
5.33
0.33
0.67
4.67
0.0
2.67
0.33
-1.33
3.0
5.67
-4.33
4.67
4.33
4.67
2.33
8.0
0.33
0.33
-1.67
4.0
-1.0
0.0
1.67
-6.67
2.67
2.0
-2.33
-0.67
-0.67
5.67
-2.0
4.33
1.0
6.33
-3.67
-2.0
-0.67
-2.0
3.67
7.67
6.33
-2.0
3.33
1.0
0.0
2.67
-4.33
-3.67
0.0
-4.33
2.67
2.67
4.0
0.0
2.33
-1.0
8.67
4.33
9.0
-0.67
-3.33
2.33
2.67
-3.0