File: EDX Back Ups and Old Files/Spectra copy 3.3.23/Samples/Low pH SF 25C 14d/9.0.txt
0.0
-14.0
105.67
-27.0
-6.67
23.67
-47.33
17.67
-48.67
-5.0
30.0
31.0
-6.33
2.67
-7.67
-11.67
4.33
-8.33
-2.67
-2.33
0.67
-1.0
-0.67
0.0
-0.33
1.33
-1.0
1.0
-0.33
0.0
0.0
0.0
0.0
0.0
0.0
-0.67
0.0
0.0
-0.67
-0.33
1.0
0.67
1.0
-0.67
1.67
-0.33
1.33
1.67
0.67
1.33
1.0
-1.67
-1.0
0.67
0.0
1.0
0.0
-1.67
1.67
2.0
-1.67
-0.67
-1.0
2.0
1.33
1.0
-1.0
-1.0
5.33
-4.33
5.33
5.0
3.67
0.33
7.0
6.33
5.0
9.33
-1.67
3.33
3.0
6.33
9.67
3.0
3.33
6.0
-1.33
4.33
0.67
0.33
4.0
1.67
7.33
8.67
8.0
4.33
1.67
7.33
5.33
6.33
3.0
5.67
4.33
1.33
9.67
2.0
2.33
-2.0
-0.33
4.67
1.67
6.67
5.0
6.67
12.0
1.67
9.0
1.33
8.33
4.67
-4.67
2.67
6.67
3.33
1.67
5.33
4.0
3.33
3.67
8.67
1.67
0.33
0.33
5.0
4.67
2.0
-1.0
2.0
3.0
7.0
3.67
-1.0
0.33
3.67
2.0
-1.67
6.0
4.33
-4.67
2.67
6.33
1.67
4.33
-1.0
0.67
3.67
-0.67
5.67
-0.67
5.67
1.67
5.0
3.0
5.0
7.67
-2.0
6.67
11.33
6.67
0.33
10.0
12.0
-1.33
-1.33
2.33
1.67
1.33
11.67
2.67
3.67
4.0
-3.33
9.33
-1.67
1.33
1.0
3.67
6.67
6.0
2.67
-1.67
7.67
-4.67
5.33
5.0
2.0
7.0
3.0
2.33
0.33
-0.67
-3.0
3.67
7.0
2.33
-2.33
7.33
6.0
5.67
3.67
1.33
-1.0
8.0
5.33
-5.0
-2.0
2.67
2.67
4.0
1.67
-0.67
0.0
4.33
0.67
4.33
5.67
-2.67
-2.0
1.67
1.33
3.33
1.33
-4.33
0.0
-0.33
0.0
0.0
-3.67
8.33
2.67
1.67
-0.33
1.33
2.67
3.67
2.33
2.67
4.0
1.67
2.67
2.67
2.0
12.33
-0.33
-1.33
-2.33
5.67
3.67
-1.0
-1.0
-2.33
2.0
3.0
-0.33
0.33
4.67
-1.0
-2.33
5.67
2.33
-0.67
1.0
5.33
0.67
4.0
0.0
0.67
4.0
-1.67
4.33
2.0
-2.67
-1.33
3.0
-0.67
4.67
-2.33
5.33
0.33
2.33
2.67
5.0
-1.33
-1.33
2.33
1.0
-2.33
0.67
5.0
-4.67
1.0
2.67
2.0
7.67
2.0
2.0
1.0
-4.33
-3.0
3.0
-1.33
3.0
0.0
5.0
7.33
5.0
5.0
2.0
6.0
-3.67
3.33
2.33
7.67
1.33
1.0
2.0
0.33
0.0
-1.0
-1.67
3.0
-0.33
1.67
-1.0
2.33
2.33
4.67
-0.33
-2.67
0.33
4.67
1.33
-0.67
-3.0
3.33
-2.67
-1.67
-0.33
-0.67
-2.0
-0.67
7.0
4.0
6.33
-3.67
-0.67
5.33
-2.0
4.67
2.0
6.33
-3.0
-0.67
2.33
-3.33
6.33
-0.33
3.67
3.33
3.33
1.33
-2.33
1.0
2.0
1.0
1.0
-3.0
-1.0
4.67
0.67
4.0
5.33
4.0
-4.0
9.33
-2.0
4.33
3.0
2.67
8.33
2.67
6.0
-2.0
-1.67
6.0
3.67
5.0
-1.33
0.33
1.0
-1.67
-1.33
4.0
2.67
4.67
6.0
3.33
7.0
-8.0
3.33
2.33
4.33
-5.0
3.0
-1.33
3.67
5.67
7.0
10.67
7.0
4.33
-2.0
7.67
4.67
4.33
1.0
1.67
7.67
12.67
11.0
10.33
13.67
1.0
6.33
4.67
7.0
10.33
-4.33
12.33
8.0
11.33
8.67
3.67
10.67
6.67
-4.0
10.67
6.0
7.33
10.33
7.33
5.0
8.67
3.33
7.33
5.67
2.0
9.33
10.0
6.33
6.33
14.33
8.0
22.0
25.67
20.67
16.67
8.67
34.67
34.0
34.0
43.67
38.67
46.33
43.33
33.0
28.67
29.0
18.33
20.67
15.33
17.0
4.0
11.67
9.0
15.0
17.33
11.33
15.33
29.0
31.33
41.33
39.67
58.67
60.33
46.33
36.0
36.67
30.67
9.33
22.67
19.33
16.67
12.0
27.0
24.67
15.67
18.0
22.0
12.0
22.67
10.33
27.0
32.67
27.33
16.33
26.33
18.33
13.33
22.0
12.33
19.67
14.67
10.33
11.33
22.67
6.33
24.0
21.0
19.33
32.67
39.67
24.33
42.33
30.67
33.33
30.33
32.33
25.0
17.67
23.0
22.67
14.0
14.0
17.67
26.67
7.0
16.0
12.67
7.33
11.67
16.33
18.67
12.33
14.0
13.0
8.33
2.0
5.0
10.67
11.33
14.0
8.33
2.0
11.67
13.0
16.33
19.67
8.67
9.33
8.33
21.33
10.0
21.0
21.67
12.67
15.67
15.0
12.33
12.0
14.0
1.33
20.0
14.33
29.67
10.33
12.33
23.33
30.67
37.33
34.0
67.67
65.0
87.67
104.0
108.67
87.33
94.67
68.0
59.33
65.67
33.67
42.67
33.0
29.67
25.0
29.0
20.33
18.0
13.67
35.67
26.0
15.0
16.33
26.67
41.0
31.33
22.0
35.33
38.33
28.33
37.67
39.67
43.67
31.33
45.0
32.33
42.67
33.33
30.33
21.0
21.67
19.0
16.0
27.33
14.0
16.67
8.67
15.67
15.0
12.0
17.33
14.0
9.33
19.0
5.67
14.0
21.67
14.67
10.33
12.67
9.33
18.67
21.67
18.67
13.33
19.67
27.33
24.33
44.33
26.33
27.67
26.33
37.0
32.0
31.67
25.0
24.33
21.0
18.33
25.0
23.0
14.67
2.67
23.0
9.0
24.33
22.67
18.67
25.33
17.0
18.0
6.67
29.0
17.0
12.0
12.0
16.67
16.0
7.67
11.33
11.67
11.33
17.67
7.67
12.33
12.67
16.0
6.67
15.33
12.0
9.0
0.0
2.67
9.33
11.0
18.0
3.33
10.0
8.67
10.33
7.67
1.33
7.67
9.33
11.0
19.67
4.33
28.67
1.33
16.67
12.33
1.33
11.33
7.67
5.33
7.67
7.67
4.0
17.33
12.0
-1.33
22.0
15.33
-5.33
12.67
-7.33
3.0
4.33
4.0
22.33
18.33
6.67
5.67
0.33
8.67
3.33
-3.33
20.67
13.0
12.33
-5.0
4.33
4.0
8.33
3.0
0.33
-0.67
15.0
13.0
9.0
20.33
9.0
13.33
11.33
19.67
14.33
11.0
28.33
18.0
30.33
23.0
10.33
27.33
22.67
17.33
14.0
19.33
-5.33
1.67
0.0
20.67
27.33
9.67
7.33
-5.67
22.0
22.67
25.0
10.33
23.0
7.67
23.67
0.33
15.67
27.33
4.0
9.0
10.33
10.67
20.0
8.67
8.33
17.67
0.67
15.0
-0.33
1.33
5.67
7.0
7.33
2.67
10.0
17.67
-0.33
25.0
8.67
6.33
-0.33
14.33
10.67
1.67
13.67
7.0
3.0
19.67
9.67
8.67
12.0
11.0
7.0
6.33
3.33
0.33
0.67
7.0
6.0
2.67
-0.33
-1.33
7.33
10.33
5.0
2.67
11.67
7.33
-2.0
6.0
4.67
-2.67
0.0
9.0
10.33
3.0
-4.0
0.33
-5.33
-8.33
1.67
5.33
4.0
8.0
9.33
1.33
0.33
2.0
7.67
10.33
-0.67
9.33
7.33
-1.67
-3.0
6.0
1.0
3.33
7.67
-1.0
3.0
-2.0
8.67
7.0
1.67
-1.33
-1.33
-5.33
2.67
-9.33
-0.33
5.0
-5.67
2.0
1.0
8.0
-0.67
0.33
1.0
-1.0
6.33
1.0
0.67
2.67
-1.33
1.33
-1.67
4.33
-1.33
6.0
1.33
4.33
5.0
-2.33
5.33
12.67
-0.33
3.67
2.0
-2.33
6.67
-4.0
-6.67
-5.67
6.67
3.67
7.0
9.33
6.33
0.67
2.67
0.0
3.33
-0.33
-1.0
0.67
-3.0
12.33
1.0
2.33
2.67
8.67
7.33
-1.0
7.67
6.33
7.0
2.67
0.67
6.0
2.67
1.33
8.67
-0.33
3.67
-5.33
-4.0
7.0
3.33
3.67
9.0
5.33
1.67
7.33
-2.67
5.67
4.67
0.0
0.67
-0.67
-3.33
2.0
-0.33
-1.33
-2.33
6.33
4.67
0.33
9.0
-1.67
9.33
1.33
6.0
6.0
2.0
9.67
-1.67
4.67
2.0
7.67
0.33
-1.67
3.67
6.0
1.33
0.0
1.33
4.33
0.0
6.33
6.0
8.67
3.67
7.33
-3.0
5.33
0.0
-2.0
0.67
-2.33
4.33
8.0
1.67
9.67
0.67
12.0
1.0
1.33
2.0
2.67
-0.67
7.0
5.33
-0.33
1.33
3.67
3.0