File: EDX Back Ups and Old Files/Spectra copy 3.3.23/Samples/High pH SF Ref/10.75.txt
0.0
58.33
-9.67
2.0
14.0
-8.33
27.33
-24.67
1.67
5.33
-7.33
13.33
1.33
-3.0
-8.0
-3.67
3.0
-1.0
0.67
0.33
0.67
-0.33
-0.33
-1.0
0.0
-0.33
-0.67
1.0
0.0
1.0
0.33
0.0
0.67
1.0
-0.33
-0.33
-0.33
1.0
0.67
1.0
2.0
0.67
0.0
-0.33
0.67
1.0
0.67
-1.0
-1.0
1.33
-1.67
-0.67
-1.0
-0.67
-1.0
-0.33
3.33
2.0
-0.33
2.67
2.33
-4.0
2.33
-1.33
4.33
3.0
-1.67
-2.0
-2.67
2.33
-1.0
-0.33
-0.67
-2.0
2.0
3.0
-1.0
8.67
1.33
-1.33
0.33
6.67
3.33
-2.67
11.33
-1.33
-5.67
2.0
-1.67
-3.33
-0.67
3.33
6.0
1.33
0.67
-4.67
-0.33
3.0
-4.67
5.33
-1.33
2.33
5.33
3.0
0.33
2.67
1.33
3.67
-0.33
0.33
4.67
-5.33
4.67
5.0
-2.33
5.0
3.67
4.33
3.33
-1.67
-2.0
5.33
-3.67
1.0
1.33
2.67
1.67
0.33
4.0
-3.67
4.67
-2.67
3.33
3.0
1.0
0.67
-0.33
8.67
0.33
-0.33
0.67
2.67
-5.67
-0.33
0.33
-2.67
3.67
4.33
11.0
6.33
6.67
2.33
-1.0
0.0
3.0
2.67
3.0
1.67
-1.67
-0.33
1.67
2.33
5.0
4.33
5.0
-2.33
5.0
3.33
1.67
2.33
1.67
3.33
5.0
4.0
3.67
3.0
6.67
3.67
0.67
-1.33
4.33
0.67
-1.33
-5.67
0.33
-2.33
-2.0
-3.0
2.0
2.0
-1.33
4.67
6.0
-0.33
-0.33
2.0
3.33
-2.33
5.33
10.0
1.0
0.67
4.33
6.0
-1.0
1.33
-0.67
-3.0
1.33
5.33
3.0
1.33
0.67
1.67
2.33
3.33
0.33
-3.67
5.0
4.67
4.33
1.67
5.67
1.67
7.33
1.67
1.0
2.67
-7.0
5.33
4.0
0.0
-4.33
-1.67
1.67
-4.33
0.0
-3.0
3.0
-0.33
4.67
1.33
-0.33
-5.33
-2.67
-1.33
0.0
1.0
1.33
2.67
-3.0
-4.33
0.0
0.33
3.0
5.0
3.33
-3.67
2.33
5.67
-0.67
-1.0
1.0
-1.0
-3.33
2.33
-4.33
-3.33
-2.33
2.33
1.67
3.33
-1.67
-2.33
3.0
6.67
4.33
1.33
2.0
2.33
3.67
1.67
-2.67
0.33
1.0
-2.0
-1.33
-4.67
-1.0
-4.67
-1.33
-1.67
-1.33
-3.67
-7.33
1.33
-1.0
4.33
4.0
-1.67
-3.0
-0.33
0.67
-1.67
-2.67
-3.67
-0.67
2.33
0.67
0.67
-6.0
1.0
-1.33
-5.0
4.33
-3.0
4.67
-4.33
-3.0
0.67
-2.67
0.67
-1.0
0.33
-0.67
-0.67
-3.0
-1.33
-1.0
3.67
-7.33
0.0
-5.33
-5.67
-6.33
-2.67
-3.0
-5.0
-3.67
3.0
-1.67
-1.0
-6.67
-2.0
-2.67
1.0
2.33
-4.0
0.0
3.33
-7.33
-5.33
-0.67
5.67
-1.0
-0.33
-0.33
-2.33
-1.67
-0.33
-1.33
1.67
-0.67
3.0
0.0
-2.67
-6.33
-3.0
-4.33
-8.0
-6.33
-7.0
-2.0
4.0
0.0
-5.0
-4.0
0.33
-6.67
-6.0
-2.67
-6.0
-5.33
-7.33
-4.0
-4.0
-0.33
3.67
0.67
7.0
-4.33
0.0
3.67
-1.33
-10.0
-4.33
1.0
-2.67
7.33
6.67
19.67
10.67
10.0
13.0
28.67
32.33
42.0
37.33
35.67
22.67
16.33
19.33
9.33
11.67
1.67
1.33
2.0
5.0
5.67
1.33
3.67
1.67
2.0
-2.0
-3.0
8.0
5.67
-2.67
4.67
2.67
-10.67
-3.0
-6.33
0.33
-5.33
-2.67
4.0
-8.33
-3.0
-11.67
-7.67
-2.0
2.33
1.0
-2.0
-4.0
-7.0
4.33
-1.33
1.67
7.0
-12.33
0.67
15.0
-1.67
-0.33
1.33
5.33
-6.67
-3.67
-5.33
-0.33
0.67
-2.67
-12.0
-4.33
-17.0
4.33
-8.67
3.0
-3.0
-10.0
-8.0
1.67
3.67
4.67
-5.33
-3.33
-1.33
-8.0
-6.0
-4.33
-0.67
-2.0
2.67
1.67
-3.0
9.0
1.0
-2.67
-1.0
1.33
-6.33
4.67
2.67
-0.33
3.67
2.0
4.67
-8.0
2.0
-3.0
6.67
3.67
2.67
-3.33
-17.67
-11.33
-2.0
4.33
5.67
9.67
9.67
16.33
13.0
29.0
20.67
30.67
24.67
40.33
13.33
14.33
18.0
16.0
9.0
-0.67
4.67
9.67
7.33
2.33
3.67
-3.33
12.0
2.33
13.67
12.0
8.33
3.0
15.0
21.67
2.0
5.67
2.0
4.33
8.0
9.0
16.0
17.0
12.67
-2.67
16.33
3.33
12.33
6.0
7.0
11.33
7.0
-0.67
9.0
6.67
-0.33
4.33
13.33
-4.0
7.33
3.67
4.0
15.67
6.0
13.0
3.0
16.33
17.0
13.33
4.33
21.0
12.33
0.0
1.0
14.33
12.67
4.0
6.67
-2.33
18.67
-1.33
-2.67
0.33
18.0
4.67
6.0
3.67
4.33
4.0
13.33
10.67
4.0
19.0
10.0
6.67
15.0
6.67
2.67
7.0
16.67
2.67
13.67
7.33
4.0
21.33
3.33
5.67
10.0
16.33
2.0
1.67
16.33
4.67
14.0
12.33
13.67
-1.0
9.33
10.67
2.0
14.33
13.67
9.67
4.33
8.33
16.0
6.33
11.0
12.33
16.67
15.33
11.33
0.33
13.33
10.33
20.67
22.67
19.0
5.0
34.33
18.33
13.33
22.0
33.0
19.67
40.67
53.67
98.33
76.0
77.33
92.0
108.67
116.33
104.67
114.0
90.0
103.0
97.33
89.0
53.0
54.33
35.67
19.0
27.67
23.0
16.33
9.67
6.0
4.33
6.33
10.67
15.67
5.0
12.0
4.33
13.0
13.0
8.67
8.0
4.33
12.33
11.0
12.0
0.67
23.0
11.33
18.33
11.67
15.67
-5.67
21.67
14.67
15.0
18.0
1.33
17.33
3.0
10.33
-3.0
-1.67
10.0
5.67
6.67
11.0
10.67
2.33
16.0
11.0
12.0
4.33
-4.0
15.0
17.33
15.67
7.67
4.0
15.33
4.0
9.33
20.0
18.0
5.67
7.67
6.67
11.67
10.33
3.67
9.67
8.0
6.33
10.67
3.67
17.67
7.33
2.67
5.67
8.0
25.67
0.33
11.0
13.0
6.33
15.33
12.0
0.0
7.0
12.67
0.0
36.67
12.33
8.0
22.0
22.33
38.67
36.33
18.67
50.0
33.33
25.0
26.33
18.33
24.33
22.33
24.0
17.0
-7.0
4.33
23.33
5.33
6.0
12.0
4.0
-0.67
8.33
8.33
4.0
6.0
19.0
10.0
9.33
-6.67
11.33
3.33
12.67
1.33
13.0
2.33
-3.33
9.67
3.33
10.67
3.33
5.0
9.67
6.33
17.0
9.33
11.67
10.0
-5.0
7.67
8.0
0.0
2.67
-0.33
9.33
-1.0
-4.67
5.33
-8.0
7.67
-4.0
-1.67
8.33
6.0
3.0
2.33
-1.67
-4.67
1.67
-5.67
5.67
6.33
-1.0
6.0
3.0
-6.33
8.33
-6.33
4.0
-0.33
1.0
7.33
9.0
-4.0
-2.0
1.67
-8.33
-4.67
-5.0
1.0
3.33
2.33
3.0
-0.67
1.33
11.0
1.33
3.33
5.0
-9.67
-7.33
11.33
-1.0
9.67
4.0
10.0
-5.67
-1.67
6.67
-3.67
10.0
2.0
2.67
1.67
2.33
14.67
15.67
8.33
14.67
2.67
5.33
10.67
5.67
1.0
13.0
10.33
1.33
3.33
-5.33
-1.33
-1.67
4.0
5.67
1.33
-3.67
6.33
8.33
2.0
11.67
5.0
9.0
1.33
1.0
8.67
4.67
14.67
0.0
13.0
14.67
8.0
1.67
1.67
2.67
-1.0
3.0
10.0
-0.67
6.0
5.67
-3.0
0.67
3.33
5.67
3.67
1.33
-2.33
12.0
2.67
-4.0
8.33
0.0
6.67
0.0
0.0
5.33
2.0
-1.67
0.0
11.0
2.67
3.33
7.0
2.33
1.67
-1.0
1.67
1.0
1.33
0.0
3.67
-2.0
1.67
7.0
4.67
5.67
11.67
3.67
3.0
6.67
8.0
9.67
6.0
5.33
5.33
3.67
-0.67
4.0
-9.33
-0.33
-1.33
4.67
3.33
2.67
-0.67
6.0
2.67
2.33
-0.67
-2.67
0.67
2.33
-2.0
3.0
1.33
2.67
-0.67
-1.33
1.67
-2.0
0.0
-1.33
-2.0
-3.0
-0.33
-2.67
4.0
2.0
-3.0
4.33
1.33
9.33
-4.0
6.67
3.67
-1.0
-3.0
0.0
-1.67
2.0
-2.67
4.67
-5.67
9.33
-3.0
2.33
-3.67
1.67
-0.33
-0.33
3.67
0.0
2.67
0.0
3.33
6.67
2.0
0.67
-4.0
0.67