File: EDX Back Ups and Old Files/Spectra copy 3.3.23/Samples/High pH SF Ref/11.25.txt
0.0
-11.67
36.33
-100.0
35.0
-71.33
-76.67
-44.67
6.67
-4.67
28.67
35.33
14.33
7.0
9.0
0.33
0.0
1.0
-0.33
-0.67
1.67
1.67
0.67
0.0
0.0
-0.33
-0.67
0.0
0.0
2.0
-0.67
2.0
-0.33
1.0
-0.33
0.67
-0.33
0.0
-0.33
0.0
0.0
-0.33
0.0
0.67
0.67
1.0
-0.33
1.0
1.0
0.33
-0.67
-0.67
0.0
0.33
2.0
-1.33
0.33
0.0
-0.33
0.67
1.33
-1.0
2.33
-0.33
-0.67
2.0
2.33
-2.0
-0.67
-2.67
3.0
-1.33
3.33
4.0
3.0
4.0
-2.0
1.67
2.33
-1.33
0.33
0.67
0.33
3.33
-0.67
-1.33
-0.67
4.0
4.33
-0.33
5.33
3.33
1.0
0.33
-2.33
-2.67
1.67
12.0
0.33
0.33
-2.33
5.33
3.33
3.0
-0.67
0.67
2.33
-2.33
-3.33
5.33
4.67
-3.33
8.67
9.0
1.67
0.0
3.67
2.33
-1.67
-2.67
4.0
3.33
0.33
-1.0
4.33
-2.33
3.67
0.33
0.0
1.33
1.67
1.33
5.33
3.0
1.0
-2.33
-2.33
0.67
2.33
-4.33
7.67
8.67
0.33
-0.33
7.33
1.33
9.67
5.33
1.0
0.33
9.67
2.33
0.0
-4.0
6.0
-2.33
0.0
2.67
-3.67
-2.33
1.67
6.33
1.0
7.33
5.0
-3.33
3.0
-0.67
-3.33
5.33
1.67
1.33
-5.0
3.0
-1.33
5.0
-5.33
1.67
2.67
-1.33
0.33
-3.33
4.67
-0.67
2.33
-1.33
0.0
4.0
5.0
1.0
4.67
-1.33
2.0
-1.33
1.67
7.0
5.33
-0.33
4.33
6.0
1.0
1.67
-0.67
-3.0
-4.0
-3.67
-3.67
-1.0
-5.67
2.33
-1.0
-0.67
3.67
-0.33
0.33
8.33
0.33
1.33
2.0
3.67
1.33
6.67
-2.33
3.67
1.33
-1.33
9.0
-1.33
-6.0
2.33
3.0
-2.0
-8.33
-1.67
-0.33
-1.33
-3.0
-2.0
4.0
4.67
8.67
-2.67
4.67
-0.33
-0.67
3.67
2.0
3.0
1.33
1.67
-3.0
-4.33
-2.0
-1.67
6.0
3.0
2.33
0.33
3.33
6.67
1.33
-4.0
0.0
-3.0
0.67
-0.67
-6.33
2.67
2.67
0.33
2.67
-1.67
-2.67
-0.33
-1.0
-1.33
-0.67
-1.67
0.0
4.33
-3.33
-0.33
-1.67
1.33
0.0
-2.0
3.67
-1.67
-3.0
-2.67
1.67
0.33
0.67
1.33
-6.33
-0.67
5.0
2.33
4.0
-0.67
5.0
-0.33
2.67
0.33
-5.67
0.33
-1.67
0.33
-0.33
2.67
-2.0
3.0
-3.33
-6.0
-0.67
1.0
1.67
-2.33
-1.0
6.67
-1.67
-0.33
2.0
-4.67
-1.67
-0.67
-2.0
-4.33
-1.0
1.67
-2.33
0.0
-4.33
-6.67
1.67
-3.67
2.0
-7.0
-0.67
-2.0
5.33
-3.0
-3.67
-4.0
-1.67
-3.0
-0.67
-1.0
0.0
-2.67
-1.33
-0.33
-2.67
-1.33
6.0
-2.33
-3.33
-2.33
-1.67
0.67
-1.33
-1.33
-0.67
-1.0
3.0
-0.67
2.67
-5.0
1.67
-6.0
0.67
-10.0
-10.0
-1.0
0.0
-4.0
-5.0
3.33
-1.67
-6.0
-6.67
-7.0
-0.33
-4.33
-9.0
-5.0
0.67
-4.33
-2.33
-6.0
2.67
-1.0
-1.33
-3.33
-4.0
-0.33
-2.0
0.33
1.33
6.67
6.67
24.67
21.0
26.0
29.67
48.33
41.0
30.33
43.67
33.67
30.33
27.33
28.33
7.67
9.67
9.33
-6.0
1.0
-1.33
-2.67
7.67
-6.33
-6.0
-2.0
-2.0
3.0
4.67
0.33
2.67
-0.33
-3.67
1.0
-6.33
-11.67
1.67
-1.67
-6.0
-5.33
6.0
-5.67
-5.67
0.0
8.33
4.0
-4.0
-3.0
3.0
-1.67
3.67
-2.33
4.0
0.67
-6.33
1.0
-5.67
-1.33
2.33
-2.67
-8.67
-4.67
0.67
5.67
2.67
-1.67
-8.0
3.67
-9.0
-0.67
2.33
6.0
5.0
2.0
-9.0
6.67
2.67
-0.33
1.67
-0.33
3.67
-5.0
-6.0
-1.33
2.33
6.0
-1.33
-1.33
-5.0
5.0
-2.0
2.33
-2.0
-4.67
2.67
4.67
10.67
-1.33
-2.33
1.0
3.67
1.0
-4.0
-1.0
-1.33
4.67
4.67
1.67
-8.67
-4.33
14.0
2.33
0.67
8.67
20.67
25.33
17.0
6.0
28.67
21.67
28.67
14.33
26.33
10.33
13.0
17.0
3.0
10.33
10.67
10.67
1.33
-6.67
9.67
0.67
5.0
-5.67
7.67
19.0
2.33
2.0
13.0
4.67
2.0
3.67
-2.0
7.33
4.0
4.0
8.0
3.0
5.67
-4.67
14.33
3.33
6.33
1.0
-1.0
13.33
0.0
10.33
10.0
9.67
12.67
7.33
1.33
8.0
3.33
5.67
3.0
10.67
13.0
3.0
9.0
8.33
15.0
11.33
5.33
-1.0
3.33
7.0
3.0
18.33
21.67
4.0
24.67
4.67
3.67
5.67
3.33
10.33
-2.0
10.67
11.0
-4.33
5.33
22.0
6.33
17.67
9.0
10.0
7.0
13.67
12.0
1.67
3.67
6.0
5.67
11.67
2.67
4.33
14.0
9.33
6.33
14.67
1.0
19.33
12.0
3.67
12.33
8.67
4.0
4.33
11.67
9.0
7.33
5.67
7.0
7.33
0.67
5.67
4.33
14.33
5.0
12.33
9.0
22.33
13.67
10.33
21.33
7.33
24.33
23.33
24.67
17.67
12.0
24.0
31.33
24.33
28.33
25.0
31.0
41.67
43.67
53.67
64.33
111.0
102.33
115.0
140.67
126.33
127.67
121.0
103.0
118.0
104.33
109.0
64.0
54.33
47.67
16.0
27.67
20.0
10.33
15.67
6.0
-2.67
28.33
7.67
11.67
0.0
3.0
14.33
2.0
10.0
8.67
1.0
8.33
10.33
16.0
8.0
7.67
15.0
12.33
14.33
16.67
9.67
4.33
3.67
12.67
11.0
10.0
12.33
6.33
13.0
6.33
-7.0
1.33
9.0
2.67
-1.33
-1.0
10.67
11.33
6.0
15.0
3.0
4.33
1.0
9.0
10.33
-0.33
13.67
-4.0
11.33
-1.0
26.33
1.0
14.0
20.67
-0.33
8.67
14.67
-1.67
1.67
7.67
-1.0
3.33
6.67
11.67
13.67
9.33
2.67
-3.33
13.0
-2.33
13.33
11.0
19.0
15.33
12.33
11.0
-7.0
19.0
5.67
22.0
13.67
8.33
16.0
24.0
22.33
33.67
31.33
23.67
34.0
48.33
23.0
23.33
31.33
14.33
24.33
30.0
11.0
18.0
8.33
5.33
0.33
-1.0
7.0
14.0
0.33
1.33
-0.67
14.0
-2.0
-2.0
5.0
-0.67
9.33
12.33
11.33
12.67
7.33
14.0
12.33
1.67
1.67
3.33
5.67
7.33
6.0
7.67
12.33
1.0
18.33
12.67
8.0
12.0
5.67
11.0
9.0
7.67
4.67
1.33
9.0
-6.67
10.33
-7.0
2.67
-2.0
-5.67
4.33
8.0
4.0
1.33
10.33
-2.67
6.67
-0.67
-11.33
1.33
-6.0
5.0
5.0
-5.33
10.33
-5.33
3.0
2.67
5.0
-0.67
0.0
0.0
-7.0
-0.33
-1.33
2.33
8.0
4.0
4.33
0.33
3.0
-0.67
6.33
-2.0
10.33
0.33
0.0
-5.67
-2.33
7.33
4.0
4.67
-4.0
10.0
1.33
-0.67
4.67
-10.67
6.0
4.0
6.67
4.67
8.33
4.67
12.67
7.33
-3.33
3.67
7.33
9.67
6.67
-1.0
11.0
4.33
13.33
-5.67
0.67
4.67
-2.67
-1.0
11.67
0.33
2.33
-4.67
-0.67
3.0
2.67
2.0
10.0
3.33
-4.0
2.67
5.67
4.67
-8.0
8.0
-0.33
-2.0
7.67
-1.33
2.67
5.0
4.0
5.0
-1.67
-1.0
0.67
6.0
6.67
0.33
3.67
0.67
-2.67
3.67
4.0
-7.33
2.0
-2.67
5.0
0.67
0.0
-6.0
-1.67
0.0
-0.67
-2.0
1.0
1.67
3.33
4.0
3.33
5.67
4.0
12.67
-1.0
6.33
9.0
4.67
5.0
4.67
2.0
-1.33
4.67
2.67
-0.33
5.0
4.67
0.0
3.67
5.0
6.33
5.33
-3.33
-0.67
-1.0
3.67
-0.33
0.67
4.67
3.33
-5.33
3.33
1.0
1.67
4.33
-1.67
3.33
-3.33
-1.67
-6.0
10.0
2.33
2.67
2.33
4.67
4.67
-3.0
2.0
-2.33
-4.0
2.0
-1.33
1.33
5.0
-4.0
-1.0
5.33
0.33
-1.67
10.0
-2.33
0.67
-4.0
-1.0
0.0
3.33
-4.0
0.33
2.67
-0.67
-0.67
0.0
4.33
2.33
4.67
3.67
-1.33
-6.33
-1.0
-2.33
-2.0
-3.67
5.67
10.0
5.67
-2.0
1.67