File: EDX Back Ups and Old Files/Spectra copy 3.3.23/Samples/High pH SF Ref/11.5.txt
0.0
68.33
-10.67
-47.0
-62.0
-109.33
-56.67
-39.67
6.67
-43.67
10.67
8.33
-22.67
13.0
-6.0
-5.67
1.0
-4.0
0.67
0.33
0.67
1.67
-0.33
-1.0
0.0
1.67
1.33
0.0
0.0
0.0
-0.67
2.0
0.67
0.0
-0.33
-0.33
1.67
3.0
-0.33
0.0
0.0
0.67
1.0
-0.33
0.67
2.0
0.67
0.0
0.0
-0.67
0.33
0.33
1.0
0.33
3.0
-1.33
1.33
-1.0
0.67
0.67
0.33
-2.0
-0.67
-2.33
-1.67
-1.0
1.33
-3.0
-3.67
2.33
5.0
0.67
1.33
4.0
0.0
0.0
-2.0
-0.33
-1.67
-0.33
-1.67
4.67
-0.67
0.33
0.33
-0.33
4.33
2.0
1.33
-3.33
3.33
-0.67
-1.0
10.33
4.67
0.33
-4.33
2.0
-0.67
-1.67
-3.33
2.33
0.33
-2.0
3.33
3.67
-4.67
-0.33
1.67
7.33
3.67
-1.33
-1.33
2.0
-4.33
1.0
11.67
-3.67
-2.67
-1.67
4.0
3.33
3.33
-1.0
0.33
3.67
-3.33
0.33
-2.0
3.33
2.67
2.33
5.33
0.0
5.0
4.67
-0.33
6.67
11.33
3.67
-0.33
4.67
-3.67
-2.33
6.33
-5.67
8.67
5.33
3.0
-2.67
2.67
1.33
-4.0
0.0
9.0
6.67
-2.0
4.67
3.33
4.67
8.67
-0.67
0.0
-0.67
7.0
-1.33
2.0
2.33
-0.33
0.33
8.67
-2.67
1.0
2.0
0.67
-4.0
-0.33
-3.33
-1.33
2.67
1.33
-2.33
2.67
-4.67
5.33
3.67
-2.0
5.0
-1.0
-3.0
2.67
-1.33
3.0
4.67
1.67
6.0
5.33
-1.33
3.33
6.0
4.0
2.67
-3.67
4.0
-2.0
10.33
-1.67
1.0
-1.67
4.33
1.0
4.33
1.67
1.67
-1.67
-0.67
2.33
0.33
-4.0
2.67
-1.67
-1.33
-2.33
-0.33
1.33
0.67
4.0
2.67
-2.0
3.33
6.0
0.0
-6.33
-1.67
-0.33
-1.33
1.0
-1.0
1.0
1.67
0.67
-1.67
2.67
0.67
-0.67
-0.33
2.0
-1.0
0.33
6.67
2.0
-5.33
-5.0
2.33
1.0
-1.0
3.33
5.33
0.33
3.67
-3.67
-3.0
0.0
-2.0
1.67
1.33
-3.33
-5.33
-1.33
2.33
-1.33
7.33
2.33
-1.33
4.0
0.67
-4.67
1.33
0.0
3.33
3.67
0.67
-1.67
1.33
-1.0
-3.0
1.67
-3.67
0.0
-0.67
1.67
-4.67
-4.33
-0.67
-3.33
-1.67
-2.0
7.33
5.0
1.33
3.0
-0.33
3.67
3.33
-5.67
-0.67
-0.67
-1.67
-0.33
4.67
-1.0
0.0
-2.33
-3.0
0.33
0.0
2.67
-1.33
-4.0
1.67
-3.67
1.67
-3.0
-4.67
5.33
-5.67
-1.0
2.67
0.0
-1.33
-1.33
2.0
-0.33
-4.67
0.67
-4.67
8.0
-6.0
-0.67
2.0
-2.67
1.0
-3.67
1.0
-4.67
-5.0
5.33
2.0
-2.0
-3.67
-4.33
-6.33
-3.67
6.67
4.0
0.67
-3.33
5.67
0.33
-0.33
-3.33
-1.33
-0.67
0.0
-1.0
4.33
-3.33
-2.0
-4.33
-8.0
-5.33
-6.0
-1.0
-3.0
-1.0
4.0
-8.0
4.33
-2.67
-3.0
-2.67
6.0
-1.33
-4.33
-6.0
1.0
2.67
-0.33
-2.33
2.0
-2.33
-2.0
7.67
-9.33
-9.0
4.67
1.0
0.33
7.33
7.67
17.67
29.67
36.0
18.0
30.67
43.33
38.0
42.33
41.67
45.67
39.33
23.33
22.33
12.67
8.67
11.33
-6.0
5.0
2.67
0.33
6.67
2.67
0.0
8.0
4.0
3.0
13.67
1.33
7.67
10.67
-3.67
-1.0
1.67
-3.67
-6.33
0.33
-2.0
1.67
0.0
-6.67
-5.67
-5.0
-4.67
5.0
1.0
-4.0
-1.0
-1.67
-0.33
1.67
1.0
-1.33
-0.33
0.0
-0.67
-1.33
-4.67
-1.67
-5.67
-2.67
-0.33
3.67
-4.33
-1.67
-11.0
4.67
-3.0
13.33
-5.67
1.0
-8.0
0.0
-6.0
3.67
-1.33
-3.33
1.67
-3.33
0.67
-7.0
1.0
2.67
0.33
-3.0
3.67
-2.33
3.0
2.0
-1.0
-1.67
20.0
-0.67
-8.33
-6.33
6.67
-1.33
5.67
2.0
2.67
3.0
-4.0
7.0
8.67
1.67
5.67
-7.33
-9.67
-4.33
-5.0
4.33
4.67
7.67
12.67
7.33
20.0
26.0
19.67
34.67
24.67
24.33
16.33
13.33
22.0
16.0
-7.0
7.33
10.67
9.67
19.33
3.33
5.67
-0.33
5.0
4.33
2.67
14.0
6.33
-6.0
5.0
3.67
3.0
1.67
1.0
5.33
5.0
4.0
14.0
13.0
-0.33
1.33
1.33
6.33
8.33
1.0
7.0
11.33
16.0
3.33
17.0
0.67
4.67
6.33
11.33
8.0
8.33
6.67
-1.0
1.67
10.0
2.0
8.0
-0.67
15.0
-0.67
5.33
19.0
12.33
12.0
5.0
5.33
6.67
-5.0
9.67
5.67
19.67
8.67
7.33
7.33
5.0
10.67
17.0
9.67
1.33
17.0
11.33
10.67
12.0
9.0
9.0
5.67
16.0
2.67
11.67
-1.0
9.67
7.67
11.67
9.33
7.0
12.33
3.33
14.67
7.0
6.33
-1.0
15.67
10.33
3.67
10.0
10.33
4.67
11.0
3.33
-3.33
5.0
12.33
7.67
11.67
11.33
14.33
11.0
5.33
16.0
10.33
15.67
5.33
16.33
7.33
13.33
9.33
13.67
13.67
18.0
23.0
20.33
26.33
26.33
38.0
29.0
37.67
53.67
70.67
94.33
103.0
110.33
141.0
152.67
140.33
127.67
138.0
137.0
102.0
108.33
95.0
81.0
80.33
47.67
37.0
19.67
35.0
19.33
12.67
15.0
-6.67
9.33
0.67
12.67
6.0
3.0
6.33
11.0
17.0
3.67
5.0
21.33
15.33
15.0
0.0
8.67
5.0
13.33
11.33
9.67
6.67
9.33
12.67
14.67
24.0
22.0
8.33
1.33
1.0
10.33
8.0
5.33
19.0
11.67
2.67
9.0
11.67
7.33
12.0
5.0
4.0
17.33
6.0
12.0
15.33
-8.33
12.67
-5.0
13.33
-1.0
3.33
5.0
28.0
8.67
7.67
6.67
11.67
4.33
-1.33
3.67
9.0
7.33
2.67
10.67
22.67
3.33
-3.33
-2.33
24.0
6.67
-9.67
3.0
9.0
7.33
11.33
6.0
5.0
16.0
8.67
4.0
9.67
20.33
11.0
24.0
28.33
41.67
43.33
39.67
42.0
21.33
22.0
20.33
22.33
16.33
11.33
15.0
6.0
0.0
5.33
10.33
8.33
-2.0
5.0
6.0
7.33
-8.67
5.33
8.0
11.0
1.0
11.0
6.33
5.33
3.33
6.33
3.67
9.33
15.0
4.33
-7.33
-1.33
-1.67
1.67
5.33
7.0
12.67
22.33
2.0
9.33
6.67
20.0
7.0
6.67
13.0
-1.0
12.67
-2.33
1.33
3.0
-0.67
5.33
5.0
10.67
-2.0
-9.67
-8.67
6.0
12.0
5.33
5.33
-12.67
6.67
-4.67
-7.33
3.33
-11.0
6.0
11.0
5.67
2.33
-15.33
5.0
4.67
7.0
1.33
11.0
2.0
0.0
-6.33
-7.33
-7.67
11.0
3.0
4.33
6.33
3.0
5.33
0.33
7.0
12.33
7.33
1.0
0.33
2.67
7.33
0.0
6.67
-1.0
6.0
-1.67
3.33
-7.33
-5.67
10.0
7.0
4.67
0.67
2.33
0.67
8.67
-0.67
12.67
2.67
12.33
2.67
5.67
0.0
2.0
11.33
-1.67
1.33
-3.33
-3.33
-2.67
-2.0
9.67
3.33
2.33
6.33
3.33
9.0
2.67
1.0
9.0
7.33
-7.0
0.67
4.67
8.67
-1.0
9.0
-0.33
-4.0
11.67
-3.33
7.67
1.0
7.0
10.0
-3.67
3.0
3.67
-1.0
4.67
1.33
-0.33
-4.33
0.33
8.67
0.0
2.67
5.0
4.33
3.0
1.67
2.0
-1.0
-5.67
5.0
-4.67
3.0
7.0
3.67
3.33
7.0
8.33
2.67
2.0
3.67
6.0
3.33
-3.0
6.67
4.0
4.67
-2.0
5.67
0.67
5.67
5.67
3.0
5.67
2.0
4.67
7.0
13.33
3.33
-5.33
-2.67
-1.0
-0.33
-2.33
-2.33
4.67
2.33
-5.33
0.33
-3.0
1.67
2.33
8.33
1.33
5.67
4.33
-8.0
5.0
-4.67
5.67
-1.67
2.67
4.67
3.0
0.0
-1.33
-4.0
2.0
2.67
1.33
0.0
4.0
-2.0
4.33
0.33
-5.67
-6.0
8.67
4.67
2.0
4.0
2.0
4.33
-4.0
-0.67
0.67
-0.67
5.33
-1.0
4.33
-0.67
-3.33
1.67
0.67
0.67
5.0
1.67
0.0
-2.67
2.67
-2.0
1.67
-4.0
-0.33