File: EDX Back Ups and Old Files/Spectra copy 3.3.23/Samples/High pH SF Ref/12.25.txt
0.0
36.33
12.33
52.0
10.0
6.67
55.33
-14.67
8.67
1.33
7.67
-15.67
-11.67
-6.0
-3.0
-6.67
1.0
-3.0
1.67
-0.67
-0.33
-0.33
0.67
1.0
0.0
-0.33
-0.67
0.0
0.0
0.0
-0.67
0.0
-0.33
0.0
0.67
-0.33
-0.33
1.0
-0.33
0.0
1.0
0.67
1.0
-0.33
0.67
1.0
0.67
-1.0
0.0
-0.67
-0.67
1.33
-1.0
0.33
1.0
-0.33
1.33
-1.0
1.67
2.67
2.33
0.0
5.33
1.67
3.33
-3.0
0.33
-4.0
5.33
-0.67
0.0
2.67
4.33
6.0
2.0
-1.0
1.0
-1.33
-0.67
-0.33
0.33
-4.33
-2.67
1.33
1.33
2.67
-6.67
6.0
-1.67
-3.33
0.33
5.33
0.0
7.33
-4.33
-0.67
-1.33
8.0
6.33
-1.67
-5.33
3.33
-2.67
6.0
-2.67
1.67
3.33
2.67
-4.33
-1.67
7.67
-2.33
2.67
1.0
-4.33
5.0
2.67
-0.67
-6.67
-2.67
1.0
-1.67
-1.67
2.0
4.33
3.67
4.67
1.33
-1.0
1.33
-1.33
4.33
0.33
1.0
0.0
1.67
-2.33
8.67
2.33
3.67
-3.33
1.67
1.33
0.67
-2.67
2.33
1.67
1.33
3.0
0.33
3.67
-0.67
3.0
4.0
1.0
2.67
5.0
3.67
5.33
-1.33
-0.33
6.33
0.0
4.33
-1.0
2.67
4.0
3.33
-1.33
1.33
2.67
-0.67
-2.0
2.0
5.67
-6.0
-2.33
1.67
0.67
1.67
5.33
4.67
3.67
-1.67
0.33
-4.33
-3.0
-2.0
4.0
0.0
3.67
4.67
2.0
-3.33
3.67
3.0
-3.67
-4.33
3.33
-3.0
2.0
0.67
-4.67
-2.0
0.0
0.33
-4.67
-2.0
0.33
-6.67
1.0
-2.67
3.67
-1.33
-2.67
0.33
-0.67
5.33
0.0
1.67
-2.67
3.67
-5.33
-1.33
4.33
4.67
-1.0
0.67
-1.0
1.33
2.0
-3.0
-0.33
-3.67
-0.33
-3.33
5.0
-3.0
3.0
-0.33
5.67
5.33
1.67
-2.33
-3.67
-0.33
-2.0
-5.0
4.33
7.67
0.0
0.67
-5.0
-3.67
-1.0
-2.0
1.33
1.33
-0.67
3.67
1.33
-1.0
0.0
-2.0
0.67
-1.67
-2.33
-6.33
-0.33
0.33
-2.33
0.33
0.33
-0.33
-3.0
-0.33
0.33
-1.67
0.0
4.33
-2.33
-1.33
-2.67
2.33
-1.0
-2.0
0.67
-2.67
-2.0
-3.67
0.67
-2.67
0.67
3.33
-7.33
3.33
-1.0
1.33
1.0
0.33
2.0
3.67
3.67
-1.67
-5.67
-0.67
-1.67
1.33
-2.33
1.67
0.0
2.0
-2.33
2.0
0.33
-4.0
-1.33
7.67
0.0
-0.33
-3.67
0.67
-4.0
-3.67
-3.67
-1.67
4.0
2.67
-4.0
0.67
-0.33
-4.0
6.67
-0.67
2.67
-2.67
0.0
-2.0
1.33
2.0
-2.67
1.0
-1.67
-3.0
3.33
-3.0
2.33
1.0
-1.0
-4.67
-0.33
-4.33
7.33
0.67
-4.0
-4.33
-2.33
0.67
-3.67
-3.33
6.67
-0.33
1.33
2.0
0.0
3.33
2.67
-2.0
-0.33
-7.0
3.67
2.0
-1.0
1.0
1.0
2.0
1.0
5.33
4.33
-4.0
-6.67
-3.0
4.67
-3.33
-5.0
2.0
-0.33
0.67
-1.33
-1.0
-3.33
-1.0
-0.33
-1.33
-11.0
4.67
5.0
1.33
4.33
-0.33
7.67
3.67
6.0
13.0
16.67
21.33
25.0
30.33
20.67
31.67
22.33
16.33
9.33
10.67
1.67
4.33
-10.0
0.0
-3.33
-4.67
7.67
-5.33
8.0
0.0
0.0
8.0
11.67
-0.67
1.67
2.67
-6.67
9.0
-3.33
-5.67
-5.33
4.33
-2.0
-1.33
-1.0
-1.67
-3.67
-5.0
-0.67
0.0
-6.0
-2.0
-1.0
4.33
5.67
-0.33
7.0
-8.33
0.67
3.0
1.33
1.67
4.33
1.33
5.33
1.33
-0.33
5.67
1.67
-1.67
-8.0
-4.33
-9.0
1.33
-1.67
-1.0
-5.0
8.0
2.0
3.67
3.67
1.67
5.67
-4.33
2.67
-5.0
3.0
5.67
0.33
3.0
10.67
2.67
1.0
10.0
-1.0
3.33
9.0
7.33
3.67
10.67
10.67
-0.33
12.67
15.0
5.67
13.0
-2.0
4.0
11.67
7.67
10.67
5.67
11.33
-0.33
7.0
9.33
3.67
6.67
19.67
19.33
35.0
28.0
23.67
33.67
46.67
33.33
25.33
16.33
15.0
18.0
6.0
24.33
10.67
21.67
11.33
10.33
10.67
-5.33
15.0
10.33
2.67
17.0
8.33
3.0
7.0
2.67
5.0
16.67
1.0
7.33
5.0
10.0
4.0
8.0
0.67
1.33
9.33
2.33
-0.67
0.0
-2.0
8.33
1.0
0.33
10.0
-2.33
10.67
4.33
3.33
1.0
0.33
0.67
-2.0
-3.33
2.0
5.0
-6.0
7.33
-3.0
7.33
-4.67
6.0
-7.67
1.0
0.0
11.33
4.67
3.0
6.67
6.67
18.67
5.67
4.33
8.33
2.0
1.67
-3.0
-2.33
16.33
4.0
8.33
13.67
6.0
6.0
1.0
11.67
-4.0
8.67
5.67
-3.0
4.67
-3.33
3.67
2.33
1.0
10.33
0.33
5.67
-3.0
7.33
-3.0
4.67
17.33
-3.33
14.0
-0.67
6.67
1.0
1.33
-0.33
4.0
3.33
11.67
5.67
0.33
8.33
4.0
10.33
-2.0
1.33
4.67
3.33
7.33
5.33
13.33
17.33
13.67
11.67
12.0
15.0
12.33
19.33
20.33
31.0
21.0
32.67
55.67
70.67
80.33
83.0
119.33
121.0
148.67
137.33
148.67
122.0
143.0
147.0
117.33
115.0
78.0
56.33
33.67
46.0
28.67
22.0
14.33
11.67
11.0
1.33
7.33
5.67
-0.33
1.0
6.0
5.33
8.0
6.0
5.67
-3.0
-6.67
2.33
8.0
-4.0
2.67
14.0
9.33
9.33
10.67
-7.33
19.33
10.67
9.67
7.0
21.0
4.33
18.33
10.0
4.33
-1.0
8.33
11.0
0.67
-1.33
5.0
3.67
11.33
-2.0
2.0
2.0
20.33
0.0
11.0
12.33
-8.33
12.67
0.0
10.33
-6.0
4.33
-4.0
14.0
5.67
6.67
3.67
11.67
4.33
12.67
8.67
2.0
-8.67
-4.33
2.67
11.67
-2.67
-3.33
-5.33
3.0
3.67
-4.67
5.0
1.0
7.33
11.33
5.0
-1.0
3.0
-1.33
-9.0
-1.33
-1.67
-1.0
6.0
11.33
4.67
14.33
11.67
17.0
18.33
14.0
12.33
3.33
19.33
2.33
7.0
6.0
-12.0
8.33
-4.67
1.33
-7.0
-4.0
1.0
-5.67
-12.67
8.33
-1.0
-3.0
8.0
1.0
7.33
8.33
6.33
2.33
-5.33
-1.67
4.0
7.33
2.67
7.67
11.33
1.67
8.33
6.0
-1.33
5.33
-4.0
8.33
-2.33
3.0
13.0
-0.33
-4.0
2.0
9.67
2.67
9.33
7.0
7.33
-2.67
7.0
2.67
9.0
-3.67
-16.67
1.0
3.0
1.33
4.33
-7.67
-4.33
8.33
8.67
8.33
-1.0
8.0
2.0
2.67
4.33
3.67
6.0
6.67
5.0
6.33
3.0
3.0
-3.0
-2.33
3.67
-2.67
3.0
1.0
1.33
0.33
4.0
-3.67
5.33
-7.0
-3.67
-0.67
-7.0
2.33
3.67
-1.67
-9.0
11.67
-2.0
6.0
1.33
-5.67
-1.33
-2.67
4.0
3.0
12.67
-1.33
9.33
6.67
17.67
4.33
7.67
7.67
0.33
6.67
-2.33
-5.0
3.0
13.33
-1.67
-3.67
12.67
-9.33
-4.67
1.0
1.67
2.33
-6.67
7.33
3.33
3.0
4.67
-3.0
0.0
7.33
2.0
-2.33
2.67
4.67
-4.0
6.0
-0.33
-4.0
0.67
-0.33
0.67
2.0
12.0
1.0
0.33
4.0
1.67
4.0
-0.33
-0.67
3.67
1.67
-2.67
3.67
5.0
-0.33
-2.0
2.33
4.0
-1.33
1.0
9.0
0.33
3.0
-3.67
0.0
8.0
-0.33
-2.67
4.0
2.33
-4.33
-1.0
2.67
6.0
6.33
-3.0
-0.33
8.0
1.67
-7.0
3.67
1.67
3.67
0.67
-2.0
8.67
8.0
1.67
3.0
9.33
4.33
-3.33
0.33
3.0
-1.33
6.67
-6.33
4.67
2.33
-0.33
8.33
6.0
-6.33
2.33
2.33
2.33
-1.33
6.33
1.0
2.0
-0.67
-3.33
-6.67
-3.33
1.67
-3.0
0.0
4.67
-6.0
-2.0
0.67
-0.67
3.0
5.0
-6.0
5.33
-3.67
3.33
-1.0
-2.33
0.67
1.0
4.0
-5.0
-3.67
-3.0
5.33
3.67
-1.67
1.33
-6.0
4.33
0.33
1.67
3.67
0.67
0.67
5.0
0.67
-1.0
-5.67
-0.33
6.0
0.67
0.0
-1.33