File: EDX Back Ups and Old Files/Spectra copy 3.3.23/Samples/High pH SF Ref/6.0.txt
0.0
-4.67
-69.67
-41.0
-41.0
-55.33
-35.67
21.33
39.67
-53.67
17.67
-6.67
0.33
2.0
-8.0
-12.67
1.0
-3.0
-3.33
-0.67
2.67
0.67
0.67
-1.0
0.0
-0.33
0.33
0.0
0.0
0.0
0.33
0.0
-0.33
1.0
0.67
0.67
-0.33
0.0
0.67
0.0
0.0
-0.33
0.0
-0.33
-0.33
0.0
-0.33
0.0
-1.0
0.33
-1.67
-0.67
-1.0
-0.67
2.0
2.67
0.33
2.0
0.67
0.67
4.33
1.0
3.33
5.67
3.33
8.0
3.33
-4.0
2.33
1.33
2.0
7.67
-0.67
2.0
0.0
0.0
3.0
-3.33
-2.67
1.67
14.33
6.67
-0.67
0.33
7.33
0.67
1.33
4.0
6.33
1.67
1.33
4.33
-1.0
-4.67
0.67
-0.67
5.67
-3.0
2.33
8.33
6.67
8.33
-1.67
9.0
-2.67
12.67
-1.67
-1.33
4.67
7.33
7.67
-3.33
0.67
8.0
0.67
12.0
5.67
5.33
3.33
1.33
4.0
0.33
1.33
-3.0
4.33
6.67
9.67
2.33
-2.0
14.33
4.67
-1.67
2.33
4.0
5.0
0.67
-4.33
6.67
2.33
2.67
4.67
5.67
2.33
4.67
-0.67
2.33
7.67
5.33
5.0
0.33
3.67
6.33
2.0
6.0
2.0
1.67
2.0
5.67
7.33
1.67
-4.33
2.33
2.0
7.33
3.0
3.67
4.0
2.33
5.67
4.33
14.67
2.33
0.0
6.0
-0.33
0.0
8.67
0.67
-0.33
3.67
-2.67
-0.33
0.67
5.33
7.33
1.67
5.0
3.0
6.0
3.0
5.67
2.67
0.0
-2.33
-1.33
6.0
3.33
2.67
10.33
9.0
-2.0
5.67
2.33
5.0
5.0
-0.67
2.33
1.0
3.33
-0.67
7.0
-0.67
7.67
6.67
7.33
0.33
-1.67
7.33
0.0
1.67
-1.67
7.67
3.67
3.67
-0.67
2.67
-1.0
-0.33
-3.0
2.33
4.0
2.0
-1.33
1.33
1.67
-2.33
-4.0
-1.0
1.0
1.67
7.67
5.33
5.67
-1.33
-1.67
-0.33
7.0
-3.0
0.33
8.67
0.0
1.67
2.0
5.33
-3.0
2.0
1.33
2.33
-1.67
8.67
-0.67
-1.0
-4.0
1.0
-2.33
8.33
1.67
-4.33
0.67
2.33
2.67
0.33
-4.67
1.67
0.0
1.67
2.33
-2.67
0.0
3.33
2.67
-0.33
2.33
7.33
4.0
-1.0
-1.33
-1.67
-2.0
-0.67
-4.33
3.33
-1.33
-0.67
-3.33
3.33
0.0
6.33
4.0
-2.67
4.0
0.67
2.67
1.33
-0.67
-0.67
-1.67
-1.67
1.67
1.67
-2.0
8.0
-1.33
-2.0
-1.67
0.0
-1.33
1.67
-2.0
1.67
-4.67
3.67
1.0
-3.67
5.33
-3.67
0.0
-0.33
-4.0
-0.33
-2.33
3.0
-1.33
-8.67
-3.33
-2.67
0.0
-3.0
0.33
0.0
-1.67
0.0
-2.67
1.0
-0.67
-3.0
0.33
1.0
-2.0
1.33
-6.33
-2.33
-1.67
-0.33
2.0
-2.33
-3.33
-0.33
0.33
0.67
-2.33
-0.33
3.33
-2.0
-4.0
-3.67
-3.33
-4.0
2.67
-2.0
-4.33
-4.0
-4.0
1.0
0.0
-2.0
0.0
-3.67
-3.67
-9.0
-9.67
-7.0
-4.33
-2.33
-3.0
-1.0
-0.33
-2.33
-1.33
-5.0
-3.33
-2.0
-1.33
-5.33
-11.0
-0.33
6.0
0.33
-4.67
-3.33
5.67
3.67
13.0
8.0
20.67
16.33
18.0
19.33
15.67
15.67
29.33
6.33
4.33
1.67
0.67
4.33
-6.0
0.0
-1.33
3.33
-1.33
-2.33
-2.0
0.0
0.0
-3.0
6.67
-4.67
2.67
-0.33
-4.67
-1.0
-10.33
-2.67
-8.33
3.33
-2.0
1.67
-1.0
-7.67
-8.67
-5.0
1.33
4.0
-7.0
8.0
2.0
-0.67
3.67
-2.33
-4.0
-5.33
0.67
2.0
-5.67
-7.33
4.33
-4.67
0.33
-0.67
0.67
-1.33
0.67
0.33
-10.0
-2.33
-2.0
-3.67
-9.67
-3.0
-2.0
-4.0
-1.0
5.67
-1.33
-1.33
1.67
-0.33
2.67
0.0
-1.0
-1.33
-0.67
0.0
4.67
1.67
-5.0
-8.0
-1.0
5.33
0.0
1.33
7.67
2.67
8.67
-4.33
2.67
5.0
-3.33
2.0
-13.0
-2.0
0.67
-5.33
1.67
0.67
-16.67
-8.33
-8.0
4.33
6.67
4.67
4.67
19.33
20.0
12.0
10.67
21.67
16.67
15.33
17.33
7.33
11.0
4.0
0.0
6.33
9.67
1.67
7.33
1.33
4.67
-0.33
8.0
9.33
1.67
0.0
4.33
5.0
6.0
0.67
-2.0
0.67
4.0
6.33
-5.0
4.0
1.0
9.0
6.67
-4.67
3.33
1.33
2.33
6.0
4.0
4.33
13.0
16.33
10.0
2.67
-3.33
3.33
4.33
7.0
-0.67
0.67
7.0
6.67
9.0
-2.0
8.0
7.33
20.0
7.33
15.33
14.0
5.33
6.0
11.0
5.33
10.67
4.0
9.67
5.67
8.67
-4.33
5.33
2.33
13.0
8.67
6.0
31.67
10.33
7.0
25.33
9.67
9.0
14.0
8.0
7.67
-2.0
7.67
14.67
6.0
7.67
-3.33
4.67
0.33
6.0
5.33
4.33
3.67
4.0
6.33
9.0
-0.33
15.33
14.67
12.0
6.33
8.67
12.0
2.33
3.67
3.0
15.33
2.67
16.67
9.33
12.33
15.0
4.33
5.0
7.33
7.67
6.33
21.33
18.33
17.33
12.33
16.67
14.67
9.0
8.0
23.33
15.33
27.33
11.0
19.0
35.67
41.67
47.67
38.33
46.0
53.33
63.0
75.67
70.33
66.67
73.0
67.0
57.0
57.33
66.0
52.0
45.33
28.67
15.0
16.67
21.0
15.33
8.67
3.0
4.33
13.33
17.67
15.67
10.0
5.0
3.33
9.0
14.0
9.67
16.0
0.33
8.33
21.0
7.0
10.67
25.0
7.33
5.33
10.67
13.67
-0.67
12.67
7.67
10.0
4.0
13.33
10.33
7.0
16.33
2.0
4.33
1.0
11.67
9.67
6.0
-7.33
17.33
-2.0
0.0
12.0
16.33
12.0
10.0
4.33
-6.33
5.67
2.0
8.33
12.0
18.33
5.0
11.0
8.67
8.67
8.67
24.67
-4.67
-1.33
1.67
9.0
13.33
1.67
8.67
14.67
-2.67
9.67
11.67
19.0
16.67
-5.67
-2.0
6.0
7.33
12.33
14.0
5.0
13.0
1.67
7.0
22.67
18.33
5.0
23.0
18.33
22.67
35.33
20.67
31.0
25.33
28.0
21.33
56.33
16.33
13.33
14.0
10.0
11.0
11.33
-1.67
5.33
-12.0
18.0
-3.0
5.33
10.33
12.33
12.0
6.0
-2.0
3.0
-4.67
14.33
-2.67
17.33
3.67
9.33
15.0
6.33
1.67
8.67
3.33
6.67
12.33
9.0
1.67
19.33
-7.0
9.33
11.67
12.0
5.0
13.67
11.0
18.0
17.67
4.67
2.33
2.0
3.33
0.33
-1.0
8.67
-4.0
-4.67
-3.67
12.0
-5.0
3.33
1.33
-2.67
4.67
7.33
-4.33
13.33
-3.0
13.0
11.0
-0.33
7.33
-12.33
13.0
1.67
10.0
5.33
3.0
8.0
-7.0
-0.33
6.67
12.33
17.0
5.0
5.33
8.33
8.0
-0.67
6.33
7.0
10.33
-3.67
7.0
2.33
7.67
8.33
-2.0
14.67
0.0
16.0
8.33
11.33
1.67
2.33
12.0
6.0
12.67
12.67
4.33
-1.33
10.67
5.33
2.67
7.67
4.33
4.67
9.67
7.0
-1.0
14.33
11.33
10.33
0.67
-3.33
4.33
7.0
15.67
1.33
-4.67
14.33
2.33
4.0
11.67
6.0
13.0
2.33
1.0
7.67
-0.33
5.67
-6.0
4.0
-0.33
1.0
0.67
-6.33
0.67
0.0
6.0
11.0
-0.67
0.0
9.67
6.0
1.67
8.33
0.67
6.67
12.33
-5.33
-2.0
7.67
-7.0
8.33
0.0
7.67
-1.0
5.0
1.33
1.0
2.33
8.0
7.0
-2.33
-0.67
3.0
4.33
-0.33
5.0
9.67
7.0
5.33
-1.0
0.67
6.0
12.67
4.0
3.67
3.67
1.67
4.67
-3.0
6.67
6.0
-1.33
-6.0
12.33
-2.67
-0.33
1.33
1.0
1.67
3.67
-0.33
0.67
2.33
2.67
6.33
7.0
-2.33
5.33
5.33
-3.67
-1.33
-1.67
3.0
12.0
-1.67
-0.33
4.33
7.67
0.67
6.0
8.0
1.67
10.0
6.0
4.67
1.33
4.0
3.0
3.0
2.33
-4.67
3.33
1.0
-1.33
2.67
-2.0
4.0
-4.0
1.33
-2.0
0.33
0.67
8.33
3.33
-1.0
0.33
-1.67
1.67
-3.33
-3.33
3.67
8.0
-2.33
2.0
3.33
4.67
9.0
-0.33
4.0
-0.33