File: EDX Back Ups and Old Files/Spectra copy 3.3.23/Samples/High pH SF Ref/7.25.txt
0.0
-21.67
-29.67
-7.0
-67.0
-55.33
-20.67
-77.67
-23.33
12.33
2.67
-6.67
-4.67
-2.0
4.0
-11.67
3.0
-5.0
-0.33
-1.67
-0.33
1.67
-0.33
-1.0
1.0
0.67
-0.67
1.0
1.0
0.0
-0.67
0.0
0.67
1.0
-0.33
-0.33
-0.33
0.0
-0.33
1.0
0.0
1.67
0.0
1.67
1.67
2.0
0.67
-1.0
0.0
2.33
-0.67
-1.67
1.0
-0.67
1.0
1.67
1.33
-3.0
0.67
-1.33
4.33
3.0
-0.67
-2.33
0.33
4.0
4.33
1.0
3.33
6.33
2.0
2.67
3.33
-2.0
1.0
4.0
0.0
-0.33
1.33
2.67
-4.67
-1.33
3.33
2.33
6.33
-2.33
-7.67
4.0
1.33
-1.33
3.33
8.33
9.0
0.33
1.67
1.33
0.67
8.0
5.33
4.33
-2.33
7.33
8.33
8.0
0.33
-0.33
3.33
0.67
2.67
1.33
-0.33
-4.33
-1.33
0.0
-2.33
2.0
2.67
1.33
-1.67
5.33
5.0
8.33
1.33
-1.0
3.33
1.67
0.67
5.33
3.0
5.33
-1.33
0.33
4.33
11.0
13.0
-2.33
6.67
6.67
6.33
7.67
4.67
7.67
-1.67
1.67
-0.67
-1.67
6.67
4.33
1.0
2.33
0.67
1.33
-1.0
2.0
7.0
-0.33
2.0
8.67
1.33
2.67
6.67
-1.67
-3.0
2.33
3.0
-7.33
6.0
10.33
-1.33
-0.67
3.67
1.33
6.0
6.0
6.67
1.0
0.67
1.67
-2.33
4.67
1.33
6.67
4.67
-2.67
-0.67
-3.33
3.0
6.0
4.0
2.0
2.67
0.67
4.0
-3.33
2.67
9.0
6.33
-1.33
2.33
-2.0
-1.0
1.67
-2.67
1.0
3.0
-1.67
-4.67
-5.0
-2.67
0.33
1.0
-2.67
4.67
3.67
5.33
6.33
-3.67
4.33
0.0
1.67
-0.67
3.67
1.67
5.67
-3.67
-2.33
2.0
-1.33
4.0
-0.67
7.0
2.0
-5.33
5.33
1.67
-3.33
-3.0
-2.0
0.0
4.67
1.67
2.33
1.67
1.67
-3.67
2.67
3.0
-2.0
4.33
5.67
1.0
-1.33
-7.0
4.33
0.0
0.0
3.33
5.33
3.33
1.67
-2.67
-1.0
7.0
-4.0
-0.33
2.33
-2.33
-5.33
0.67
0.33
-0.33
0.33
-2.67
3.67
2.0
2.67
-1.67
-1.67
3.0
1.33
3.67
2.67
5.33
6.33
-2.0
-1.0
2.67
0.33
1.0
-3.67
5.67
-2.67
1.67
0.33
-3.33
2.33
-1.0
1.33
6.0
0.33
1.0
0.67
1.67
-2.67
-4.67
-0.67
2.33
-5.67
-1.33
3.67
-3.0
5.0
-4.33
-3.0
0.33
-1.0
-2.33
-1.33
-3.0
2.67
-2.67
2.67
-3.0
4.33
-1.67
-4.67
-1.0
-2.33
-4.0
-3.33
1.67
-4.0
-0.33
-6.67
-2.33
1.33
4.0
-3.0
2.33
4.0
0.33
1.0
-4.67
-4.0
-2.67
-3.0
-2.67
0.0
-4.0
-0.67
-2.33
6.67
1.33
-0.33
-2.0
-4.33
-5.33
-1.33
-0.67
-2.33
3.67
-5.33
-4.67
-5.0
-2.0
-4.67
-2.33
-2.0
5.67
-9.0
-0.33
-3.0
-2.0
-4.0
1.0
-4.0
-5.0
-6.67
-3.67
-11.0
-5.67
2.0
-5.33
-3.33
-8.0
-5.0
-5.33
-1.33
-3.33
1.0
-2.33
-3.0
0.67
-7.33
-2.0
-5.33
3.0
0.33
-1.67
3.67
4.67
-2.33
4.0
17.0
13.67
9.33
11.0
15.33
16.67
17.67
13.33
14.33
4.33
3.67
-2.33
3.33
-4.0
-4.0
-0.33
-1.67
-0.33
-2.33
-2.0
-3.0
-2.0
-7.0
3.67
-3.67
3.67
1.67
-3.67
2.0
-7.33
-11.67
-3.33
3.33
-5.0
-1.33
-2.0
-6.67
-8.67
-7.0
-0.67
4.0
-2.0
1.0
0.0
2.33
-1.33
5.67
-2.0
-7.33
-4.33
2.0
2.33
2.67
4.33
-0.67
-7.67
-5.67
-3.33
-1.33
-0.33
-9.67
-8.0
-3.33
-11.0
-0.67
-2.67
1.0
3.0
-5.0
-6.0
-2.33
-4.33
-3.33
-3.33
-6.33
-10.33
-7.0
3.0
-5.33
-2.67
1.0
0.67
-1.33
4.0
-1.0
-3.0
-2.67
0.0
-2.67
-2.33
-11.33
4.67
1.67
-3.33
0.0
1.67
-2.0
-9.0
-4.0
2.67
1.67
1.67
-3.33
-7.67
-4.33
-1.0
3.33
-3.33
2.67
5.67
11.33
7.0
9.0
15.67
16.67
21.67
7.33
18.33
19.33
12.0
16.0
1.0
7.33
12.67
-5.33
8.33
5.33
7.67
1.67
18.0
2.33
-1.33
12.0
2.33
3.0
10.0
4.67
-1.0
7.67
5.0
9.33
-6.0
2.0
13.0
1.0
0.67
-2.67
10.33
5.33
1.33
5.0
2.0
10.33
1.0
18.33
5.0
10.67
0.67
-0.67
0.33
7.0
5.33
5.67
8.0
3.67
8.0
6.0
5.0
-0.67
11.0
13.33
14.33
4.0
15.33
5.0
14.0
8.33
18.67
5.0
3.67
5.67
19.67
6.67
0.33
11.33
22.0
8.67
4.0
19.67
10.33
14.0
4.33
15.67
11.0
17.0
8.0
9.67
5.0
2.67
6.67
7.0
5.67
1.67
14.67
8.33
5.0
13.33
8.33
6.67
7.0
5.33
7.0
4.67
10.33
17.67
12.0
17.33
15.67
6.0
2.33
5.67
3.0
9.33
5.67
13.67
2.33
15.33
0.0
7.33
4.0
6.33
9.67
15.33
23.33
4.33
18.33
12.33
9.67
7.67
21.0
3.0
25.33
22.33
17.33
18.0
24.0
17.67
26.67
33.67
58.33
67.0
44.33
52.0
78.67
85.33
76.67
97.0
74.0
70.0
56.33
66.0
59.0
26.33
21.67
17.0
14.67
11.0
6.33
8.67
15.0
1.33
8.33
1.67
17.67
13.0
4.0
1.33
4.0
20.0
6.67
11.0
3.33
7.33
13.0
-2.0
14.67
21.0
14.33
24.33
10.67
0.67
-2.67
11.67
2.67
23.0
15.0
5.33
8.33
-2.0
7.33
4.0
9.33
19.0
0.67
15.67
4.0
6.67
12.33
5.0
7.0
12.0
11.33
12.0
19.0
15.33
4.67
15.67
0.0
12.33
9.0
13.33
-3.0
6.0
13.67
20.67
1.67
13.67
10.33
10.67
16.67
7.0
1.33
2.67
10.67
7.67
1.33
14.67
2.67
5.0
8.67
10.33
18.0
10.0
3.33
20.33
7.0
11.0
13.0
20.67
3.0
18.67
10.33
16.0
19.0
15.33
35.67
25.33
29.67
48.0
21.33
32.0
25.33
27.33
16.33
23.33
25.0
16.0
5.0
4.33
2.33
-5.67
3.0
18.0
6.0
-1.67
-0.67
14.33
14.0
0.0
8.0
15.0
-6.67
2.33
-2.67
-0.67
2.67
5.33
9.0
13.33
8.67
10.67
11.33
8.67
2.33
13.0
-4.33
15.33
5.0
8.33
11.67
8.0
1.0
14.67
5.0
6.0
13.67
1.67
5.33
4.0
4.33
15.33
-11.0
5.67
12.0
5.33
3.33
7.0
-2.0
5.33
15.33
-2.67
-3.33
-3.67
9.67
7.33
3.0
15.0
17.0
4.67
9.33
-4.33
-6.0
0.67
9.0
4.33
8.0
5.0
4.0
3.67
8.67
3.33
6.0
8.0
-1.67
14.33
9.0
2.33
3.33
3.0
-4.67
3.33
3.0
-3.67
5.67
8.33
4.0
5.67
2.0
10.0
12.33
-9.67
4.67
9.33
2.0
13.0
1.67
13.67
9.33
2.67
20.67
0.33
-4.33
0.67
1.33
0.67
12.67
-4.0
9.0
4.33
4.33
3.33
13.67
-4.33
-1.67
1.0
13.67
-2.67
-8.67
-6.67
6.33
7.0
9.67
6.0
3.0
5.33
0.0
3.67
2.67
-0.33
-2.0
14.0
7.67
3.0
3.67
-2.33
3.67
15.0
4.0
0.0
3.33
3.0
4.67
2.0
1.67
9.33
9.67
-2.33
3.33
3.67
1.0
1.67
4.0
-1.67
6.0
1.67
13.0
4.0
-0.67
4.0
-2.67
5.0
9.0
3.67
5.33
6.0
2.33
-1.33
2.0
1.67
3.0
-3.67
6.0
5.67
7.0
-0.33
5.0
8.67
1.67
1.67
-3.33
2.0
-4.33
-1.0
-1.33
2.0
4.33
-2.67
-3.33
1.33
0.0
-3.33
-2.33
0.67
6.67
-1.67
-0.33
-1.67
10.0
2.67
7.33
8.33
-0.67
0.67
4.33
0.0
10.0
2.33
-2.33
3.33
3.67
4.67
-1.0
0.0
-3.33
-4.0
6.0
5.67
3.33
6.0
-3.0
2.0
1.33
-1.67
-0.67
5.0
-0.33
-0.33
5.0
-1.0
1.0
5.33
3.0
1.33
1.67
3.33
5.33
1.0
1.33
-0.67
-2.33
-3.33
5.67
-1.33
3.0
-1.33
-4.0
-5.67
-2.33
6.0
0.67
-1.0
-3.33