File: EDX Back Ups and Old Files/Spectra copy 3.3.23/Samples/High pH SF Ref/8.0.txt
0.0
3.33
66.33
19.0
88.0
6.67
91.33
-11.67
23.67
35.33
-19.33
16.33
-4.67
-4.0
-5.0
-11.67
1.0
-2.0
1.67
-0.67
2.67
-0.33
0.67
-1.0
0.0
-0.33
-0.67
0.0
0.0
0.0
0.33
0.0
-0.33
0.0
-0.33
-0.33
-0.33
0.0
-0.33
0.0
2.0
-0.33
1.0
-0.33
-0.33
0.0
0.67
0.0
-1.0
0.33
0.33
-0.67
-1.0
0.33
4.0
-1.33
-1.67
-1.0
2.67
2.67
-0.67
-3.0
1.33
2.67
-2.67
0.0
3.33
-2.0
-1.67
2.33
15.0
7.67
1.33
7.0
0.0
2.0
-3.0
-0.33
1.33
-3.33
6.33
2.67
4.33
0.33
0.33
5.67
-0.67
20.0
1.33
-4.33
0.33
3.33
-5.0
0.33
-0.33
3.33
2.67
2.0
4.33
0.33
-2.33
5.33
-0.67
5.0
3.33
0.67
-2.67
4.67
-1.33
6.33
3.67
2.67
3.67
8.0
-2.33
0.0
1.67
1.33
6.33
-0.67
7.0
4.33
-3.67
4.0
-1.67
0.67
3.67
11.33
7.0
3.33
1.67
0.33
14.33
8.0
1.0
0.67
0.67
10.67
6.33
2.67
-2.33
-2.33
0.33
-0.33
2.33
-3.67
6.67
2.33
3.0
1.33
6.67
-0.67
-1.0
7.0
5.0
-1.33
0.0
3.67
4.33
3.67
1.67
6.33
0.0
14.33
-3.0
-6.33
2.0
7.33
-0.33
4.33
8.67
5.33
2.0
3.0
-0.33
-5.0
-1.33
-0.33
2.67
-3.33
0.33
9.67
0.67
-3.67
-0.67
-3.33
-1.0
5.0
5.0
0.0
3.67
0.67
2.0
-0.33
6.67
5.0
2.33
2.67
6.33
4.0
0.0
-1.33
-1.67
1.0
-1.0
1.33
1.33
6.0
2.33
-0.67
1.0
0.33
7.67
4.67
2.33
4.33
-0.67
3.33
3.0
-1.33
1.33
1.67
5.67
3.67
0.33
2.67
-1.0
4.67
-1.0
1.33
1.0
0.0
-6.33
0.33
7.67
2.67
-1.0
-1.0
2.0
2.67
6.67
-0.67
2.67
0.67
-2.67
-1.33
6.0
-2.0
2.33
-0.33
0.0
2.67
-4.0
1.33
0.0
3.0
-1.67
-3.67
3.33
3.67
1.33
-2.0
3.0
-6.0
1.67
4.33
-2.33
-4.33
0.67
-1.67
2.67
3.33
-1.67
1.67
0.0
4.67
0.33
0.33
-1.0
3.33
0.67
0.67
3.33
4.33
2.0
-3.0
-0.33
-3.67
2.0
-3.67
0.67
-1.67
0.67
-2.67
-0.33
2.33
-3.0
1.33
7.0
-2.67
3.0
3.67
0.67
-3.67
-3.67
-3.67
2.33
-3.67
1.67
1.67
-2.0
-2.0
-2.33
-5.0
0.33
-1.0
-1.33
-1.33
3.0
1.67
-7.67
4.67
-4.0
-2.67
-0.67
1.33
-5.0
-4.33
-7.0
-3.33
0.67
-4.0
-2.33
-7.67
-0.33
-2.67
0.0
-1.0
0.33
2.0
4.33
-1.0
-5.67
0.0
0.33
-3.0
-0.67
-1.0
-1.0
5.33
-4.33
-0.33
-1.67
2.67
-2.0
-1.33
-3.33
-2.33
-1.67
-2.33
4.67
-6.33
-6.67
1.0
2.0
-1.67
-2.33
-1.0
1.67
-7.0
-5.33
-7.0
-3.0
-3.0
-1.0
0.0
-3.0
-1.67
-1.67
-5.0
-2.67
-5.0
-6.33
-8.33
-7.0
-4.0
-6.33
-3.33
-4.33
-6.0
-3.33
-5.0
-0.33
-6.33
-7.0
-2.33
-1.0
-3.67
-1.67
-0.33
13.67
2.67
7.0
12.0
7.67
29.33
33.0
21.33
21.67
28.67
19.33
9.33
12.33
-5.33
2.67
0.33
-6.0
4.0
-0.33
-1.67
5.67
-1.33
-5.0
-2.0
0.0
-2.0
1.67
-1.67
-5.33
2.67
-2.67
-6.0
-7.33
-7.67
-6.33
-3.67
-9.0
-3.33
-2.0
-1.67
-4.67
-5.0
6.33
1.0
-8.0
-3.0
-1.0
-3.67
2.67
2.67
2.0
-0.33
-1.33
2.0
-1.67
-6.33
4.33
0.33
-1.67
-2.67
-5.33
0.67
-3.33
-4.67
-15.0
1.67
-13.0
7.33
2.33
1.0
-4.0
-4.0
2.0
6.67
-0.33
-5.33
-2.33
-6.33
3.67
-9.0
-9.0
0.67
-4.67
-10.0
1.67
-5.33
0.0
-5.0
1.0
-2.67
1.0
-1.67
0.67
-6.33
1.67
-5.33
-3.33
0.0
2.67
-8.0
-8.0
-1.0
-4.33
-7.33
2.67
-7.33
-9.67
-6.33
11.0
2.33
8.67
9.67
8.67
16.33
12.0
28.0
18.67
17.67
16.67
15.33
16.33
12.33
18.0
12.0
-1.0
7.33
16.67
3.67
10.33
5.33
5.67
0.67
12.0
0.33
0.67
8.0
7.33
-1.0
-2.0
5.67
1.0
0.67
1.0
1.33
2.0
8.0
6.0
8.0
1.67
3.33
6.33
-0.67
2.33
5.0
2.0
-0.67
7.0
3.33
9.0
-1.33
8.67
5.33
11.33
6.0
-0.67
0.67
-1.0
5.67
8.0
-3.0
-1.0
6.33
2.0
5.33
0.33
17.0
-2.67
-1.0
16.0
1.33
10.67
13.0
9.67
7.67
8.67
18.67
6.33
13.33
11.0
2.67
8.0
17.67
20.33
20.0
10.33
6.67
10.0
10.0
3.0
11.67
9.0
1.67
4.67
-1.0
17.67
1.67
11.67
7.33
-3.0
10.33
9.33
16.67
4.0
13.33
4.0
3.67
12.33
10.67
11.0
13.33
8.67
7.0
15.33
3.67
11.0
6.33
18.67
6.67
6.33
7.33
7.0
16.33
4.0
13.33
14.67
4.33
19.33
4.33
13.33
13.33
23.67
20.67
19.0
13.0
23.33
8.33
20.33
27.0
29.0
13.67
18.67
23.67
42.33
62.0
60.33
59.0
72.67
96.33
88.67
77.0
86.0
73.0
52.33
64.0
41.0
62.33
17.67
17.0
10.67
15.0
8.33
17.67
6.0
8.33
1.33
11.67
7.67
2.0
7.0
2.33
14.0
13.0
12.67
14.0
9.33
5.33
13.0
6.0
-1.33
13.0
9.33
14.33
2.67
9.67
11.33
16.67
4.67
15.0
4.0
14.33
5.33
4.0
3.33
4.0
2.33
18.0
10.67
2.67
7.0
3.67
18.33
11.0
19.0
15.0
11.33
4.0
11.0
8.33
2.67
13.67
-6.0
19.33
14.0
14.33
4.0
11.0
5.67
9.67
13.67
25.67
6.33
5.67
9.67
8.0
16.33
10.67
13.67
2.67
2.33
8.67
12.67
16.0
7.67
3.33
-5.0
3.0
5.33
11.33
16.0
-1.0
10.0
7.67
8.0
37.67
16.33
25.0
9.0
21.33
47.67
21.33
18.67
43.0
23.33
17.0
16.33
13.33
15.33
25.33
18.0
8.0
7.0
8.33
14.33
8.33
2.0
5.0
10.0
2.33
1.33
2.33
6.0
-2.0
6.0
19.0
8.33
7.33
3.33
10.33
6.67
16.33
8.0
10.33
8.67
1.67
13.33
17.67
9.33
3.0
6.67
13.33
12.0
5.33
8.67
6.0
12.0
11.67
21.0
15.0
11.67
3.67
1.33
6.0
7.33
5.33
7.0
10.67
6.0
-0.67
-2.67
7.0
-7.0
13.33
0.33
-9.67
2.67
-1.67
-6.33
0.33
-7.0
5.0
-1.0
-2.33
14.33
-1.33
2.0
1.67
5.0
8.33
6.0
-12.0
0.0
-1.33
-2.33
2.33
4.0
8.0
3.33
2.33
8.0
0.33
-1.67
-5.0
6.33
-2.67
-9.0
-0.67
5.67
8.33
-5.0
1.67
-10.0
3.0
9.33
-0.67
13.67
2.33
11.0
2.0
-3.33
7.67
11.33
9.67
8.67
5.33
4.67
18.67
22.33
0.67
-1.33
-5.0
13.0
1.33
4.33
4.33
1.67
5.67
-3.67
-3.0
9.67
-2.67
-0.67
6.33
8.33
4.0
1.67
-5.0
0.0
0.33
3.0
10.67
2.67
12.67
2.0
18.0
6.67
3.0
1.67
-0.33
-3.33
2.0
4.0
3.0
0.33
4.0
8.67
2.0
0.67
6.33
4.67
-4.33
0.33
4.67
5.0
2.67
-1.0
-0.67
4.0
6.67
10.0
9.0
8.33
7.0
0.33
1.0
7.0
-1.33
2.33
14.0
6.33
1.67
7.0
-3.33
3.0
6.33
3.0
6.67
8.0
0.67
2.0
0.67
4.67
9.67
9.67
-1.0
9.67
9.0
3.67
-2.0
4.33
-0.67
6.67
1.33
0.0
1.67
1.67
3.67
-2.33
1.33
-1.33
-0.67
3.0
1.67
3.33
3.33
2.33
2.67
7.33
0.0
-1.0
-3.67
-2.33
3.33
2.67
4.67
-2.0
4.0
0.67
2.0
0.0
4.67
4.33
2.0
-2.0
0.0
4.33
-1.67
-1.67
2.0
-3.33
2.67
-1.0
6.0
-6.0
6.33
0.0
-1.67
-3.33
3.33
2.33
0.0
1.33
-1.67
-1.33
1.67
4.67
6.67
5.0
7.67
2.0
3.33
2.67
6.0
3.67
-2.0
0.67