File: EDX Back Ups and Old Files/Spectra copy 3.3.23/Samples/High pH SF Ref/8.25.txt
0.0
67.33
-21.67
-48.0
-17.0
-46.33
12.33
-33.67
45.67
-17.67
2.67
-2.67
-4.67
-1.0
-8.0
-0.67
7.0
-4.0
1.67
0.33
-0.33
-0.33
0.67
-1.0
0.0
0.67
-0.67
2.0
0.0
0.0
-0.67
1.0
-0.33
1.0
-0.33
-0.33
0.67
0.0
-0.33
0.0
0.0
1.67
0.0
0.67
-0.33
0.0
-0.33
1.0
0.0
0.33
-0.67
0.33
-1.0
-0.67
0.0
0.67
0.33
0.0
-0.33
-0.33
1.33
-3.0
1.33
2.67
4.33
0.0
0.33
-3.0
1.33
2.33
0.0
8.67
8.33
11.0
0.0
-1.0
0.0
5.67
2.33
1.67
1.33
0.67
4.33
3.33
2.33
2.67
-5.67
5.0
-3.67
-3.33
6.33
-1.67
0.0
4.33
3.67
3.33
5.67
0.0
-1.67
-0.67
-2.33
2.33
2.33
9.0
1.33
-1.33
2.33
0.67
4.67
10.33
1.67
-1.33
5.67
6.0
-3.33
3.0
-0.33
1.33
0.33
3.33
6.0
-4.67
3.33
-1.0
4.33
-1.33
5.67
3.33
6.0
4.33
2.67
3.33
3.33
4.0
2.0
-1.33
2.67
5.67
3.33
3.67
3.67
8.67
-2.67
2.67
1.33
5.33
11.67
4.33
11.0
-2.67
5.67
3.33
-1.0
10.0
9.0
0.67
-1.0
5.67
-0.67
2.67
3.67
2.33
0.0
1.33
4.0
-1.33
6.0
2.33
0.67
1.33
-2.33
-3.67
7.0
0.0
3.67
-6.0
-1.33
3.67
2.67
3.67
7.33
-0.33
3.67
-5.67
-4.67
-3.33
3.0
3.0
8.0
6.0
1.67
3.67
0.0
2.67
1.67
8.0
4.33
2.67
1.33
10.0
-3.0
-0.33
-4.67
3.0
0.0
4.33
-2.67
4.0
-3.67
3.33
1.0
-0.67
6.67
-4.33
3.33
3.33
1.33
9.33
-1.0
-3.33
-0.67
3.67
2.67
3.67
-0.67
5.67
2.0
-0.33
-4.0
3.33
3.0
-1.0
-0.33
3.33
1.67
-3.33
2.0
-2.0
1.0
-1.33
3.67
1.33
-2.33
2.67
-3.67
0.67
5.0
-3.0
0.33
3.67
-3.0
-1.33
-2.0
-1.67
3.0
2.0
1.33
0.33
-1.67
4.67
-3.67
-4.0
0.0
-2.0
2.67
5.33
-1.33
-7.33
3.67
-2.67
-0.33
1.33
-3.67
-0.33
5.0
-3.33
4.33
-2.67
-3.0
2.33
2.67
3.67
0.33
1.33
5.0
1.0
-2.33
-1.67
0.0
3.33
-4.33
-1.67
-2.33
-0.67
-4.33
0.33
1.0
5.33
1.0
4.33
1.0
-1.33
2.67
-2.67
-1.67
-0.67
-1.67
-1.67
0.67
2.67
-1.0
7.0
-0.33
-3.0
-3.67
-2.0
-2.33
-0.33
-4.0
4.67
-4.67
-1.33
-2.0
-0.67
-1.67
-0.67
-2.0
-3.33
-5.0
-3.33
-1.33
-2.0
-0.33
-0.67
-1.33
-2.67
3.0
-2.0
4.33
4.0
-2.67
-1.0
-0.67
-4.0
-2.67
-6.0
3.33
-1.0
-1.0
-3.67
-4.33
-7.33
-4.67
-1.33
3.0
-5.33
2.67
-2.33
-3.67
1.67
2.67
-1.33
3.33
-3.0
0.0
-3.67
-1.33
-5.0
-1.33
-9.0
-5.33
-6.0
-1.0
0.0
0.0
-4.0
-8.0
1.33
-2.67
-8.0
-6.67
-8.0
-0.33
-10.33
-4.0
-9.0
-3.33
-1.33
-0.33
-2.0
-2.33
-2.0
1.67
-6.33
-6.0
-6.33
0.0
0.33
-3.67
-6.33
6.67
14.67
8.0
7.0
21.67
17.33
24.0
27.33
19.67
16.67
17.33
6.33
9.33
11.67
0.67
-0.67
-6.0
7.0
-1.33
-0.67
3.67
-0.33
-3.0
-3.0
-2.0
-3.0
-3.33
3.33
0.67
3.67
-11.67
0.0
-4.33
-11.67
-10.33
-3.67
-8.0
2.67
-7.0
-11.67
0.33
-10.0
-5.67
-3.0
-2.0
4.0
0.0
8.33
-0.33
4.67
1.0
-11.33
-1.33
2.0
-0.67
4.67
5.33
0.33
-5.67
-5.67
-4.33
1.67
-5.33
-5.67
-8.0
-4.33
-16.0
3.33
-5.67
7.0
-3.0
-3.0
-3.0
6.67
-4.33
3.67
-1.33
-7.33
-8.33
-5.0
-8.0
-5.33
-1.67
-7.0
-2.33
2.67
-7.0
-1.0
5.0
-3.67
2.0
3.33
1.67
-5.33
-1.33
8.67
3.67
2.0
-0.33
3.0
-9.0
-1.0
0.67
-5.33
-0.33
-2.33
-9.67
2.67
2.0
9.33
11.67
10.67
10.67
5.33
9.0
4.0
11.67
31.67
15.67
19.33
17.33
10.33
19.0
5.0
0.0
-4.67
6.67
5.67
22.33
-1.67
8.67
3.67
11.0
12.33
5.67
6.0
10.33
-2.0
3.0
4.67
3.0
3.67
-3.0
6.33
4.0
6.0
5.0
16.0
8.67
0.33
8.33
8.33
0.33
5.0
1.0
12.33
7.0
3.33
5.0
0.67
5.67
8.33
8.33
10.0
4.33
5.67
1.0
3.67
6.0
7.0
-1.0
12.33
14.0
-3.67
14.33
16.0
12.33
-7.0
1.0
5.33
14.67
3.0
9.67
-0.33
7.67
10.67
-1.67
7.33
12.0
16.67
21.0
7.67
11.33
3.0
16.33
-0.33
13.0
11.0
3.0
8.67
10.0
6.67
13.67
0.0
5.67
-3.33
9.67
2.33
3.0
17.33
7.33
9.67
13.0
13.33
4.0
3.67
12.33
3.67
7.0
2.33
17.67
2.0
5.33
-0.33
4.0
-4.67
3.67
9.67
6.33
7.33
5.0
5.33
5.0
8.33
7.67
7.33
10.33
1.33
30.33
17.33
11.67
24.67
8.0
0.0
35.33
7.33
18.33
20.0
26.0
14.67
24.67
42.67
42.33
56.0
66.33
73.0
79.67
101.33
67.67
77.0
72.0
62.0
41.33
63.0
52.0
43.33
29.67
32.0
10.67
8.0
1.33
13.67
7.0
1.33
6.33
10.67
-3.33
10.0
7.0
0.33
14.0
19.0
4.67
3.0
5.33
16.33
20.0
16.0
-1.33
18.0
12.33
19.33
19.67
11.67
10.33
13.67
7.67
13.0
4.0
3.33
17.33
6.0
10.33
5.0
9.33
5.0
5.67
8.67
13.0
1.67
20.33
7.0
10.0
15.0
4.33
3.0
16.0
10.33
1.67
7.67
-4.0
5.33
10.0
11.33
5.0
21.0
6.67
0.67
14.67
7.67
11.33
8.67
-4.33
13.0
-2.67
26.67
7.67
15.67
-2.67
12.67
5.67
19.0
1.67
2.33
8.0
4.0
11.33
22.33
8.0
11.0
11.0
6.67
12.0
15.67
27.33
10.0
30.0
23.33
26.67
39.33
22.67
32.0
36.33
29.0
20.33
23.33
23.33
12.33
18.0
10.0
11.0
12.33
7.33
8.33
10.0
13.0
11.0
6.33
3.33
13.33
7.0
10.0
9.0
3.0
1.33
-0.67
2.33
8.33
7.67
8.33
11.0
7.33
7.67
12.67
2.33
11.67
8.33
13.0
4.67
16.33
8.0
16.33
15.67
9.0
15.0
8.67
13.0
6.0
3.67
-6.33
2.33
5.0
-8.67
6.33
-1.0
7.67
8.0
-8.67
3.33
8.0
-5.0
12.33
5.33
5.33
-10.33
-1.67
0.67
-1.67
-4.0
-6.0
16.0
1.67
6.33
5.67
10.0
-5.33
10.0
11.33
9.0
3.0
1.0
7.67
-4.33
-4.67
7.0
5.0
5.33
8.33
-3.0
-0.67
0.33
8.0
5.33
8.33
5.0
8.33
8.67
1.33
4.0
11.67
3.0
15.0
-2.67
4.33
-9.33
6.33
11.0
7.0
2.67
11.67
8.33
13.67
2.67
1.33
9.67
-2.33
6.33
7.67
9.67
2.0
10.0
10.33
1.33
3.33
4.67
-1.33
2.33
0.0
5.67
-1.67
-1.67
5.33
11.33
7.0
4.67
5.0
10.0
-2.67
-2.0
7.67
7.67
7.67
-1.0
7.0
9.67
10.0
-2.33
-0.33
6.67
9.0
4.0
5.0
-13.67
4.0
5.67
4.0
4.67
-0.67
1.67
1.67
1.33
-9.33
0.0
0.67
4.0
6.33
3.0
0.67
-1.0
1.0
2.33
6.0
-1.67
-2.0
6.0
-3.33
5.33
8.0
4.33
2.67
-4.0
6.67
6.0
-4.67
-1.0
13.67
10.0
-2.33
0.0
-1.33
3.67
5.67
-3.33
0.0
2.67
-1.0
4.67
-6.0
8.33
4.33
-3.33
0.33
8.0
-1.33
10.67
-1.33
-1.33
-1.67
2.67
4.33
8.0
1.67
4.33
1.33
-1.67
2.67
1.33
3.0
2.0
1.33
1.67
8.33
0.67
1.67
-2.0
8.0
6.67
2.0
6.0
11.67
9.33
4.0
0.0
-2.0
-1.67
3.33
8.33
7.0
0.67
1.67
-1.0
4.0
-3.0
1.33
1.0
-3.67
3.67
1.33
5.33
-5.0
-3.67
4.33
-0.33
1.67
-0.33
-0.33
6.0
-0.33
1.0
-8.67
12.67
-1.0
0.67
2.0
-0.33