File: EDX Back Ups and Old Files/Spectra copy 3.3.23/Samples/High pH SF Ref/9.25.txt
0.0
-34.67
93.33
-18.0
87.0
-50.33
81.33
15.33
-2.33
-57.67
44.67
27.33
-0.67
-7.0
9.0
-8.67
5.0
6.0
-1.33
0.33
2.67
-0.33
1.67
1.0
0.0
-0.33
-0.67
0.0
0.0
2.0
-0.67
0.0
-0.33
0.0
1.67
-0.33
-0.33
1.0
-0.33
0.0
1.0
-0.33
2.0
1.67
0.67
0.0
0.67
-1.0
1.0
1.33
-1.67
-0.67
1.0
-1.67
1.0
2.67
0.33
4.0
-3.33
1.67
1.33
0.0
1.33
-1.33
0.33
0.0
-1.67
-1.0
5.33
-0.67
4.0
4.67
9.33
4.0
1.0
-3.0
-1.0
-0.33
1.33
-2.33
-2.67
4.67
0.33
2.33
0.33
-6.33
-0.67
8.0
8.33
-4.33
0.33
2.33
3.0
3.33
1.67
3.33
0.67
9.0
-0.67
1.33
-1.33
1.33
-3.67
-1.0
-5.67
3.67
1.33
-5.33
5.67
5.33
1.67
-1.33
2.67
7.0
1.67
5.0
7.67
9.33
-4.67
2.33
-1.0
3.33
3.33
7.0
-3.67
1.67
8.67
5.33
-2.0
-3.67
-3.33
4.33
1.33
7.0
1.0
2.67
0.67
0.67
5.33
6.67
2.67
6.67
-1.67
6.67
-4.67
2.33
4.67
5.33
13.0
1.33
-0.33
5.33
9.0
1.0
2.0
-3.33
5.0
7.67
0.33
1.67
2.67
4.33
-4.0
1.33
5.0
2.67
4.0
6.33
-3.33
3.33
10.67
2.33
2.0
-1.0
-2.33
5.0
1.67
5.67
0.67
0.67
12.33
3.67
1.67
-1.67
6.33
0.67
-1.0
4.0
3.0
-1.0
3.67
2.67
-2.0
1.67
-1.33
-3.0
6.33
-0.33
9.33
5.0
3.0
-2.33
3.33
3.0
-4.0
-2.67
-2.67
0.0
0.33
-1.67
1.0
-1.67
6.67
3.67
-3.67
3.33
-1.67
-3.67
-1.0
-1.33
0.33
3.67
6.67
3.67
6.33
3.67
1.0
-0.33
-1.0
3.33
1.0
1.0
-3.33
2.33
4.67
-3.33
-3.0
1.0
-2.0
2.67
6.67
-1.67
-0.33
3.67
-4.67
-2.33
1.0
0.0
-0.67
1.67
1.0
1.67
1.0
-0.67
3.0
6.0
3.33
8.33
0.33
7.67
-0.67
0.0
2.0
0.0
-0.33
2.33
-0.33
-4.33
-0.33
-0.67
-0.33
-1.67
1.33
2.67
-1.0
2.67
-2.67
0.33
2.0
5.33
4.67
1.67
1.33
4.33
3.0
-4.0
2.67
-0.67
1.0
-2.67
0.67
1.33
-1.33
0.33
-3.33
-0.67
5.0
6.33
0.0
-2.67
0.0
-4.33
-0.33
1.33
-1.67
-2.67
-0.67
-0.67
1.67
-1.33
-1.0
0.0
-3.33
-4.0
6.33
0.0
-2.33
-2.33
1.0
2.67
-2.67
2.67
-1.0
0.33
-4.67
-4.67
-1.0
-0.33
-3.0
-3.33
0.67
1.0
2.67
-1.67
-0.33
-3.67
4.0
0.0
-3.67
1.0
-1.67
-4.0
-2.67
1.0
-1.67
-4.0
1.33
-2.0
0.0
-6.67
-5.33
-4.33
1.33
-0.33
1.0
-2.33
-3.33
-6.33
2.33
-1.33
1.67
-0.33
1.33
-1.0
2.0
0.33
-5.33
-4.0
-4.33
-8.0
-4.33
-3.0
1.0
-7.0
-2.0
-7.0
-3.0
-1.67
-0.67
-7.0
-8.67
-4.0
-7.33
-6.33
-4.0
-6.0
0.67
-3.33
-4.33
-3.0
-4.33
-6.0
2.67
-1.33
-8.0
-0.33
1.0
-6.67
-0.67
-0.33
12.67
-2.33
8.0
15.0
17.67
27.33
29.0
21.33
20.67
19.67
19.33
8.33
21.33
0.67
4.67
3.33
-5.0
-2.0
1.67
9.33
-1.33
6.67
6.0
6.0
-3.0
0.0
12.67
0.33
-2.33
-0.33
-1.67
8.0
-1.33
-5.67
-1.33
5.33
-9.0
-2.33
-5.0
-9.67
0.33
1.0
2.33
9.0
0.0
3.0
0.0
1.33
-1.33
-2.33
1.0
-5.33
0.67
0.0
-6.67
3.67
-2.67
-4.67
5.33
3.33
-2.33
-2.33
4.67
-5.67
-4.0
3.67
-16.0
-3.67
-1.67
-5.0
0.0
3.0
1.0
-6.33
1.67
1.67
0.67
-5.33
-2.33
-4.0
-2.0
-3.33
-3.67
4.0
-2.33
0.67
-6.0
3.0
0.0
-2.67
3.0
-5.67
-1.33
-3.33
5.67
-2.33
-3.33
-3.0
-1.33
5.0
-6.0
-1.0
1.67
-3.33
8.67
-3.33
-5.67
-8.33
-4.0
2.33
5.67
2.67
6.67
11.33
14.0
19.0
10.67
11.67
14.67
17.33
12.33
13.33
9.0
10.0
-2.0
1.33
17.67
13.67
7.33
3.33
-0.33
1.67
4.0
-1.67
6.67
10.0
-0.67
8.0
6.0
6.67
0.0
3.67
0.0
1.33
1.0
2.0
2.0
13.0
3.67
4.33
1.33
0.33
1.33
6.0
6.0
10.33
3.0
6.33
3.0
-0.33
8.67
-6.67
2.33
1.0
7.33
7.67
-1.0
6.67
6.0
4.0
-1.0
6.33
2.0
4.33
4.33
9.0
6.33
13.0
8.0
13.33
6.67
12.0
18.67
10.67
8.67
7.67
7.33
12.33
3.0
5.67
7.0
12.67
4.33
7.0
34.33
16.67
6.0
11.0
8.0
11.67
2.0
3.67
8.67
4.0
3.67
2.67
5.67
10.33
3.0
11.33
13.33
17.67
1.0
16.33
8.0
8.67
14.33
7.67
8.0
16.33
9.67
13.0
5.33
5.67
8.0
8.33
10.67
18.67
7.33
13.33
11.0
9.33
20.0
16.33
0.67
2.33
13.33
7.33
22.33
11.33
13.67
9.67
17.0
20.0
34.33
20.33
31.33
25.0
32.0
26.67
26.67
49.67
47.33
54.0
80.33
73.0
84.67
108.33
93.67
83.0
81.0
68.0
64.33
73.0
54.0
51.33
43.67
32.0
25.67
22.0
18.33
17.67
13.0
-5.67
11.33
13.67
17.67
2.0
17.0
6.33
11.0
21.0
8.67
5.0
5.33
-4.67
12.0
10.0
-2.33
8.0
16.33
19.33
14.67
4.67
5.33
5.67
4.67
11.0
15.0
1.33
9.33
7.0
11.33
-3.0
20.33
11.0
5.67
3.67
-2.0
-2.33
8.33
7.0
11.0
8.0
-1.67
4.0
8.0
6.33
3.67
15.67
-7.0
13.33
1.0
14.33
5.0
-4.0
14.67
4.67
5.67
3.67
4.33
12.67
10.67
11.0
-2.67
3.67
8.67
6.67
8.33
4.67
19.67
8.0
12.67
-0.67
4.0
-10.0
11.33
18.33
20.0
9.0
12.0
15.67
18.0
28.67
16.33
19.0
25.0
13.33
45.67
34.33
16.67
29.0
20.33
28.0
34.33
24.33
14.33
29.33
22.0
7.0
11.0
4.33
6.33
13.33
6.0
11.0
-1.0
-1.67
9.33
6.33
16.0
4.0
7.0
14.0
0.33
4.33
5.33
-0.67
-3.33
6.33
19.0
14.33
4.67
6.67
10.33
14.67
13.33
5.0
13.67
20.33
12.0
4.33
19.67
2.0
14.0
8.67
10.0
2.0
0.67
5.67
4.33
1.0
8.33
3.33
8.0
7.67
-7.0
-5.67
-2.67
16.0
1.0
3.33
5.33
-11.67
5.67
8.33
9.67
8.33
4.0
9.0
11.0
2.67
3.33
1.67
10.0
5.67
4.0
8.33
0.0
-4.0
1.0
8.67
0.67
3.33
8.0
9.0
-1.67
8.33
8.0
2.33
-3.67
-1.0
10.33
3.33
3.0
5.33
11.67
10.33
8.0
12.67
-5.0
12.0
7.33
0.33
10.67
9.33
9.0
-2.0
4.67
-1.33
0.33
5.67
12.67
0.33
9.67
9.67
-7.67
7.67
-1.33
7.0
6.0
15.33
8.33
-3.67
-1.33
-3.33
0.33
3.0
0.67
6.33
2.33
4.33
5.33
0.0
6.67
-3.0
1.0
-4.67
-1.0
-2.33
12.67
8.67
3.0
20.0
2.67
2.0
-0.33
-3.33
0.67
1.0
3.0
10.0
4.33
4.0
6.67
4.0
-1.33
1.33
4.67
4.67
-0.67
2.67
5.0
4.67
2.0
6.33
9.0
11.67
3.0
0.0
5.33
-5.0
-6.67
-1.0
4.0
-1.33
0.33
4.0
8.33
6.67
-4.0
4.67
2.0
4.33
3.0
8.67
7.0
0.67
0.0
-1.33
8.67
-0.33
6.67
-2.0
6.67
0.0
-1.33
4.0
2.33
4.33
2.67
-1.67
0.0
-5.33
4.67
-3.33
-1.33
1.33
4.67
1.33
8.0
-2.33
-0.67
7.33
0.33
-1.33
0.33
-3.0
4.0
2.33
-0.33
6.33
6.67
-4.33
1.0
3.0
-5.33
0.0
1.0
-2.33
9.33
-1.0
0.0
-8.0
8.33
-2.67
-5.67
-2.0
-1.33
2.67
-2.0
-3.0
-3.0
0.33
-3.0
5.33
-2.33
3.33
0.33
-1.0
-1.67
0.33
4.67
-6.33
-0.33
-4.33
5.0
-4.33
-6.0
-3.67
6.67
-1.0
0.67
-3.0
-4.33