File: EDX Back Ups and Old Files/Spectra copy 3.3.23/Samples/High pH SF 60C 4d/11.75.txt
0.0
-28.33
-15.67
70.67
-39.0
-47.67
-12.0
-58.67
-63.33
-67.33
9.0
1.0
1.0
0.33
7.0
2.67
2.0
-2.67
-2.33
2.0
-2.0
1.0
0.0
-0.67
-0.67
0.33
-0.33
-0.33
-0.67
1.33
0.67
-0.33
-0.67
1.0
1.0
-0.33
0.0
0.67
-0.33
-0.67
-0.33
0.67
-0.33
0.0
-0.33
0.67
-0.33
1.0
0.0
0.67
-1.33
-0.33
-0.33
-0.33
-0.33
-0.67
-0.67
-0.67
-3.0
-0.67
0.67
9.0
5.67
0.33
-1.0
-5.67
3.0
5.67
-0.33
1.0
-0.33
-3.67
-5.0
-2.33
2.33
-1.0
6.0
-0.67
1.33
4.33
1.33
7.0
-1.67
1.67
0.67
0.0
0.67
-1.33
4.33
-0.67
2.33
-3.0
3.0
4.33
-3.67
-2.67
2.0
3.0
0.0
-0.33
-2.33
4.67
5.33
-1.0
1.67
0.0
-2.33
3.67
-4.33
0.33
0.33
-6.67
-7.0
-7.0
-1.0
2.33
4.33
6.0
2.33
-2.67
5.0
1.0
2.0
2.67
4.67
2.33
0.0
7.33
1.33
-4.0
3.67
4.0
4.33
0.33
2.0
6.33
-0.67
-0.33
-0.67
1.33
-3.67
3.33
1.0
-2.0
3.0
5.67
4.67
1.33
-7.67
5.67
-2.33
0.0
3.33
-2.67
-3.0
0.33
6.67
-1.0
0.33
1.33
0.0
-0.33
4.67
-1.67
0.0
4.33
2.33
-4.67
-0.33
-2.0
-3.33
-0.67
4.67
-2.67
-1.0
-1.33
2.0
2.33
-1.0
0.0
0.0
4.0
-0.67
-1.33
-4.67
4.33
3.67
-3.0
-0.33
6.33
-2.67
-0.33
4.33
-2.67
-0.67
-1.0
-1.0
2.67
-2.67
-3.33
-3.67
1.0
-1.33
-1.33
-3.67
0.33
2.67
2.33
-2.33
-0.67
-1.67
4.0
-6.0
7.0
-1.0
-1.33
7.33
-3.67
0.0
6.33
3.67
2.67
-1.33
-0.33
-1.67
5.33
-3.0
3.33
-4.33
0.67
-2.33
-0.67
2.67
-3.33
6.0
-1.67
-1.67
-1.67
0.67
-4.67
2.33
-4.33
-1.67
4.67
-0.33
1.33
0.0
-2.33
-1.0
4.0
-1.67
-1.0
-2.33
2.0
-1.0
-1.67
-2.33
-0.33
0.33
-1.0
4.33
-1.67
2.33
3.0
4.0
2.33
1.33
1.33
3.0
1.0
3.33
0.67
-4.0
1.0
2.33
-1.0
0.33
6.33
-3.33
-1.0
0.33
1.0
-1.33
4.0
-0.67
1.33
-0.67
2.33
1.0
-0.33
-4.0
1.67
-0.67
-2.67
0.67
2.0
-2.33
1.33
-3.33
-2.33
1.67
-1.33
2.67
-1.33
-1.67
-3.0
-1.33
0.0
2.67
-3.33
-5.0
1.67
-1.0
-3.33
-3.0
0.33
-4.0
3.33
0.33
0.0
0.0
-1.67
-0.33
-1.0
-3.33
-3.67
1.33
0.0
0.33
-3.33
1.0
-5.0
-8.0
-4.0
-2.33
-1.67
-3.33
2.33
-3.0
-0.33
-7.33
-1.0
-3.0
-3.0
0.67
0.33
0.0
-5.67
-2.0
-4.0
-4.33
-10.33
-4.67
-0.33
-3.33
-6.67
-10.0
-2.0
-10.0
-3.0
-2.0
-9.33
-5.67
-1.0
-3.67
-7.0
-8.33
-10.0
-6.33
-7.0
-7.67
3.33
-8.33
-6.33
-10.0
0.0
4.0
-7.0
-2.33
-6.0
-7.33
3.67
-2.0
-9.0
-1.0
-7.67
-5.0
-2.33
-9.33
-3.67
-4.33
-7.33
-3.67
-0.33
-1.0
-3.33
-4.33
-6.33
-7.0
-3.33
-5.67
-4.0
-6.33
-8.0
1.0
-5.0
-1.33
1.0
1.67
4.33
-12.67
-3.67
-3.67
-8.0
-3.0
-2.67
-11.0
2.67
-11.33
-6.67
-7.0
-9.33
-14.67
-7.0
-5.0
-7.0
-9.67
-3.67
8.33
-13.33
-4.0
-12.67
3.33
-13.0
-1.67
-4.67
-13.67
-13.33
-5.33
-9.33
-8.0
-5.0
-10.67
-12.0
-4.0
-4.0
-8.33
-5.0
-4.33
-10.33
0.0
-10.33
-4.33
-7.67
-10.33
-7.33
-3.33
0.33
-13.33
-6.67
-2.33
-7.0
-1.67
-8.33
-3.33
1.33
-14.33
-2.0
-4.67
-7.33
-5.67
-4.33
-9.67
-13.0
-8.67
-8.33
-6.67
-12.67
-1.33
-12.33
-7.67
-12.0
0.67
-16.67
-7.33
-5.0
-4.0
-7.33
-9.0
-6.0
-4.33
-1.33
-6.33
-5.33
-11.0
-1.67
-13.33
-4.33
-11.33
4.0
-6.33
6.0
6.0
-7.0
-5.0
-13.67
-5.67
-10.33
0.33
-4.67
-7.33
0.67
23.33
7.33
8.0
21.33
24.0
11.67
47.0
24.0
13.33
22.67
14.0
16.0
6.67
8.67
-1.67
-1.0
-0.33
-13.67
-2.0
3.0
-8.67
-1.67
-4.33
-2.33
-1.33
1.67
-2.33
-1.0
-0.67
2.67
-6.67
0.33
-8.33
2.67
6.67
-3.67
2.33
4.33
14.0
-4.33
15.67
-1.67
-4.67
-5.0
-0.33
-2.33
-1.0
0.67
6.67
3.33
-4.33
3.0
5.67
-4.67
-4.67
-0.67
7.67
0.0
4.67
-4.33
6.67
-5.0
0.33
-3.0
10.67
-6.0
8.33
-2.67
6.0
3.33
0.33
3.0
1.33
1.33
-1.0
9.67
4.0
-2.0
7.33
-10.0
17.0
2.67
6.0
-6.67
0.33
-3.33
3.67
3.33
3.33
4.33
-0.33
-0.33
-4.67
0.67
-2.67
0.33
6.33
7.0
3.0
-1.33
-3.33
3.0
8.0
7.0
2.67
5.67
0.33
-3.33
6.67
12.0
-1.33
5.67
0.67
-8.67
1.67
-6.33
7.33
8.0
0.0
17.67
9.0
4.0
13.0
12.67
12.67
6.33
6.0
10.0
10.67
3.67
24.0
2.0
17.67
27.33
34.0
51.0
50.0
52.33
88.33
129.33
170.67
169.33
217.67
238.0
248.0
266.67
289.33
277.0
251.33
216.33
192.33
180.67
126.0
89.0
59.33
33.0
19.33
22.67
19.33
6.67
4.67
3.33
9.33
13.0
3.0
16.33
14.33
3.0
2.67
1.0
-12.33
6.0
1.0
-1.0
14.33
4.67
14.67
-2.67
7.33
19.67
6.67
3.0
5.67
4.0
5.0
-0.33
-0.67
-4.67
8.0
4.33
0.33
0.67
-7.67
-0.67
10.67
4.67
5.0
1.67
1.33
12.0
-6.0
6.0
7.67
-4.33
8.67
-0.67
-1.67
-1.67
14.0
13.67
2.0
12.0
11.33
7.67
5.33
4.33
14.0
2.0
9.33
6.33
1.67
3.67
2.33
8.0
1.67
-3.67
-4.67
-1.33
7.33
-2.33
2.0
3.67
4.33
-5.33
5.33
1.0
9.67
-2.33
7.0
2.0
8.0
7.67
14.0
0.33
11.0
4.67
7.67
7.67
7.67
7.33
0.67
-0.33
11.67
-0.67
5.67
11.0
8.33
-0.67
-0.67
8.67
8.0
8.67
7.67
2.0
3.33
4.67
2.67
6.67
17.0
11.0
2.67
5.0
9.67
3.67
18.0
13.0
9.0
1.0
5.67
8.33
5.0
10.0
21.67
12.33
8.67
16.33
12.67
9.0
-4.67
15.0
14.33
8.33
15.33
12.67
7.67
8.67
-2.0
-1.0
1.0
-9.33
3.0
1.0
-1.67
1.67
14.33
6.0
4.33
-1.33
6.33
8.67
-0.33
-11.67
11.0
11.67
-3.0
-2.67
8.33
-2.0
15.33
5.67
1.33
-0.67
3.33
-0.33
-5.0
3.33
4.67
-3.67
-9.33
4.67
-4.33
-0.33
-1.0
2.33
3.0
-6.67
8.67
2.0
4.0
5.0
3.67
-1.67
-7.33
-4.0
9.0
-2.33
7.33
-2.0
8.0
-5.67
8.33
5.33
-1.33
3.67
12.33
-2.67
10.0
8.0
9.67
5.33
9.67
4.67
8.33
13.0
5.67
-0.33
3.0
13.0
3.33
2.33
2.33
8.0
-1.33
-2.33
6.67
-4.67
4.0
5.33
2.67
5.67
1.33
-1.67
1.0
2.0
-1.33
-1.33
-5.67
5.0
-3.0
-2.0
-6.0
-3.67
6.67
3.33
-2.67
0.33
10.67
-6.67
4.0
5.67
3.33
-2.33
2.0
-6.33
-6.67
3.33
-8.0
-3.0
7.33
-3.0
7.33
-1.33
0.33
1.0
1.0
7.33
0.33
-0.67
1.0
-1.33
-6.33
-3.33
-2.0
-0.67
-6.33
6.0
10.33
-4.0
0.33
4.33
-0.33
-4.33
-2.33
9.67
7.33
7.0
6.0
-0.67
3.0
0.0
4.67
4.33
8.0
8.67
-1.33
13.67
7.0
8.67
5.33
6.33
4.67
4.0
-6.67
2.0
1.0
3.67
3.67
-4.67
7.33
3.33
-4.0
-4.67
2.67
7.67
-2.33
0.0
1.0
5.33
1.33
-5.0
1.0
2.33
2.0
-0.67
3.0
6.33
4.0
1.33
1.67
-4.33
0.0
1.0
1.33
-0.33
1.67
4.0
2.33
1.67
-5.0
6.33
-1.0
1.0
-1.67
0.33
6.33
3.67
-2.33
6.0
-1.0
-5.67
-2.33
-0.33
-6.0
1.67
0.33
1.67
-3.33
-0.33
-1.0
4.0
1.67
-5.67
2.0