File: EDX Back Ups and Old Files/Spectra copy 3.3.23/Samples/High pH SF 60C 4d/12.0.txt
0.0
-22.33
-68.67
-31.33
22.0
6.33
27.0
3.33
5.67
-46.33
-31.0
-10.0
1.0
0.33
-12.0
1.67
2.0
0.33
-0.33
0.0
-2.0
-1.0
1.0
0.33
0.33
1.33
0.67
-0.33
-0.67
-0.67
-0.33
-0.33
-0.67
0.0
0.0
1.67
0.0
-0.33
-0.33
-0.67
-0.33
-0.33
0.67
0.0
-0.33
-0.33
0.67
1.0
0.0
-0.33
1.67
0.67
0.67
-0.33
2.67
1.33
2.33
-1.67
1.0
-0.67
-0.33
2.0
-3.33
0.33
0.0
-2.67
4.0
-2.33
-0.33
-3.0
3.67
2.33
-3.0
1.67
1.33
2.0
5.0
-10.67
1.33
7.33
-3.67
7.0
0.33
-2.33
3.67
0.0
-0.33
0.67
-1.67
-2.67
-7.67
2.0
3.0
-0.67
-6.67
7.33
-2.0
2.0
2.0
0.67
-5.33
7.67
9.33
6.0
3.67
-4.0
-4.33
-1.33
-2.33
-1.67
1.33
-2.67
4.0
-1.0
-4.0
1.33
6.33
4.0
-3.67
-0.67
4.0
9.0
1.0
2.67
-4.33
3.33
2.0
11.33
2.33
5.0
4.67
3.0
-0.67
12.33
-3.0
-0.67
-5.67
2.67
-6.67
-1.67
8.33
4.33
4.0
2.0
-1.0
2.67
-5.33
6.33
-4.67
3.67
4.67
0.0
0.33
1.33
6.0
4.33
2.67
7.0
6.33
2.33
4.0
6.67
4.67
-1.67
1.0
4.33
3.33
-0.67
-0.33
6.0
1.67
-2.67
6.67
3.33
-8.0
4.67
2.0
-0.67
-1.0
-6.0
-1.0
-4.0
2.33
3.67
-3.67
1.33
8.67
0.0
4.67
8.33
-2.67
1.67
-0.67
-0.67
3.33
7.0
2.0
5.67
3.33
2.67
5.33
1.0
5.67
-2.33
-3.67
1.33
-0.33
2.33
-1.33
4.33
-0.67
0.0
-4.0
-1.0
3.0
-6.33
1.33
1.33
-4.0
-0.67
5.67
-2.33
2.67
6.67
-3.67
-0.67
-2.0
0.33
-4.33
-4.33
4.67
-2.67
0.67
2.67
-1.0
-1.67
-0.67
1.33
3.67
-0.67
6.33
-2.33
-3.67
0.67
-3.33
5.33
0.0
-0.33
-1.0
0.0
1.33
-2.0
1.67
3.0
2.0
-3.67
-1.33
-0.33
0.33
1.0
-3.67
-3.67
3.33
-1.0
6.0
0.33
-3.67
3.33
-2.0
0.0
2.33
-3.33
-1.0
4.0
1.33
-3.0
0.33
0.33
-1.33
0.0
2.33
-2.0
1.67
2.0
-0.67
-0.67
-2.67
1.33
5.0
-2.33
-1.0
1.67
2.33
2.33
-3.33
1.0
-3.33
-0.67
-3.33
-2.33
1.67
-0.33
0.67
-1.33
-0.67
-4.0
4.67
0.0
0.67
-3.33
1.0
1.67
2.0
-0.33
0.0
0.33
-6.0
1.33
7.33
-2.0
-3.0
1.33
-7.33
-3.0
-3.33
2.33
-4.67
0.0
3.33
-0.33
3.0
2.0
-2.0
-5.0
-5.33
-2.67
-3.33
-3.67
-2.0
7.67
-6.33
-7.0
0.0
-2.0
-5.33
-0.67
-4.0
-5.67
-4.0
-5.0
-1.33
-4.33
-2.67
-5.33
-2.33
-3.67
-8.0
-6.0
-9.0
-2.0
0.0
-5.33
-2.67
0.0
0.33
-6.0
-8.33
-7.0
-4.33
-11.0
-7.67
-5.67
-2.33
-6.33
-7.0
-10.0
0.0
-10.0
3.67
2.0
-5.33
-6.33
7.0
-8.0
-8.0
-3.67
-5.0
-5.33
-6.33
-5.67
-6.33
2.67
-5.67
1.67
-6.0
-4.33
-9.33
-6.33
-4.0
-5.33
-4.67
-6.0
-7.33
-7.0
-5.0
2.0
-3.33
2.0
-5.33
-11.67
-10.67
-8.67
-8.67
-11.0
-5.0
-8.67
-7.0
-5.33
-12.33
-6.67
-1.0
-9.33
-3.67
-3.0
-10.0
-8.0
1.33
-11.67
-1.67
-1.33
-5.0
-11.67
-3.67
-4.0
-4.67
-9.67
-4.67
-17.33
-3.33
-7.33
-9.0
-7.0
-13.67
-6.0
-5.0
-8.0
-1.33
0.0
-1.33
-16.33
0.0
-6.33
-6.33
-7.67
-13.33
-5.33
-4.33
-3.67
-11.33
-7.67
-9.33
-7.0
-8.67
-10.33
-12.33
3.33
-13.33
-13.0
-10.67
-10.33
-10.67
-7.33
-6.67
-10.0
-9.67
-17.33
-4.67
-8.67
-10.33
-14.33
-11.67
-15.0
-0.33
-7.67
-7.33
-9.0
-6.0
-8.33
-9.0
-7.0
-15.33
-3.33
-1.33
-10.33
-11.0
1.33
-10.33
-5.33
-4.33
-3.0
-11.33
3.0
-3.0
3.0
2.0
-9.67
-4.67
-4.33
-2.67
-1.67
5.67
0.67
7.33
14.33
19.0
22.33
24.0
12.67
37.0
38.0
21.33
33.67
7.0
13.0
13.67
21.67
4.33
5.0
4.67
-10.67
1.0
-11.0
-2.67
-3.67
10.67
-8.33
-1.33
1.67
-1.33
-6.0
-5.67
1.67
4.33
-4.67
-3.33
12.67
-0.33
-0.67
-2.67
-1.67
-3.0
-0.33
0.67
5.33
-2.67
-4.0
1.67
2.67
-3.0
6.67
-3.33
-0.67
4.67
13.0
9.67
-2.67
-1.67
-2.67
-6.33
3.0
-7.33
5.67
-0.33
-4.0
15.33
-4.0
-1.33
-2.0
6.33
5.33
11.0
3.33
2.33
4.0
2.33
7.33
0.0
8.67
2.0
0.0
-4.67
4.0
8.0
2.67
-8.0
-5.67
6.33
0.67
-2.33
6.33
5.33
-3.67
-2.33
-3.33
5.33
-4.33
-5.67
8.33
-6.67
9.0
-1.0
4.67
-5.33
4.0
9.0
-5.0
4.67
2.67
-4.67
-5.33
-4.33
3.0
4.67
5.67
2.67
-10.67
4.67
-2.33
11.33
11.0
-7.0
-5.33
12.0
-2.0
8.0
3.67
0.67
10.33
5.0
-1.0
17.67
7.67
17.0
1.0
20.67
14.33
29.0
42.0
57.0
78.33
86.33
122.33
175.67
184.33
249.67
250.0
251.0
285.67
296.33
256.0
260.33
263.33
217.33
188.67
158.0
116.0
106.33
42.0
32.33
11.67
-2.67
8.67
21.67
14.33
15.33
19.0
3.0
13.33
14.33
-4.0
-1.33
9.0
-0.33
6.0
2.0
3.0
10.33
10.67
-3.33
-10.67
21.33
8.67
-0.33
7.0
1.67
-1.0
-3.0
7.67
-3.67
-3.67
11.0
7.33
2.33
5.67
19.33
8.33
10.67
2.67
4.0
2.67
11.33
6.0
0.0
0.0
3.67
5.67
8.67
9.33
0.33
6.33
6.0
12.67
12.0
3.0
8.33
17.67
0.33
4.33
6.0
-2.0
6.33
5.33
-1.33
-1.33
-4.67
-8.0
16.67
-10.67
-3.67
1.67
0.33
1.67
4.0
15.67
1.33
4.67
-2.67
-3.0
-5.33
0.67
11.0
-9.0
-4.0
11.67
6.0
11.33
6.0
-0.33
2.67
12.67
11.67
7.33
-8.33
4.67
2.67
-3.67
-3.33
9.0
-5.67
-6.67
-0.67
-1.33
-3.0
13.67
3.67
-1.0
7.33
2.67
-0.33
7.67
9.0
4.0
-0.33
-1.0
-2.33
11.67
12.0
4.0
-7.0
0.0
-4.33
9.33
6.0
5.0
1.67
12.33
-5.33
12.33
11.67
11.0
12.33
6.0
12.33
2.33
18.33
11.67
6.67
15.67
6.0
-10.0
-4.0
8.67
-2.0
-2.0
0.33
-6.33
5.33
2.0
-4.67
12.67
13.33
-0.33
2.67
-0.67
1.0
3.67
12.0
-2.67
4.33
1.0
1.33
-2.33
-1.67
-2.67
4.33
9.67
4.0
4.33
-8.33
4.33
-6.33
-3.33
-2.33
-8.33
0.0
-0.67
0.0
-1.67
-1.33
-1.0
11.0
4.0
17.67
-9.67
-11.33
10.0
16.0
-1.33
0.33
5.0
-1.0
-4.67
1.33
3.33
-4.33
5.67
9.33
7.33
6.0
14.0
3.67
1.33
4.67
13.67
9.33
12.0
11.67
15.67
3.0
11.0
9.33
-5.67
3.33
13.0
2.67
-5.33
2.67
8.33
3.0
0.33
-13.33
0.67
0.33
-5.67
0.0
-3.0
1.67
-0.33
-4.67
-3.0
-2.0
1.0
-5.0
-3.67
1.67
6.33
3.33
-1.67
0.67
-4.67
1.0
2.67
-0.67
7.67
-4.0
-3.33
3.33
3.33
-6.0
-2.0
4.33
-7.0
0.33
-0.33
-1.67
1.0
-5.0
2.33
-6.67
-3.67
-1.0
-2.33
1.67
-2.33
5.0
2.33
-0.33
3.0
5.33
-4.0
1.33
1.33
3.67
2.67
8.67
8.67
6.33
0.0
3.0
7.33
15.0
6.0
10.67
9.33
4.0
8.67
5.67
1.67
11.0
6.67
7.33
3.33
-0.33
3.0
-2.67
-1.0
2.0
0.67
3.67
-5.67
3.33
-3.67
-2.0
-1.67
-1.33
3.67
0.67
7.0
10.0
-0.67
1.33
-1.0
6.0
1.33
6.0
-2.67
3.0
-3.67
-6.0
-0.67
-5.33
7.67
0.0
-3.0
-2.67
4.67
-5.33
-2.0
-1.67
-4.33
0.0
1.33
-1.0
4.0
-7.67
-0.67
2.33
0.67
-6.33
0.0
0.0
-5.67
-0.33
-3.33
-5.0
1.67
4.33
2.67
-2.33
2.67
-3.0
3.0
9.67
2.33
8.0