File: EDX Back Ups and Old Files/Spectra copy 3.3.23/Samples/High pH SF 60C 4d/6.25.txt
0.0
-1.33
101.33
1.67
-70.0
-19.67
50.0
33.33
-46.33
-15.33
14.0
10.0
26.0
10.33
-3.0
7.67
-3.0
-1.67
-1.33
0.0
1.0
0.0
1.0
-0.67
-0.67
-0.67
1.67
-0.33
-0.67
-0.67
0.67
0.67
-0.67
0.0
0.0
0.67
1.0
-0.33
-0.33
-0.67
0.67
-0.33
-0.33
1.0
-0.33
1.67
-0.33
0.0
2.0
-0.33
-1.33
0.67
1.67
1.67
0.67
1.33
1.33
1.33
0.0
1.33
0.67
0.0
4.67
3.33
1.0
4.33
0.0
3.67
0.67
4.0
3.67
-3.67
1.0
3.67
-2.67
-8.0
0.0
-7.67
-0.67
4.33
3.33
5.0
3.33
4.67
-2.33
2.0
4.67
2.67
10.33
-3.67
-0.67
-2.0
1.0
1.33
3.33
11.33
0.0
-4.0
7.0
10.67
1.67
6.67
2.33
3.0
8.67
-5.0
-4.33
3.67
6.67
5.33
-0.67
6.33
-1.0
-1.0
-6.0
-4.67
-0.67
0.0
8.33
-7.67
6.0
8.0
1.0
-2.33
2.67
5.33
3.0
10.33
-1.67
0.0
5.67
4.0
7.33
8.33
0.0
2.33
-5.67
4.67
1.33
6.33
1.33
2.33
0.0
0.0
9.0
3.67
0.67
4.33
3.33
2.67
-2.33
1.0
-3.67
-2.67
2.0
5.33
7.67
-2.0
0.33
2.33
0.0
-2.33
13.67
6.33
1.0
7.33
5.33
-1.67
3.67
1.0
2.67
-3.67
5.67
2.33
0.0
-1.33
3.0
10.33
-6.0
1.0
8.0
2.0
5.33
-1.33
-1.67
0.33
0.67
0.0
1.67
2.33
6.33
0.67
-2.67
-3.67
7.33
5.0
-2.0
1.67
1.33
4.67
2.33
3.0
-3.33
0.67
-3.67
2.33
2.67
5.33
0.67
-0.67
4.33
4.0
4.0
7.0
6.0
-4.33
0.33
0.33
5.0
3.33
5.67
0.67
-2.33
5.67
-0.67
-2.67
-1.0
-2.67
-6.33
-5.33
1.67
-0.67
4.67
3.67
0.0
4.33
3.33
-2.67
0.67
4.33
9.33
0.67
1.33
0.67
1.67
1.33
-1.0
2.67
-3.0
2.0
7.33
1.0
-0.33
-2.0
2.0
3.33
-2.33
-3.33
1.33
0.0
-0.67
-0.67
5.33
0.0
3.0
1.33
-0.67
0.33
2.0
-3.0
0.33
0.67
-2.0
3.0
5.33
-4.0
0.33
4.33
1.67
2.0
-2.67
1.0
-3.33
-2.0
1.33
3.33
-1.67
5.33
3.0
0.67
0.0
1.67
1.33
-2.67
0.67
2.0
0.67
1.33
0.67
1.67
0.67
-1.33
-0.33
1.67
-0.67
-4.0
4.67
-1.0
-0.33
1.67
0.0
-0.33
-6.0
0.67
-3.0
-2.67
3.0
-2.67
1.33
5.0
-5.0
-0.67
-1.33
-2.0
4.67
-4.67
-2.67
1.0
2.33
-6.33
4.0
1.0
-6.0
1.0
0.67
-3.67
-4.33
-2.67
1.0
-0.33
-4.33
-6.0
-3.0
1.0
-2.33
-3.67
-1.0
-6.67
3.0
-3.0
-2.33
-4.33
-1.67
-5.33
-5.33
-4.67
-6.0
-3.0
-6.0
-5.0
4.0
-2.33
-2.67
0.0
-5.67
-6.0
-9.33
-8.0
-7.33
-9.0
-5.67
-4.67
-5.33
-4.33
-10.0
-3.0
2.0
-8.0
-0.33
-7.0
-5.33
-4.33
-3.0
0.0
-6.0
-7.67
-11.0
-3.33
-8.33
-6.67
-1.33
-5.33
-5.67
-11.33
-5.0
-0.33
0.67
1.67
-3.0
-1.33
9.33
12.0
-0.33
15.0
8.0
31.0
24.67
18.0
21.67
-0.67
11.33
7.33
2.33
-4.0
-4.0
-7.67
-7.0
-0.33
-6.33
0.33
-6.0
-3.33
-4.67
-6.0
-9.0
-2.0
-2.67
-3.67
0.33
-3.33
3.0
-10.67
-3.67
-12.0
-1.67
-7.67
-4.67
-15.33
-5.33
-3.33
-5.0
-7.0
-1.67
-4.0
-12.0
5.0
-4.33
-8.0
-13.33
-9.33
-5.0
-4.33
1.67
-6.67
-13.33
0.67
0.67
-6.67
-7.33
-13.67
1.67
-5.0
-5.67
-8.33
-8.33
-0.67
-20.33
-2.0
-4.67
-12.33
-4.67
-8.33
-18.67
-7.0
-11.67
-17.33
-12.67
-1.67
-8.33
-9.33
-2.67
-17.0
-2.33
-13.67
-5.33
-13.0
-7.0
-3.33
-7.0
-11.0
-13.33
-8.33
-11.33
-3.33
-14.0
-1.67
-9.33
-12.33
-6.33
-1.0
-7.33
-5.0
-1.0
-7.0
-6.0
-2.67
0.33
-7.33
-2.67
-1.67
4.67
1.67
11.33
2.33
6.0
12.33
2.0
9.67
10.0
9.0
7.33
12.67
-1.0
3.0
2.67
11.67
-2.67
-8.0
-3.33
-17.67
-10.0
4.0
-8.67
5.33
-0.33
-3.33
1.67
2.67
-2.33
-1.0
-4.67
-1.33
-5.67
7.33
4.67
6.67
4.67
-5.67
-6.67
6.33
0.0
-2.33
7.67
-2.67
-1.67
-1.0
2.67
-6.33
4.0
3.67
-3.33
-1.67
-5.33
4.0
9.67
5.33
-1.67
-0.67
2.67
-1.0
17.67
-0.33
-3.33
-2.0
10.33
7.0
5.67
-5.0
13.33
0.33
8.0
11.33
13.33
1.0
3.33
1.33
5.0
1.67
3.0
14.0
5.33
8.0
8.0
14.67
9.0
-3.67
2.33
-1.33
4.67
6.33
8.33
-0.67
-0.33
2.67
8.33
7.67
-3.67
3.33
-1.67
-1.0
0.0
-4.33
-4.33
14.0
4.0
4.0
-10.33
3.67
-0.67
3.67
1.67
2.0
13.67
12.67
-6.33
-1.67
-0.33
3.67
0.33
-1.0
-1.0
10.67
7.0
10.0
0.0
9.67
14.67
9.33
6.0
-7.0
21.67
15.67
23.0
7.0
17.67
20.33
12.0
14.0
37.0
30.33
39.33
37.33
50.67
66.33
55.67
58.0
72.0
75.67
73.33
76.0
81.33
56.33
70.33
45.67
42.0
36.0
33.33
8.0
18.33
19.67
2.33
20.67
8.67
8.33
10.33
12.0
-5.0
6.33
10.33
0.0
-0.33
-1.0
7.67
12.0
1.0
1.0
11.33
5.67
4.67
5.33
16.33
8.67
3.67
4.0
4.67
16.0
4.0
4.67
6.33
2.33
13.0
6.33
6.33
-0.33
13.33
7.33
10.67
15.67
2.0
-0.33
18.33
9.0
15.0
-2.0
14.67
0.67
18.67
9.33
0.33
15.33
0.0
17.67
4.0
6.0
3.33
27.67
7.33
14.33
0.0
0.0
7.33
9.33
2.67
9.67
0.33
-1.0
4.67
-1.67
10.33
7.67
9.33
-2.33
2.0
11.67
6.33
6.67
-1.67
6.0
3.67
3.67
10.0
17.0
18.0
33.67
12.0
12.33
11.0
15.67
15.67
32.67
33.67
14.33
5.67
28.67
25.67
21.33
12.67
38.0
11.33
5.33
4.33
7.67
4.0
13.67
5.67
1.0
14.33
9.67
8.67
0.67
6.0
4.0
12.67
5.0
8.67
9.67
5.0
7.0
8.0
14.0
-6.33
10.33
5.0
3.0
2.67
3.33
12.67
5.33
1.67
14.0
0.33
7.0
5.33
0.33
4.33
4.67
16.67
2.67
5.0
-6.0
-4.0
3.67
0.0
0.0
12.33
7.67
11.33
4.0
0.33
7.67
18.33
8.67
4.67
14.33
4.0
6.67
-5.0
4.33
0.33
9.0
1.33
9.67
-2.67
3.33
9.33
6.67
2.0
8.33
-1.33
0.33
-5.33
10.67
-2.33
-3.33
-7.0
8.33
-3.0
7.33
4.67
-2.0
-2.0
5.0
0.67
1.33
-3.33
8.0
4.0
-3.33
0.33
-10.0
11.0
6.33
6.33
7.33
6.67
-2.33
3.33
-2.67
8.0
6.0
0.67
10.33
13.67
-2.33
9.33
2.0
3.67
10.67
-2.0
2.0
7.33
1.33
2.33
-2.0
3.67
-0.33
-3.33
15.33
6.0
6.33
1.67
-1.33
3.33
9.33
0.0
-7.0
0.67
-1.33
-6.67
0.0
1.0
-1.0
-1.0
4.33
2.67
8.33
4.33
6.33
4.67
2.33
2.0
2.67
-0.67
6.67
6.0
1.67
2.33
-2.67
0.0
-2.0
8.33
-6.0
2.33
4.67
0.33
5.0
8.0
-5.67
-2.67
3.33
0.0
3.67
1.67
1.67
0.0
6.33
4.67
7.0
-2.67
4.0
4.33
2.33
-0.33
-0.33
1.67
-3.33
13.33
7.0
7.0
5.33
5.0
5.0
1.67
-3.67
6.0
5.67
0.67
7.67
2.0
3.67
-1.67
-0.67
-0.33
2.0
1.33
0.0
-1.0
10.67
3.67
-1.67
7.33
5.33
-1.0
-0.67
-0.33
5.67
1.67
3.0
3.0
0.33
1.33
-2.0
4.0
-3.67
1.0
-5.67
2.0
-1.67
0.0
6.33
3.67
2.67
-1.0
-3.0
2.33
3.67
-4.33
2.0
5.33
5.67
-4.0
9.33
-6.0
6.0
-3.67
-1.67
6.33
3.67
-2.33
7.0
-1.0
-0.67
1.67
-7.33
-3.0
3.67
-4.67
2.67
4.67
2.67
-2.0
1.0
3.67
3.33
6.0