File: EDX Back Ups and Old Files/Spectra copy 3.3.23/Samples/High pH SF 60C 4d/6.75.txt
0.0
84.67
37.33
117.67
-9.0
0.33
4.0
60.33
30.67
-62.33
-3.0
-7.0
25.0
-8.67
3.0
2.67
1.0
3.33
-2.33
0.0
-2.0
1.0
0.0
0.33
-0.67
-0.67
-0.33
0.67
0.33
0.33
-0.33
-0.33
-0.67
1.0
1.0
0.67
0.0
-0.33
-0.33
-0.67
0.67
0.67
2.67
0.0
-0.33
-0.33
-0.33
2.0
-1.0
0.67
-0.33
-0.33
2.67
0.67
3.67
0.33
4.33
1.33
0.0
-1.67
3.67
0.0
-0.33
3.33
2.0
-0.67
2.0
-1.33
-2.33
2.0
1.67
-2.67
9.0
-1.33
5.33
-1.0
1.0
-0.67
-0.67
3.33
-0.67
-2.0
2.33
-1.33
1.67
4.0
1.67
-5.33
-1.67
0.33
8.33
-4.0
-4.0
-3.67
-0.67
1.33
2.0
-3.0
1.0
-1.33
-2.33
0.67
4.33
1.0
4.67
-1.0
0.67
-1.33
-2.33
-0.67
3.33
0.33
0.0
2.0
1.0
-1.67
-0.67
13.0
-2.67
-3.67
-5.0
4.0
1.0
2.67
-4.33
12.33
2.0
4.33
0.33
-7.0
3.67
3.0
8.33
7.33
4.0
3.33
-1.67
6.67
1.33
2.33
1.33
3.33
4.0
-5.0
0.0
11.67
5.67
3.33
-0.67
5.67
-6.33
9.0
2.33
1.33
4.0
0.33
7.67
3.0
0.33
4.33
6.0
0.67
7.67
2.33
-3.0
11.33
-2.67
1.33
5.67
0.0
3.67
-3.67
9.67
0.33
-6.0
0.67
1.0
9.33
2.0
7.0
5.0
-5.0
3.33
1.67
2.33
0.33
3.67
-4.0
1.67
2.33
-3.67
4.67
4.33
1.33
3.33
7.0
0.0
6.67
6.33
2.67
3.33
1.0
4.67
1.67
-3.67
2.33
-6.33
4.33
5.67
2.33
2.33
8.0
-1.0
5.0
3.0
0.67
1.33
0.33
-3.0
-0.67
1.67
1.67
1.67
-0.33
-0.67
1.33
0.0
1.33
-1.33
0.67
6.67
-2.67
2.67
3.67
-2.0
5.33
-0.67
2.33
7.67
1.33
7.33
-0.33
-2.67
3.67
1.67
0.33
-1.0
3.67
2.0
9.0
3.33
-2.0
-3.33
3.0
-1.0
2.33
-2.33
-0.33
3.33
-3.0
-3.67
-0.67
2.33
4.0
5.0
-3.67
2.33
0.33
0.0
-4.0
-0.67
2.67
0.0
7.0
1.33
-2.0
4.33
5.33
-2.33
1.0
1.33
-1.0
-0.33
1.0
1.33
0.33
3.33
1.33
4.0
0.67
4.0
-0.33
-0.67
-1.67
1.67
1.0
-0.33
3.33
1.67
2.67
-0.33
0.67
-2.33
-3.33
0.33
2.0
0.67
-4.0
-4.33
-5.33
1.0
3.67
-1.0
-3.33
0.0
-1.67
-2.0
1.33
-1.67
0.0
-3.0
0.33
-0.33
0.0
-2.33
1.33
-1.67
2.0
-0.67
-5.33
0.0
2.0
-2.0
-8.0
-3.33
-4.67
-7.33
-4.67
-6.0
-1.33
-0.33
-2.0
-5.0
2.0
-5.33
-7.67
0.0
-1.67
-4.0
-4.0
-2.33
-5.33
-1.67
-3.33
-7.33
-4.67
-2.0
-3.0
-3.0
-2.0
2.0
-8.33
-3.67
-1.0
-7.67
-4.0
-8.33
-8.0
-10.33
-8.0
-3.67
-1.67
-3.33
-3.33
-8.0
-7.0
-3.0
-11.0
-2.33
-6.0
-8.33
-5.33
-6.0
-13.0
-4.0
-4.67
-3.0
-5.33
-7.33
-2.67
-5.33
0.67
-4.67
-10.33
1.0
-2.33
-1.33
-3.33
-7.0
0.67
-4.67
-2.0
-4.33
4.0
11.0
13.0
19.67
20.0
13.67
5.33
3.33
14.33
6.33
-2.0
1.0
-4.67
-10.0
-10.33
-11.33
-10.67
-5.0
-6.33
-0.67
-5.0
-7.0
-1.0
8.33
-6.67
-2.67
-7.33
0.0
-15.67
-2.67
-10.0
-7.67
-5.67
-11.67
-13.33
0.67
-0.33
0.0
-9.0
-11.67
-10.0
-8.0
-8.0
-3.33
-9.0
-6.33
-17.33
2.0
-6.33
-9.33
-5.67
-1.33
-4.33
-8.33
2.33
-0.33
-9.67
-7.33
-7.0
-0.67
-10.33
-4.33
-6.67
-9.33
-5.0
-12.67
-6.33
-8.67
-4.33
-10.67
-9.0
-7.67
-13.33
-4.67
-9.67
-12.33
-12.33
-10.67
-7.0
-9.33
1.33
-6.33
5.0
-7.0
-5.33
-15.0
-8.0
-3.33
-14.33
-3.33
-9.33
-4.0
-5.67
-9.33
-3.33
-4.33
-2.0
-5.33
-6.0
-13.0
-8.0
-9.0
-8.67
-4.67
-14.33
-4.67
0.33
-1.33
-5.33
3.33
3.33
7.0
15.33
-1.0
3.67
9.0
14.0
12.33
11.67
8.0
-2.0
6.67
6.67
-4.67
-3.0
7.67
-8.67
-2.0
3.0
-9.67
4.33
0.67
-8.33
0.67
-5.33
1.67
-6.0
2.33
1.67
-4.67
9.33
-8.33
4.67
-11.33
-3.67
-0.67
-2.67
13.0
-2.33
-0.33
2.33
-9.67
-5.0
-3.33
2.67
5.0
6.67
3.67
-0.67
-5.33
6.0
-6.33
-1.67
-0.67
5.33
-3.33
-4.0
5.67
-1.33
11.67
2.0
2.33
2.0
-3.33
8.0
5.33
1.33
-4.0
-4.67
-1.67
5.0
5.33
0.33
2.0
1.67
2.0
4.0
10.33
15.0
16.0
14.67
12.0
-6.67
10.33
3.67
3.67
-1.67
2.33
-6.67
6.67
10.67
5.33
3.67
-0.67
-1.67
-0.67
12.0
7.0
5.67
3.67
7.0
9.0
8.0
-4.33
7.67
3.33
-1.33
-2.33
1.0
7.67
0.67
4.67
-7.67
4.67
11.67
9.33
15.0
-1.0
1.67
7.0
10.0
5.0
6.67
-1.33
1.33
7.0
9.0
22.67
6.67
14.0
-1.0
11.67
21.33
15.0
21.0
19.0
25.33
36.33
24.33
45.67
62.33
64.67
71.0
85.0
87.67
80.33
80.0
80.33
73.33
52.33
68.67
36.0
31.0
37.33
16.0
10.33
15.67
13.33
-2.33
7.67
-0.67
3.33
10.0
9.0
3.33
9.33
11.0
3.67
4.0
1.67
8.0
-2.0
10.0
8.33
-0.33
6.67
0.33
5.33
14.67
11.67
6.0
5.67
0.0
-4.0
4.67
4.33
2.33
-1.0
1.33
-6.67
0.67
9.33
9.33
5.67
8.67
1.0
17.67
3.33
14.0
5.0
7.0
3.67
5.67
7.67
12.33
-2.67
10.33
13.0
7.67
10.0
6.0
0.33
10.67
3.33
11.33
6.0
-2.0
8.33
5.33
3.67
6.67
0.33
6.0
-3.33
11.33
-4.67
17.67
11.33
8.67
12.0
9.67
10.33
4.67
1.33
10.0
15.67
20.67
22.0
14.0
27.0
20.67
19.0
29.33
4.0
29.67
20.67
31.67
37.67
32.33
17.67
24.67
16.67
29.33
9.67
23.0
19.33
-6.67
17.33
2.67
16.0
11.67
8.67
3.0
5.33
8.67
8.67
-9.33
7.0
0.0
6.67
12.0
-1.33
-3.33
1.0
-1.0
21.0
4.0
-8.33
7.33
5.0
-1.0
14.67
4.33
3.67
17.33
14.67
-10.0
4.33
11.0
2.33
9.33
12.33
9.67
6.67
2.67
19.0
-3.0
-1.0
2.67
11.0
2.0
13.33
8.67
7.33
14.0
2.33
8.67
3.33
5.67
5.67
-0.67
11.0
8.67
-2.0
-0.67
4.33
5.0
11.33
10.67
0.33
-4.67
-2.67
-1.33
5.0
5.33
-4.33
1.33
-2.33
3.67
-1.33
4.67
4.0
3.33
0.0
2.33
9.67
6.0
1.0
-4.0
-4.33
1.33
5.67
1.0
6.0
-1.33
9.33
7.0
11.0
2.33
-2.67
10.33
-6.33
5.67
9.33
-4.67
6.0
24.0
2.67
5.33
-0.33
12.67
8.33
-2.0
5.67
-3.33
-1.0
3.0
6.33
4.33
7.33
0.0
-11.33
0.67
2.67
5.33
6.0
7.33
-3.33
1.67
7.33
-6.67
9.0
1.0
10.67
1.67
-3.67
-2.0
2.0
2.0
-7.0
6.33
5.67
7.33
3.33
0.33
12.67
-2.67
10.0
11.67
-0.67
15.67
9.0
-1.33
13.33
10.33
0.0
1.0
1.33
6.0
5.33
8.67
-5.67
2.0
7.0
3.33
1.33
6.33
7.0
5.67
-3.33
-0.33
9.0
10.33
11.67
10.0
9.33
2.0
-3.67
0.33
-3.33
2.67
7.67
-0.33
-0.67
1.0
5.0
-1.67
3.0
0.0
10.67
-6.67
8.0
5.67
4.67
2.67
10.0
-3.33
4.33
4.33
2.67
16.0
2.33
0.0
1.0
3.67
3.67
0.33
7.33
-0.67
3.0
-1.67
3.67
0.67
2.67
0.0
1.0
2.33
6.33
0.0
5.0
-1.67
-2.0
-2.67
2.0
-1.67
1.0
4.33
1.67
1.67
3.0
7.0
3.33
0.67
2.67
4.0
0.33
4.67
1.0
6.33
2.0
6.0
-3.67
-2.67
2.33
5.67
-5.33
3.0
1.0
0.33
5.67
4.67
-6.0
1.67
4.33
2.67
7.67
3.67
1.0
-2.0
6.67
-3.67
5.0