File: EDX Back Ups and Old Files/Spectra copy 3.3.23/Samples/High pH SF 60C 4d/8.0.txt
0.0
-48.33
114.33
79.67
15.0
5.33
9.0
45.33
44.67
7.67
29.0
18.0
18.0
7.33
6.0
1.67
-3.0
1.33
-2.33
0.0
-2.0
0.0
0.0
-0.67
1.33
0.33
-0.33
-0.33
-0.67
-0.67
-0.33
1.67
0.33
2.0
0.0
-0.33
1.0
0.67
-0.33
-0.67
0.67
-0.33
-0.33
0.0
0.67
-0.33
0.67
2.0
0.0
1.67
-0.33
-1.33
-0.33
1.67
-0.33
-0.67
2.33
1.33
2.0
-2.67
0.67
6.0
-0.33
-1.67
-2.0
2.33
0.0
3.67
0.67
5.0
-1.33
2.33
2.0
-2.33
1.33
3.0
-5.0
0.33
-2.67
3.33
0.33
5.0
-2.67
0.67
-0.33
-4.0
-3.33
-2.33
2.33
4.33
7.33
-2.0
1.0
8.33
-6.67
-2.67
0.0
1.0
6.0
5.67
-4.33
-0.33
3.33
1.0
7.67
-5.0
-3.33
4.67
0.67
-2.67
5.33
8.33
-1.0
4.0
-3.0
1.33
1.33
2.0
8.33
-1.67
2.0
3.0
0.0
7.67
0.67
2.33
4.0
12.33
-3.67
2.0
-0.33
4.0
1.33
3.33
-2.0
9.33
-5.67
0.67
5.33
6.33
3.33
-1.67
-2.0
-1.0
0.0
5.67
5.67
-2.67
0.33
1.67
-5.33
4.0
-3.67
-4.67
-1.0
-3.67
-0.33
6.0
-3.67
-2.67
3.0
-1.33
7.67
5.33
4.0
1.33
-2.67
-8.67
1.67
-2.0
2.67
-6.67
7.67
1.33
5.0
1.67
-4.0
2.33
-3.0
0.0
6.0
3.0
3.33
5.67
-2.67
3.33
-1.33
1.0
3.67
-0.67
2.33
3.67
0.33
2.33
4.33
1.0
5.0
5.67
0.33
6.67
5.33
3.0
7.67
0.67
-3.67
2.33
-2.33
-2.67
-2.33
-1.67
0.33
7.0
1.0
0.0
4.0
-4.33
3.33
-2.67
-3.0
5.33
2.67
-3.33
0.67
7.67
5.33
1.33
-2.0
-0.67
-4.33
5.67
2.67
5.33
3.67
4.67
3.0
-1.67
2.33
-2.67
2.67
0.33
5.33
-2.33
0.33
1.67
0.67
-1.67
-1.0
5.67
0.0
0.0
2.33
-2.0
-0.33
4.0
0.0
-1.67
-1.33
-0.33
-1.67
4.0
-1.67
0.33
2.33
2.0
5.0
0.33
0.33
0.33
0.0
-5.0
-0.67
4.67
-2.0
0.0
5.33
7.0
3.33
1.33
-2.33
1.0
-0.67
5.0
3.67
5.0
-2.67
1.33
-2.67
0.33
1.0
-3.33
-2.0
-1.33
0.33
-1.67
0.67
3.0
-1.33
-0.67
-1.33
0.67
-0.33
-4.33
-0.33
-2.33
3.33
-3.0
-0.33
-2.0
-0.33
-5.33
-4.0
-1.33
-4.0
-4.33
-4.0
3.33
-5.0
2.33
-3.67
2.0
0.0
-0.67
-1.33
3.0
-1.33
-2.67
3.33
3.0
-2.67
-2.33
4.0
-1.0
-5.0
-3.0
-6.33
-2.67
-1.33
-2.67
-2.0
1.67
-4.33
-3.0
-6.0
3.0
-4.33
-0.67
-5.0
-5.67
-5.0
-4.0
-2.33
-2.33
-2.67
-6.33
-3.33
1.33
-2.0
-1.0
-4.0
-4.0
4.0
-5.33
-5.67
-3.0
-4.67
-7.0
-5.33
-11.0
-9.33
-10.0
-2.67
-5.67
1.67
-8.33
-12.0
-11.0
-4.0
-10.0
-1.33
-3.0
-8.33
-3.33
-1.0
-9.0
-2.0
-8.67
-8.0
-2.33
-4.33
-3.67
-4.33
-0.33
-7.67
-8.33
1.0
2.67
-1.33
0.67
-3.0
-0.33
9.33
8.0
4.67
16.0
13.0
25.0
28.67
26.0
21.67
9.33
6.33
8.33
7.33
-4.0
-4.0
-0.67
-12.0
-8.33
-3.33
-4.67
-5.0
-9.33
-2.67
-1.0
-6.0
-6.0
-1.67
-9.67
6.33
-4.33
2.0
-12.67
-1.67
-7.0
-5.67
-5.67
-10.67
-11.33
-5.33
-5.33
-7.0
-2.0
-10.67
-10.0
-5.0
-5.0
-8.33
-5.0
-7.33
-11.33
-7.0
-3.33
-8.33
-7.67
-10.33
-6.33
-7.33
-6.67
-2.33
5.33
-1.33
-5.0
-0.67
-12.33
5.67
-5.67
-14.33
-4.0
-8.67
-8.33
-14.67
-7.33
-15.67
-8.0
-11.67
-16.33
-6.67
-9.67
-9.33
-5.33
-7.67
-12.0
-4.33
-14.67
6.67
-3.0
-2.0
-12.33
-15.0
-11.0
-11.33
0.67
-4.33
-10.33
-7.0
-0.67
-5.33
-8.33
-9.33
0.0
-7.33
-4.0
-7.0
-13.0
-8.0
-6.67
-6.67
-13.33
-4.67
2.33
-0.33
-1.33
-1.67
-1.67
10.0
15.33
-6.0
10.67
19.0
14.0
4.33
11.67
8.0
5.0
6.67
4.67
-0.67
-6.0
3.67
-18.67
-3.0
-5.0
-8.67
2.33
-1.33
-0.33
0.67
4.67
-3.33
0.0
-1.67
0.67
-3.67
14.33
-2.33
3.67
-0.33
-5.67
-0.67
5.33
1.0
-7.33
1.67
4.33
-1.67
-6.0
-2.33
-0.33
6.0
2.67
0.67
-2.67
1.67
0.0
-1.33
-2.67
-4.67
5.33
-0.33
-9.0
2.67
-5.33
4.67
3.0
-0.67
2.0
3.67
4.0
5.33
-4.67
15.0
0.33
-1.67
7.0
-6.67
6.33
12.0
5.67
-2.0
10.0
-0.67
1.0
8.0
14.67
5.0
-6.67
4.33
-1.33
-1.33
7.33
6.33
-3.67
6.67
9.67
0.33
1.67
3.33
-5.67
-1.67
-3.0
2.0
-2.33
-2.33
1.0
7.0
4.0
2.67
7.67
-2.67
1.67
14.67
-2.0
-0.33
5.67
0.67
2.33
1.67
6.67
2.33
4.0
7.0
-0.33
4.0
-3.0
9.0
4.67
8.67
7.33
13.0
18.0
13.67
17.67
20.0
16.0
30.67
20.33
13.0
28.0
31.0
24.33
21.33
49.33
46.67
56.33
63.67
76.0
80.0
85.67
79.33
90.0
90.33
91.33
88.33
65.67
50.0
53.0
49.33
14.0
16.33
14.67
8.33
3.67
13.67
3.33
6.33
9.0
-3.0
19.33
33.33
-3.0
1.67
13.0
11.67
8.0
13.0
5.0
-1.67
5.67
-2.33
-0.67
19.33
1.67
4.67
9.0
13.67
16.0
10.0
3.67
-3.67
2.33
-4.0
9.33
3.33
12.67
11.33
6.33
-2.33
9.67
-2.0
4.67
15.33
18.0
10.0
2.0
-2.33
4.67
8.67
8.33
7.33
5.33
0.0
20.67
9.0
9.0
15.33
11.67
10.33
10.33
0.0
4.0
12.33
-0.67
-3.33
6.67
1.33
0.0
10.67
-1.67
-0.67
13.67
-0.67
9.67
13.0
1.67
14.33
3.67
2.33
20.0
7.67
13.67
5.0
15.0
18.0
29.67
28.0
17.33
0.0
22.67
35.67
30.67
41.67
32.33
16.67
26.67
29.67
11.33
6.67
29.0
31.33
8.33
27.33
9.67
6.0
2.67
10.67
16.0
8.33
-5.33
11.67
8.67
4.0
8.0
-2.33
1.0
5.67
17.67
29.0
6.0
11.0
18.0
8.67
4.33
8.0
-1.0
-1.33
0.33
9.67
14.33
11.67
4.0
-1.67
6.0
21.33
1.33
17.33
6.67
12.67
8.67
7.0
-2.0
0.0
-0.33
10.0
6.0
11.33
2.67
8.33
2.0
5.33
24.67
-1.67
6.67
-1.33
2.33
-6.0
3.67
6.0
10.33
-3.67
9.0
13.33
7.67
1.33
3.33
-5.67
2.67
14.0
6.33
-9.33
6.33
-10.33
-1.33
-4.33
-9.33
2.0
6.33
3.0
-0.67
-0.33
4.0
7.0
18.0
3.67
4.33
-5.33
21.0
-2.0
10.67
13.33
-2.0
6.0
-2.67
9.33
-3.67
7.67
2.67
6.33
0.33
4.0
11.0
6.67
0.33
6.67
5.67
9.33
3.0
1.67
12.67
-8.0
5.0
10.33
1.33
0.33
4.0
-1.33
10.67
2.67
-8.67
10.0
1.33
0.67
6.67
6.33
-3.67
-4.0
-7.0
-4.33
3.67
0.33
-3.0
3.0
-2.0
1.0
2.33
-1.33
-4.67
6.33
2.33
1.67
6.33
0.0
-0.33
2.33
2.67
0.0
-7.33
-3.67
2.33
-4.0
-1.0
10.33
-10.0
-0.67
1.67
0.33
11.0
1.0
4.33
2.33
-0.67
-2.0
1.67
0.67
-1.33
3.0
-0.67
7.67
-2.0
4.33
-5.0
5.33
0.33
-3.33
2.67
9.67
7.67
6.33
-3.0
8.0
-0.67
0.0
1.0
4.67
-1.67
-2.0
6.67
0.67
4.67
4.0
1.67
3.33
-2.67
0.67
1.0
-4.67
0.0
-2.0
1.67
5.67
3.33
0.33
6.33
1.0
-7.67
7.67
1.67
-2.33
0.0
4.0
-3.67
2.33
-2.0
5.0
0.33
4.0
-0.67
-4.0
0.33
-2.0
1.33
1.67
8.67
-1.0
2.0
0.33
1.67
-4.33
0.0
-0.67
2.67
-2.0
6.33
-1.0
1.0
-1.67
1.33
3.33
-2.33
2.67
4.0
1.0
-6.67
0.67
0.67
-8.0
0.67
0.33
0.67
2.67
1.67
-2.0
-1.0
2.67
-1.67
3.0