File: EDX Back Ups and Old Files/Spectra copy 3.3.23/Samples/High pH SF 60C 4d/9.0.txt
0.0
39.67
26.33
4.67
-73.0
-43.67
-16.0
-39.67
-47.33
-39.33
10.0
-1.0
-5.0
-3.67
9.0
-8.33
1.0
0.33
2.67
2.0
-1.0
0.0
2.0
-0.67
-0.67
0.33
0.67
-0.33
-0.67
-0.67
-0.33
0.67
-0.67
0.0
3.0
-0.33
1.0
-0.33
-0.33
-0.67
-0.33
-0.33
-0.33
0.0
-0.33
1.67
0.67
2.0
-1.0
1.67
-0.33
-2.33
0.67
1.67
0.67
0.33
2.33
-0.67
-3.0
-0.67
-0.33
-2.0
-0.33
1.33
4.0
2.33
-2.0
-0.33
-2.33
3.0
3.67
-2.67
1.0
2.67
0.33
1.0
7.0
-4.67
2.33
4.33
7.33
2.0
3.33
3.67
2.67
-2.0
6.67
-4.33
2.33
2.33
4.33
5.0
4.0
-1.67
2.33
7.33
3.0
-3.0
10.0
-1.33
-6.33
2.67
0.33
-3.0
13.67
-5.0
-5.33
0.67
-1.33
2.33
5.33
-1.67
-1.0
3.0
-2.0
1.33
2.33
3.0
1.33
-3.67
0.0
1.0
2.0
3.67
1.67
3.33
-5.0
6.33
4.33
0.0
4.67
6.0
-1.67
2.33
4.0
1.33
-1.67
-3.33
-1.67
2.33
-4.67
4.33
3.0
-2.0
5.0
-0.33
-2.33
0.33
-4.67
2.67
-3.33
1.0
2.33
-4.67
0.0
2.33
-0.33
2.0
4.33
5.33
4.0
-1.33
10.67
4.33
5.0
7.33
-0.67
-1.67
1.67
-2.0
1.67
-0.67
1.67
0.33
0.0
3.67
2.0
12.33
-5.0
1.0
5.0
-1.0
1.33
-2.33
-1.67
-3.67
1.67
-2.0
-1.33
2.33
-3.67
0.67
4.33
-1.67
2.33
3.0
0.0
3.67
-1.67
-2.33
0.33
0.0
-3.33
-0.33
-1.67
-1.67
-0.33
-1.67
-1.33
-1.67
3.33
4.0
5.0
3.0
3.0
-7.33
1.33
0.33
-3.0
-0.67
-0.33
-0.33
4.67
0.67
2.33
5.33
-2.0
5.33
0.67
-1.33
0.67
3.33
0.67
1.67
0.0
-2.67
-0.67
-0.67
-3.33
-1.67
1.33
-3.33
-1.67
-2.33
0.67
-0.67
-3.0
-2.33
1.0
-1.0
0.33
3.0
-5.33
0.0
-1.0
-4.67
-2.33
2.67
1.33
-2.0
-4.67
-0.67
-0.67
3.0
1.0
0.33
8.33
4.33
-1.0
-2.0
0.33
-2.33
-4.0
3.0
-0.67
-1.0
8.33
4.33
1.67
2.0
4.33
4.0
2.67
-1.0
-2.67
1.33
-1.67
3.33
3.0
1.67
4.0
2.67
4.33
-3.67
2.67
-1.0
5.67
-2.67
-3.33
0.67
-0.33
1.67
-1.33
-1.33
-2.67
-1.0
1.67
0.0
-1.33
-3.33
3.0
2.67
2.0
3.67
0.0
-4.67
-7.0
0.33
1.33
1.0
-4.0
-0.67
-1.33
3.0
-3.33
-6.67
1.33
-4.0
2.33
1.67
3.0
0.0
-6.0
-2.0
-7.33
-1.67
-6.33
1.33
0.0
-4.33
-5.33
-6.0
-3.0
1.0
-4.33
2.33
-2.0
-4.67
0.0
3.0
-2.33
-9.33
-0.67
5.67
-3.33
-3.67
-9.0
-5.0
-6.0
-3.0
-6.0
-3.33
-5.67
-3.0
-0.67
-8.0
-0.33
-7.0
-6.33
-9.0
-7.67
-3.67
-4.33
-1.33
-8.0
-9.0
-2.0
-6.0
-6.33
-6.0
-2.33
-1.33
1.0
-9.0
-5.0
-12.67
-3.0
-1.33
-5.33
-5.67
-1.33
0.67
-4.67
-10.33
4.0
-0.33
-3.33
-3.33
-5.0
4.67
5.33
-4.0
9.67
11.0
25.0
30.0
17.67
23.0
17.67
9.33
6.33
11.33
1.33
-5.0
5.0
-3.67
-7.0
3.67
-6.33
-2.67
-3.0
-0.33
-0.67
-2.0
-10.0
-1.0
-9.67
-5.67
4.33
-5.33
4.0
-11.67
-9.67
-12.0
-1.67
-0.67
-8.67
-16.33
-7.33
-1.33
-7.0
-7.0
-12.67
-8.0
0.0
-3.0
-3.33
-9.0
-4.33
-8.33
0.0
-7.33
-3.33
-5.67
-10.33
-8.33
-3.33
-1.67
-11.33
-9.67
-10.33
-4.0
-7.67
-15.33
-8.33
0.33
-6.33
3.0
-12.67
-4.33
-9.67
-5.33
-12.67
3.0
-3.67
-13.33
-5.67
-7.67
-8.33
-14.33
-11.67
-8.0
-7.33
-12.67
-8.33
-3.0
-7.0
-4.33
-7.0
-7.0
-8.33
-8.33
-14.33
-11.33
-7.0
-4.67
-12.33
-4.33
-6.33
3.0
-5.33
-3.0
-7.0
-6.0
-2.0
-7.67
-6.67
-0.33
-7.67
-0.67
-4.33
0.67
2.33
5.33
10.0
12.33
2.0
2.67
20.0
18.0
2.33
3.67
2.0
8.0
12.67
8.67
-6.67
-13.0
1.67
-15.67
-2.0
3.0
0.33
-2.67
-5.33
-3.33
-3.33
2.67
-4.33
-5.0
-11.67
4.67
0.33
-7.67
-3.33
4.67
-1.33
1.33
-5.67
-5.67
-1.0
-7.33
-0.33
3.33
-4.67
-1.0
4.67
4.67
2.0
2.67
-6.33
1.33
-2.33
3.0
3.67
-11.67
-2.67
2.33
2.67
-5.0
2.67
-7.33
5.67
-10.0
4.33
-9.0
-8.33
-3.0
11.33
-2.67
9.0
7.33
3.33
8.0
-1.67
10.33
0.0
6.67
4.0
6.0
16.33
13.0
6.0
9.67
2.0
-7.67
5.33
-10.33
-3.33
2.33
-3.67
-5.67
-5.33
0.67
-0.67
-1.33
3.33
-4.67
6.33
4.0
-2.0
2.67
-1.33
15.0
8.0
1.0
6.67
8.67
2.33
4.67
-2.33
9.0
11.67
8.67
-4.33
-8.67
10.67
6.67
2.33
2.0
4.0
2.67
4.0
-5.0
4.0
7.67
7.67
11.33
21.0
16.0
19.67
18.67
12.0
0.0
16.67
24.33
27.0
25.0
18.0
33.33
36.33
36.33
45.67
47.33
74.67
74.0
106.0
105.67
89.33
99.0
86.33
86.33
59.33
58.67
51.0
31.0
34.33
23.0
10.33
27.67
10.33
10.67
8.67
17.33
16.33
6.0
3.0
2.33
8.33
-1.0
8.67
2.0
6.67
8.0
0.0
-2.0
13.33
8.67
3.67
-5.67
13.33
9.67
4.67
6.0
3.67
7.0
4.0
-12.33
4.33
4.33
-2.0
10.33
6.33
7.67
2.33
2.33
6.67
10.67
0.0
12.67
1.33
8.0
4.0
4.0
11.67
3.67
2.67
3.33
5.33
2.33
9.0
12.67
2.0
10.0
11.33
13.67
4.33
3.33
12.0
1.0
10.33
4.33
0.67
12.67
-0.67
10.0
9.67
12.33
4.33
11.67
7.33
12.67
9.0
8.67
2.33
5.67
3.33
14.0
8.67
16.67
12.0
16.0
5.0
10.67
27.0
26.33
15.0
23.67
13.67
23.67
44.67
18.33
28.67
30.67
20.67
24.33
24.67
30.0
22.33
19.33
23.33
14.67
10.0
-2.33
11.67
6.0
8.33
3.67
4.67
-2.33
13.0
2.0
7.67
-2.0
6.67
10.67
10.0
12.0
11.0
5.0
6.67
11.33
20.0
5.0
-3.33
-1.67
-3.33
14.33
5.67
5.0
-1.67
-2.0
10.33
22.33
26.33
10.67
8.67
20.67
13.0
-12.0
3.0
3.67
7.0
2.0
-5.67
-0.33
9.33
6.0
1.33
6.67
14.33
9.67
9.67
8.33
8.0
5.67
4.0
-0.67
-3.67
2.0
18.33
0.67
3.33
-0.67
-2.67
4.67
5.0
0.33
-10.33
-10.67
-0.33
-1.33
-4.33
2.67
5.0
5.33
10.0
-2.67
5.67
3.0
9.0
12.0
5.67
5.33
4.67
-5.0
-5.0
-0.33
6.33
-1.0
-1.0
1.33
3.33
-6.67
-1.33
4.67
-3.67
7.33
12.0
5.0
1.67
-1.67
1.67
9.67
-2.67
8.0
7.67
4.67
-4.0
6.0
1.33
3.33
1.33
6.0
6.67
9.67
10.67
-1.67
2.0
2.33
-8.33
10.67
-2.67
-1.67
-2.0
0.0
-3.33
4.67
-6.67
1.0
-5.0
5.0
2.0
-0.67
7.67
-0.67
-3.67
4.33
5.67
-1.67
5.0
3.67
2.33
0.67
-1.0
-3.33
6.33
-1.67
-1.0
9.0
5.33
-1.0
2.33
-0.33
6.33
3.0
6.0
2.33
4.33
-1.67
8.0
6.67
-5.33
-2.33
1.0
0.33
-4.33
2.0
1.33
3.0
-0.67
6.33
-6.33
1.67
4.67
8.67
8.33
4.0
-2.0
-0.67
1.0
4.0
3.67
-4.67
12.0
4.67
-1.33
1.67
3.0
5.67
1.33
-0.67
-0.33
2.0
-0.67
-4.0
-3.0
3.67
13.67
-4.67
-1.67
-0.67
-5.0
4.33
3.67
1.67
-3.33
-1.0
3.0
2.33
5.33
0.0
8.0
-1.67
-1.0
-0.67
-1.0
0.33
-1.0
4.33
3.67
1.67
-1.0
0.0
-1.67
0.67
-5.33
1.0
6.33
1.67
1.0
4.33
-2.0
4.0
-4.67
-2.67
3.33
2.67
-2.33
0.0
10.0
-2.67
5.67
-2.33
-5.0
-6.33
-2.67
-2.33
2.67
1.67
-2.0
-8.0
8.67
-2.67
3.0