File: EDX Back Ups and Old Files/Spectra copy 3.3.23/Samples/High pH SF 60C 4d/9.25.txt
0.0
-21.33
-21.67
46.67
50.0
-34.67
72.0
75.33
-19.33
-28.33
10.0
-5.0
2.0
-8.67
2.0
0.67
-4.0
0.33
-1.33
1.0
-2.0
-1.0
0.0
-0.67
0.33
-0.67
-0.33
-0.33
-0.67
-0.67
-0.33
0.67
-0.67
1.0
1.0
-0.33
0.0
0.67
-0.33
-0.67
-0.33
0.67
-0.33
1.0
-0.33
-0.33
0.67
0.0
3.0
2.67
-1.33
-1.33
1.67
-0.33
0.67
2.33
0.33
-2.67
0.0
0.33
-3.33
0.0
0.67
-2.67
-2.0
-2.67
-1.0
3.67
1.67
6.0
-0.33
3.33
-5.0
-1.33
2.33
-5.0
5.0
-1.67
1.33
0.33
-1.67
2.0
5.33
3.67
5.67
1.0
6.67
-3.33
3.33
1.33
1.33
2.0
-2.0
-3.67
0.33
10.33
5.0
2.0
-1.0
-0.33
-3.33
5.67
2.33
3.0
9.67
2.0
-5.33
0.67
-0.33
3.33
5.33
0.33
1.0
-2.0
-5.0
-3.67
-2.67
8.0
-6.67
3.33
0.0
1.0
-1.0
-6.33
-1.33
3.33
3.0
1.33
-0.67
-1.0
1.67
2.0
1.33
5.33
5.0
5.33
-3.67
9.67
8.33
-5.67
1.33
2.33
0.0
0.0
10.0
4.67
0.67
5.33
-7.67
0.67
-1.33
6.0
-5.67
5.33
1.0
-2.67
8.67
-4.0
-3.67
-0.67
1.0
-4.33
10.67
2.33
0.0
3.33
0.33
-3.67
-0.33
-3.0
2.67
-1.67
1.67
-2.67
-2.0
4.67
-4.0
10.33
5.0
0.0
-5.0
-2.0
2.33
-0.33
-1.67
5.33
0.67
-2.0
0.67
2.33
-1.67
9.67
1.33
-0.67
2.33
-4.0
1.0
-4.33
3.33
1.67
-0.67
3.0
6.67
-2.33
-1.67
0.33
-0.33
1.33
-2.33
0.33
-0.67
-1.0
-2.0
3.0
2.0
-6.33
4.33
9.33
-3.0
-3.67
4.67
-2.33
-1.33
3.67
-1.67
2.33
1.0
1.33
-3.33
1.67
4.67
4.33
-1.33
0.67
4.0
0.33
-0.67
3.33
1.67
2.33
3.33
-1.33
-2.67
-0.33
1.67
2.33
0.0
2.67
0.0
-2.0
-2.67
0.0
-2.33
-1.0
5.0
1.33
-1.33
2.67
-0.67
0.0
-4.67
-0.67
-0.67
-1.0
4.0
-3.67
3.33
1.33
0.0
0.0
4.33
0.67
-4.0
1.0
0.33
0.0
0.33
2.33
1.67
4.0
5.33
2.0
-0.33
-3.0
-4.67
-3.67
1.33
3.33
1.0
1.67
-2.0
5.67
-0.67
0.33
-4.33
-5.0
-4.33
-1.67
-4.33
1.67
4.67
4.67
-2.33
-1.33
-2.67
6.0
4.67
2.0
-1.33
-1.33
-3.0
4.67
2.0
-0.33
-1.0
-1.67
-2.0
-1.67
-4.67
-1.0
-2.0
-2.67
-3.33
1.0
-0.33
-4.67
1.33
-1.0
-1.67
-5.33
2.0
2.0
3.0
-2.0
-3.33
-1.67
-3.33
0.33
-3.0
3.67
-6.33
-4.0
-4.0
4.0
-2.33
-1.67
-3.0
-1.67
-1.0
-3.0
-2.33
-4.33
-4.67
-7.33
-4.33
-3.67
-12.0
-2.0
-5.0
-2.0
-6.0
-8.33
-6.67
2.0
-3.67
-7.0
-1.33
-8.0
-4.33
-7.0
-1.67
-1.67
-3.33
-3.33
-8.0
-7.0
-4.0
-9.0
-3.33
-6.0
-9.33
-3.33
-6.0
-10.0
-7.0
-7.67
-12.0
-2.33
-7.33
-5.67
-0.33
-2.33
-4.67
-6.33
-5.0
3.67
-0.33
3.67
-3.0
15.67
1.33
7.0
5.67
15.0
31.0
28.0
38.67
23.0
26.67
21.33
0.33
16.33
4.33
-6.0
1.0
-0.67
-10.0
-2.33
-9.33
-3.67
-4.0
-5.33
-1.67
1.0
-7.0
-7.0
-1.67
-6.67
-6.67
-4.33
-7.0
-15.67
-6.67
-6.0
-8.67
-5.67
-10.67
-6.33
-6.33
-7.33
3.0
-6.0
-15.67
-9.0
-6.0
2.0
-6.33
-7.0
-9.33
-13.33
-3.0
-1.33
-1.33
-4.67
-11.33
-1.33
-10.33
-14.67
-4.33
-11.67
-12.33
-10.0
-3.67
-6.33
-7.33
-11.67
-6.33
-6.0
-5.67
0.67
-9.67
-3.33
-11.67
-2.0
-10.67
-15.33
-11.67
-0.67
-10.33
-11.33
-6.67
-7.0
5.67
-12.67
-2.33
-7.0
8.0
-7.33
-4.0
-9.0
-10.33
-5.33
-8.33
-14.33
-5.0
-8.67
-6.33
-10.33
-8.33
-7.0
-5.33
-8.0
1.0
-6.0
-1.0
-9.67
-6.67
-13.33
-4.67
-5.67
-10.33
-5.33
4.33
6.33
4.0
12.33
7.0
3.67
22.0
16.0
15.33
10.67
1.0
10.0
8.67
3.67
0.33
0.0
0.67
-9.67
-2.0
0.0
6.33
-7.67
-5.33
-0.33
1.67
0.67
-4.33
-3.0
-3.67
0.67
-3.67
8.33
-9.33
6.67
-1.33
-7.67
-3.67
-0.67
-2.0
-0.33
5.67
-4.67
-3.67
-6.0
5.67
-2.33
3.0
5.67
-3.33
-3.67
5.67
2.0
6.67
4.33
2.33
-3.67
6.67
-2.0
0.67
-8.33
11.67
5.0
6.33
10.0
-3.33
6.0
9.33
2.33
5.0
0.33
-4.67
9.0
-1.67
4.33
-5.0
3.67
6.0
-2.0
-1.67
-3.0
16.0
4.67
-3.0
2.33
1.33
-6.33
3.67
11.33
-2.67
-5.67
1.67
1.67
1.33
9.67
1.33
4.33
-5.67
1.0
-3.0
1.67
-0.33
11.0
5.0
3.0
3.67
9.67
10.33
9.67
6.67
7.0
-0.33
11.67
1.67
-2.67
-0.33
5.67
13.33
4.0
-2.0
5.67
7.0
-7.0
8.0
8.67
2.67
11.33
10.0
4.0
14.67
12.67
23.0
-4.0
17.67
21.33
10.0
21.0
30.0
32.33
30.33
40.33
60.67
56.33
67.67
76.0
74.0
87.67
97.33
92.0
78.33
81.33
91.33
45.67
41.0
30.0
24.33
19.0
-6.67
3.67
-3.67
8.67
7.67
-0.67
5.33
25.0
-5.0
14.33
11.33
1.0
-1.33
7.0
7.67
5.0
7.0
11.0
18.33
-2.33
13.67
11.33
3.33
4.67
8.67
14.0
0.67
19.0
0.0
1.67
2.33
5.33
6.0
10.33
5.33
4.67
-1.67
-0.67
-6.33
16.67
2.0
10.67
11.33
14.0
-7.0
5.0
11.67
9.67
4.67
19.33
-4.67
12.33
15.0
5.67
2.0
15.0
23.33
14.67
8.33
2.33
4.0
2.0
11.33
3.33
3.67
3.67
3.33
9.0
7.67
4.33
-0.67
2.67
13.33
12.67
0.0
3.67
12.33
4.67
2.33
7.0
9.67
2.67
3.0
6.0
27.0
25.67
17.0
26.33
27.0
19.67
28.67
29.67
29.67
31.33
9.67
42.67
35.67
17.33
19.67
17.0
14.33
9.33
7.33
18.67
6.0
5.67
3.67
6.0
27.33
-4.33
12.67
14.67
9.0
12.0
8.67
10.0
16.67
-2.33
10.0
1.0
3.0
6.0
10.67
10.33
-10.0
7.0
8.67
6.33
3.67
14.33
-0.33
6.0
11.33
4.0
-0.67
17.33
19.33
2.67
4.67
14.67
0.0
6.0
-4.0
-3.33
-8.0
-2.0
-6.67
11.67
3.33
14.0
6.33
-6.33
1.33
4.67
-4.33
-2.67
0.0
4.67
-1.0
-1.67
2.33
-11.0
14.33
14.67
2.33
4.33
-0.67
-0.33
5.0
1.33
-4.33
7.33
-15.33
-4.33
2.67
1.67
19.0
10.33
1.0
-2.67
-4.33
-5.0
7.0
4.0
2.67
6.33
-3.33
9.0
3.0
2.67
1.33
3.0
7.0
-2.67
5.33
0.33
8.67
7.67
8.33
-0.67
-2.0
4.0
-6.33
6.33
6.67
3.67
3.33
6.0
3.67
15.67
4.0
6.0
-6.67
7.33
4.33
2.0
1.67
-5.33
4.67
-0.67
3.0
-3.67
-5.33
8.67
9.33
-0.67
-1.0
-7.0
7.67
-2.33
-6.67
1.0
-4.0
2.0
-3.0
6.33
2.67
8.33
4.33
4.33
0.67
-4.67
4.0
7.67
-0.67
5.67
1.0
-9.33
9.33
2.33
-10.0
4.0
6.33
2.0
9.33
4.67
-7.67
2.0
4.0
-0.67
-3.67
3.33
8.0
7.67
-4.33
-8.33
3.0
1.33
-4.33
3.0
6.33
-1.0
-4.67
5.33
0.67
8.67
-0.33
-2.33
1.33
-3.0
5.0
-0.67
1.0
-3.0
8.67
13.33
1.0
2.67
-6.33
6.67
4.0
-2.33
2.33
-0.67
3.67
1.0
-5.67
1.0
1.0
5.67
2.67
2.33
9.33
1.33
-6.0
-3.67
-0.33
0.67
-1.33
-4.0
1.0
8.33
-1.67
2.0
9.0
0.33
2.0
-6.67
-1.0
-3.67
-2.0
4.33
4.67
6.67
5.0
0.0
0.33
2.67
-2.33
0.0
-2.67
-2.33
-5.0
4.33
-5.0
8.0
-6.67
-1.67
-1.67
-2.33
-4.33
-1.0
0.0
-2.67
-2.33
-0.33
1.0
-1.33
3.33
-0.33
0.67
0.67
1.0
-1.0
6.67
-2.67
-2.0