File: EDX Back Ups and Old Files/Spectra copy 3.3.23/Samples/Low pH SF Ref/10.5.txt
0.0
0.0
-12.0
-49.67
-110.67
-59.33
-13.0
-63.0
18.67
-18.67
-20.33
14.0
-11.33
-6.67
-6.67
4.67
5.33
3.33
-3.0
-1.0
-2.0
-0.33
-0.33
-0.33
2.33
0.0
0.67
-0.67
-0.67
-0.33
0.0
0.33
-0.33
-0.33
0.67
-0.33
0.0
0.0
-0.33
0.0
-0.33
1.0
0.33
0.33
1.0
-0.67
-0.33
-0.33
-1.33
0.0
-0.33
-1.33
0.33
2.0
2.33
-2.0
1.0
-1.33
-3.33
5.33
0.33
-3.33
5.33
-2.67
0.33
6.33
-2.0
3.0
2.33
-8.0
-2.67
-1.33
1.33
-1.0
1.67
9.33
-3.67
3.67
9.33
0.33
-2.0
2.67
4.0
-4.0
11.67
-2.0
9.0
2.33
3.0
11.67
-4.33
4.67
5.67
1.33
2.33
-3.67
3.0
1.0
3.33
8.33
-0.33
10.33
8.67
2.67
-4.33
1.67
11.33
-1.67
6.33
-0.33
4.33
1.67
0.67
-0.67
2.33
3.33
1.67
-3.67
5.0
2.0
-0.33
4.67
7.67
0.67
8.33
4.0
5.0
9.0
-0.33
3.33
2.33
7.67
3.33
3.67
4.33
5.0
1.0
1.33
3.33
-0.67
3.33
-4.33
1.67
1.0
0.33
6.0
-4.0
-2.0
4.33
-1.33
1.33
10.0
5.0
8.0
-1.0
0.67
-0.67
3.33
2.33
3.67
3.0
1.33
8.33
-0.33
2.0
3.33
-1.33
7.33
1.0
-4.33
8.33
3.0
5.0
-0.33
2.33
6.0
-0.67
2.67
-1.33
4.67
5.67
-4.0
3.33
4.0
7.67
2.67
-1.33
2.67
-5.67
3.33
-2.0
1.67
-2.0
-2.0
3.0
4.67
-3.33
-0.33
2.33
-2.67
2.33
-4.0
3.67
-2.67
3.0
3.67
-1.67
-3.0
0.33
3.0
1.67
2.33
-4.33
1.33
-2.33
1.67
4.33
-2.33
3.67
-1.33
-2.33
-1.33
-2.0
-0.67
-0.33
3.0
-3.33
0.0
-0.33
-0.67
3.67
-2.67
2.0
-1.33
0.0
2.33
-3.0
-3.0
3.67
0.0
0.33
0.33
2.0
-4.0
-1.67
3.33
3.67
1.33
2.0
2.0
6.33
3.33
4.0
-4.0
0.0
8.0
2.67
4.0
2.0
4.67
-3.0
-1.67
0.33
-0.33
-1.0
-1.67
0.33
0.0
-0.33
-3.67
2.33
-2.67
3.33
1.67
-1.33
-2.33
-1.33
-2.33
-3.67
0.67
1.33
-1.0
0.0
1.67
3.67
2.0
6.33
0.33
3.0
2.33
6.67
1.33
-2.33
3.33
-0.33
1.33
-2.33
-3.33
2.0
1.67
-1.67
2.67
0.33
-0.67
1.33
0.67
-3.33
1.67
5.0
-1.0
1.33
1.33
-1.33
-0.67
1.67
4.0
-3.67
-1.0
0.67
-2.67
1.67
-3.0
-4.0
-1.67
1.0
-1.0
0.0
-3.0
2.33
-3.67
3.33
5.33
-2.33
1.67
-1.0
1.33
0.33
2.0
6.67
-5.67
2.0
5.0
4.33
-2.67
-1.33
-3.0
0.0
2.33
4.0
-3.0
0.33
6.67
3.0
-2.67
-0.33
-1.33
-1.0
4.0
2.33
3.0
5.33
3.33
2.33
4.33
0.33
1.33
1.33
-6.67
1.33
3.0
0.67
-5.67
5.0
0.33
1.33
-0.33
-1.67
3.67
0.67
-4.33
2.67
6.33
-2.33
6.0
4.0
-0.33
0.33
0.0
-6.33
3.0
2.33
4.33
-4.0
0.33
0.67
4.67
0.67
-0.33
2.33
2.0
9.0
-2.67
6.67
6.0
-0.33
4.0
14.33
2.0
2.0
1.33
2.67
2.33
10.33
9.0
8.0
6.0
8.33
1.33
-0.67
4.0
2.0
-1.33
3.33
1.0
15.0
9.0
7.0
6.33
5.33
4.33
4.67
0.0
6.0
-3.0
0.33
0.0
-1.33
8.67
1.33
1.0
16.67
1.33
2.0
3.33
6.67
10.0
9.67
17.67
4.33
10.0
16.33
-1.0
3.67
19.67
6.0
8.33
-1.33
7.67
12.33
8.0
4.0
11.0
11.0
18.33
24.33
21.0
15.33
25.67
23.33
25.67
28.67
51.0
45.0
71.33
72.0
69.0
74.0
56.67
49.33
32.33
20.67
16.67
13.33
9.0
5.33
26.67
17.33
25.0
33.0
37.33
43.67
37.0
45.67
26.33
43.0
33.67
41.67
36.33
40.33
52.0
42.67
29.33
24.67
17.33
13.0
7.67
23.67
2.33
19.67
26.0
9.33
16.67
11.0
19.67
19.33
23.0
12.33
24.67
31.33
30.0
14.67
29.33
18.67
18.0
16.0
18.33
19.67
33.33
30.67
20.33
21.0
24.33
28.0
36.67
49.0
18.0
27.33
32.67
16.0
32.67
23.0
35.67
27.67
21.67
32.33
28.0
42.0
35.33
30.33
17.67
28.33
25.0
28.67
23.33
20.33
23.33
18.67
22.67
18.67
27.0
25.33
15.33
17.33
21.0
24.0
15.67
25.33
27.0
45.0
26.0
32.33
43.0
12.67
46.33
45.0
53.33
35.0
32.33
25.67
21.0
26.33
33.67
16.0
9.67
11.33
22.0
34.33
27.33
42.0
45.33
81.0
98.33
114.0
135.0
165.33
149.67
139.67
147.33
112.33
122.67
118.33
102.67
103.67
75.0
62.67
65.0
55.0
48.67
34.0
32.33
32.0
31.33
14.33
22.67
13.67
31.0
37.0
27.33
32.67
57.33
64.0
52.67
65.67
52.0
72.0
55.33
46.0
26.0
46.67
48.0
34.67
43.0
43.0
18.33
18.33
25.33
17.0
14.0
21.33
7.67
9.33
11.33
9.33
21.33
15.33
6.0
12.67
3.0
14.0
9.0
20.0
15.67
16.0
9.33
21.33
7.67
28.67
3.33
23.0
28.67
28.67
39.67
38.67
35.0
43.33
47.0
57.33
33.33
28.33
33.33
34.67
28.33
43.0
19.67
25.67
15.67
19.0
16.67
17.0
17.33
17.33
35.0
12.33
16.67
22.67
23.33
27.33
25.67
8.0
14.0
4.0
16.0
12.0
5.0
21.33
-0.67
16.67
9.0
23.67
10.67
6.33
12.0
-2.0
7.0
13.0
8.0
12.0
7.67
10.33
16.67
6.67
21.67
11.0
11.33
15.33
19.33
16.67
15.33
5.67
7.33
3.67
-0.67
8.0
21.67
15.67
7.67
-3.33
24.0
14.0
-7.0
6.0
14.33
-3.33
9.67
13.33
8.33
10.0
-3.33
5.0
6.33
3.33
27.67
9.67
1.67
4.0
14.67
4.0
9.0
9.33
8.0
4.67
-1.33
-3.0
9.33
8.0
16.0
6.0
1.67
-3.0
-3.33
3.33
12.33
8.67
28.0
12.33
-11.67
9.0
1.33
7.67
12.67
-4.0
-0.67
10.33
7.0
-1.33
4.67
13.0
16.67
22.33
11.33
5.33
19.33
17.67
15.67
15.0
1.67
19.33
13.33
4.67
5.0
9.67
14.33
6.33
11.33
9.67
-4.33
-0.67
11.67
13.33
18.67
10.67
15.67
8.0
6.67
6.0
-3.67
0.0
31.0
13.0
5.67
10.67
9.67
9.33
1.67
18.33
8.33
10.67
13.33
18.33
0.0
2.67
6.67
15.67
-2.33
-8.33
2.33
3.33
7.0
3.67
-2.67
10.67
1.33
1.67
-5.67
20.0
-3.33
4.67
6.0
2.33
1.67
-0.33
3.67
3.33
-2.33
5.33
3.67
11.67
15.0
-5.33
4.33
4.0
5.0
14.33
0.0
-3.0
7.0
12.67
0.67
4.0
-2.33
9.0
3.67
-2.33
5.0
8.0
10.33
2.0
9.0
-0.33
15.0
3.33
-2.0
5.33
7.33
15.33
6.67
-5.0
-3.33
7.33
5.0
16.67
16.33
-0.33
16.0
-1.33
2.0
-2.67
-1.33
-3.0
4.67
8.0
0.33
4.33
1.0
7.67
11.67
4.67
-4.0
6.33
-2.0
5.0
-2.0
8.0
-1.67
-2.67
5.33
6.0
-3.0
13.33
6.67
4.0
-4.33
0.0
-1.67
6.33
13.67
0.67
0.33
-2.67
7.0
2.33
0.67
9.0
15.67
5.0
-0.33
-0.33
1.0
5.33
-6.33
5.0
8.33
-1.0
6.67
-0.33
4.33
-1.67
6.33
-5.67
-2.0
-0.33
2.67
9.0
-2.0
1.33
6.0
0.67
-6.67
5.33
-4.0
7.0
12.67
-3.33
4.0
-1.0
5.67
0.67
0.67
-4.33
6.0
4.67
3.67
1.67
5.0
2.67
-0.67
6.33
5.33
-3.33
3.67
4.67
-3.33
0.0
7.33
0.67
1.67
1.0
-7.33
-0.33
-0.33
-2.67
4.33
7.0
-1.0
2.67
5.67
2.0
6.33
4.67
4.33
2.67
8.0
-0.33
12.33
6.33
-3.0
5.33
10.33
-1.0
10.33
4.33
-3.0
3.0
1.33
9.67
4.0
-5.67
6.67
6.33
13.33
0.67
-0.33
3.67
-3.33
-2.0
3.67
2.0
5.33
3.0
1.67
-0.33
0.33
0.67
0.0
1.0