File: EDX Back Ups and Old Files/Spectra copy 3.3.23/Samples/Low pH SF Ref/11.0.txt
0.0
98.0
-20.0
-86.67
-51.67
60.67
-29.0
14.0
55.67
-4.67
27.67
22.0
-24.33
-13.67
5.33
2.67
-4.67
5.33
-2.0
-1.0
-2.0
-0.33
-0.33
0.67
-0.67
1.0
0.67
-0.67
0.33
-0.33
1.0
-0.67
-0.33
0.67
-0.33
-0.33
-1.0
0.0
-0.33
0.0
1.67
0.0
0.33
0.33
0.0
-0.67
-0.33
-0.33
-0.33
1.0
0.67
-1.33
-0.67
-1.0
0.33
0.0
0.0
0.67
-1.33
4.33
-0.67
-1.33
1.33
1.33
-1.67
0.33
4.0
3.0
8.33
-3.0
3.33
-1.33
0.33
3.0
4.67
4.33
0.33
0.67
7.33
8.33
2.0
-5.33
9.0
-3.0
10.67
-3.0
1.0
6.33
9.0
2.67
-5.33
5.67
4.67
2.33
3.33
3.33
5.0
7.0
1.33
8.33
-1.33
-0.67
10.67
-1.33
0.67
6.67
2.33
11.33
8.33
4.67
4.33
5.67
2.67
-2.67
5.33
0.33
-1.33
-0.67
2.0
3.0
2.67
7.67
-1.33
2.67
3.33
6.0
3.0
9.0
13.67
3.33
4.33
3.67
6.33
1.67
-1.67
7.0
2.0
5.33
6.33
-3.67
1.33
4.67
-1.33
7.0
5.33
2.0
-1.0
-1.0
1.33
1.67
3.33
8.0
-2.0
-2.0
2.0
3.67
-4.67
2.33
1.33
-1.33
1.0
3.33
3.33
5.67
15.0
-2.67
-0.33
3.33
4.0
4.67
0.33
2.0
10.0
-5.33
5.33
7.0
3.33
3.67
-1.33
-2.33
3.67
6.0
3.33
-1.0
-0.33
-7.33
4.67
1.67
-1.67
-0.67
-3.0
6.67
0.0
5.0
2.0
6.67
-3.33
6.67
1.33
-7.67
3.33
0.0
-1.33
0.33
2.0
-1.33
8.33
0.0
-5.67
2.0
-0.33
2.33
-7.33
0.33
2.67
4.67
2.33
-2.33
2.67
3.67
3.67
-0.33
-1.0
2.33
-0.33
0.0
-0.33
1.0
-6.33
-1.67
-0.33
0.33
4.0
3.67
2.0
5.33
2.0
-1.0
8.67
2.0
-1.67
-0.67
-3.0
-6.0
1.33
4.33
3.67
-2.67
0.0
3.0
-0.67
0.33
6.0
1.0
0.0
3.0
-0.33
-1.0
-2.0
6.67
-2.0
-0.67
1.33
-2.33
-1.0
3.33
-0.67
4.0
-0.33
-0.67
0.33
-5.67
-2.67
0.67
-0.33
-2.33
-1.33
1.67
-3.67
0.67
1.33
4.0
1.0
1.67
1.67
-2.0
0.33
4.33
5.0
-1.67
2.67
0.33
-2.33
4.33
-0.33
1.33
1.67
2.67
2.0
3.67
4.33
0.67
1.33
-0.67
-1.67
0.67
-1.33
0.67
-6.0
-1.0
-1.67
4.33
0.67
3.33
2.67
0.0
-0.67
-2.0
0.67
0.33
1.67
-4.0
-2.0
0.33
2.0
0.0
-1.0
-2.0
0.33
-0.67
4.33
-0.67
-1.33
-1.33
0.0
1.33
-0.67
3.0
3.67
0.33
-3.0
4.0
3.33
4.33
-1.33
5.0
3.0
-1.67
-2.0
-2.0
3.33
2.67
4.0
-1.67
2.67
0.67
-1.0
3.0
0.33
2.0
2.33
3.33
6.33
6.33
2.33
1.33
-4.67
-3.67
5.33
5.0
-0.33
-4.67
-1.0
3.33
-1.67
7.67
0.33
1.67
3.67
1.67
3.67
7.33
2.67
-1.0
2.0
-2.33
2.33
1.0
1.67
-2.0
4.33
3.33
2.0
-0.67
4.67
1.67
0.67
-3.33
3.33
0.0
1.0
-0.67
-0.33
2.0
9.67
9.0
1.33
2.0
0.0
-5.67
5.67
2.33
9.33
4.0
3.0
2.0
8.33
-1.67
6.33
1.0
4.0
-1.33
4.33
6.0
6.0
10.0
5.0
10.33
8.33
10.33
12.67
-5.0
2.0
0.0
1.33
8.0
14.67
3.67
10.33
2.0
4.67
22.33
2.0
10.33
-2.33
10.0
12.67
12.67
6.33
3.0
15.33
6.0
4.67
11.67
2.0
17.33
3.67
7.67
15.33
7.0
5.0
11.0
17.0
28.33
25.33
52.0
64.33
68.67
96.33
107.67
119.67
106.0
96.0
59.33
81.0
54.0
40.0
28.67
24.33
15.33
7.67
10.67
13.33
17.0
10.33
21.67
15.33
21.0
19.0
22.33
37.67
33.0
39.67
46.33
40.0
42.67
39.67
41.33
53.33
46.0
47.67
57.33
51.67
57.33
36.0
26.67
21.67
11.33
20.67
22.0
14.33
22.67
25.0
29.67
21.33
28.0
11.33
11.67
16.33
12.0
17.67
9.33
19.67
18.0
22.0
19.33
23.67
28.33
17.67
19.33
15.0
46.33
24.0
30.67
39.0
26.0
25.33
29.67
23.0
25.67
39.0
41.67
45.67
47.67
34.33
38.0
30.0
43.33
21.33
22.67
26.33
22.0
30.67
17.33
31.33
11.33
41.67
13.67
19.67
21.0
25.33
24.33
15.33
27.0
29.0
24.67
18.33
23.0
17.0
39.0
62.33
56.0
54.67
48.33
55.0
45.33
43.0
45.33
49.67
44.0
46.33
34.67
18.0
14.67
21.33
15.0
26.33
22.33
21.0
17.33
46.0
61.33
101.0
95.0
109.33
112.67
169.67
166.33
194.33
231.67
234.33
237.67
243.67
194.0
154.67
130.0
91.0
67.67
53.0
36.33
23.0
34.33
22.33
28.67
26.67
31.0
34.0
42.33
53.67
57.33
59.0
73.67
100.67
105.0
109.0
134.33
150.0
150.0
132.67
92.0
111.67
90.0
70.0
49.33
36.33
50.33
32.0
26.0
25.33
25.67
13.33
14.33
10.33
18.33
7.33
6.0
13.67
7.0
15.0
9.0
17.0
2.67
8.0
7.33
17.33
16.67
16.67
20.33
29.0
18.67
39.67
49.67
53.67
57.0
72.33
66.0
58.33
56.33
49.33
46.33
37.67
44.33
21.0
36.67
38.67
25.67
21.0
20.67
29.0
26.33
13.33
23.0
25.33
12.67
24.67
26.33
17.33
19.67
20.0
22.0
10.0
18.0
14.0
2.0
1.33
2.33
17.67
14.0
2.67
6.67
7.33
7.0
18.0
0.0
8.0
9.0
16.0
19.67
15.33
5.67
-0.33
19.67
-2.0
19.33
18.33
4.33
8.67
6.33
7.67
18.33
5.67
12.33
7.0
16.67
20.67
14.67
14.67
10.0
30.0
4.0
4.0
16.33
-2.33
0.67
4.33
9.33
7.0
-2.33
-7.0
4.33
-0.67
2.67
8.67
7.67
7.0
7.67
13.0
13.0
7.33
13.0
4.67
3.67
5.0
2.33
10.0
24.0
15.0
-2.33
3.0
14.67
11.33
13.33
5.67
6.0
8.33
0.33
11.0
4.33
8.67
9.67
1.0
-2.67
4.33
5.0
3.67
9.67
4.0
8.67
11.33
15.33
15.33
-4.67
7.67
14.67
19.0
2.67
12.33
19.33
10.67
23.0
19.67
7.33
18.33
10.33
7.67
18.67
14.33
14.67
2.33
11.67
1.67
9.67
-2.0
3.67
10.0
4.33
1.0
7.0
9.0
7.67
-3.33
10.67
9.33
15.67
0.33
7.33
-1.33
11.33
-0.67
2.0
-1.33
11.67
2.67
-4.33
3.67
10.33
13.33
10.0
4.67
-6.67
8.67
2.33
9.67
0.33
7.0
-3.33
9.67
-6.0
2.33
4.67
5.67
3.67
-0.67
-5.33
5.33
4.67
10.67
7.0
1.67
-2.67
7.0
3.0
-0.67
5.0
-5.0
-2.0
13.67
-4.33
-5.0
-10.33
13.0
5.67
-2.33
4.0
-4.0
0.33
2.0
-7.0
-1.33
-3.0
4.33
4.0
2.33
7.33
-0.67
5.67
-3.0
5.67
6.33
6.0
1.67
0.33
-0.33
11.0
0.67
-7.0
0.33
-8.33
6.0
6.67
-5.0
1.33
8.33
5.0
7.67
3.67
9.67
-4.0
1.33
8.0
3.0
1.0
3.0
1.33
-2.67
6.33
-5.0
-7.0
-0.67
2.67
-1.0
0.67
6.0
-4.67
1.33
-1.33
3.67
6.33
-0.67
1.0
8.33
2.67
-2.0
5.67
6.0
4.67
0.67
3.0
-1.67
-2.33
3.0
7.33
-2.0
8.67
3.67
11.33
5.33
8.33
0.33
9.0
1.67
9.67
-5.0
8.0
10.33
8.0
-4.33
3.33
4.33
3.0
1.0
1.67
-0.33
-1.0
9.0
-1.33
2.67
1.67
0.67
13.0
1.67
0.67
-2.33
6.0
-1.33
-4.67
6.33
-3.67
-1.33
7.67
7.67
-2.33
0.0
8.33
4.67
1.67
-8.0
-6.33
0.67
5.67
6.33
0.33
-3.0
2.0
-2.33
4.67
-1.0
-2.67
2.67
-3.67
1.67
3.0
-2.33
3.33
3.33
-1.0
1.33
7.33
4.0
3.33
4.33
2.0
0.0
5.33
3.67
1.0
-0.67
2.67
6.33
4.33
2.67
-0.33
-1.33
-2.33
0.0
0.67
2.0
1.33
0.0
3.67
-1.33
1.33
-6.33
-5.0
0.0