File: EDX Back Ups and Old Files/Spectra copy 3.3.23/Samples/Low pH SF Ref/11.5.txt
0.0
6.0
62.0
13.33
-30.67
-59.33
25.0
-15.0
15.67
-1.67
37.67
42.0
-14.33
4.33
-3.67
12.67
7.33
2.33
-3.0
0.0
0.0
-0.33
-0.33
-0.33
-0.67
0.0
-0.33
-0.67
-0.67
0.67
1.0
-0.67
0.67
-0.33
-0.33
0.67
-1.0
0.0
1.67
1.0
-0.33
0.0
-0.67
0.33
1.0
-0.67
-0.33
-0.33
-1.33
1.0
-0.33
-0.33
-0.67
1.0
1.33
1.0
-3.0
-0.33
-3.33
1.33
0.33
-0.33
2.33
2.33
1.33
2.33
1.0
3.0
-0.67
3.0
-0.67
5.67
-5.67
0.0
-1.33
-3.67
-0.67
0.67
0.33
-0.67
-3.0
2.67
0.0
-3.0
4.67
4.0
-1.0
4.33
2.0
3.67
-0.33
0.67
2.67
2.33
1.33
-0.67
1.0
6.0
4.33
8.33
-1.33
1.33
3.67
11.67
-4.33
7.67
5.33
0.33
2.33
0.67
4.33
2.67
9.67
7.33
-3.67
1.33
-1.33
-1.67
-1.0
-2.0
2.67
4.67
0.67
4.67
7.33
4.0
-1.0
2.0
0.67
7.33
-3.67
4.67
2.33
6.67
-0.67
9.0
-3.0
0.33
2.33
2.33
4.33
6.67
1.67
1.0
1.33
-3.0
-5.0
-3.0
6.33
1.67
3.33
-1.0
9.0
1.0
0.0
-1.33
-0.67
-3.67
2.33
4.67
1.0
3.33
4.33
-1.33
4.0
0.33
-0.33
6.33
6.0
-1.33
-1.67
-5.0
3.0
0.67
1.33
4.0
-2.67
-2.33
0.67
5.67
2.67
4.0
5.33
2.0
0.67
-3.33
2.67
-3.33
-2.67
2.33
-2.0
-3.33
-1.0
-1.0
5.0
1.67
1.67
2.67
2.33
-3.67
-2.67
-5.0
-0.33
4.33
-2.0
4.67
1.33
1.0
-3.67
3.0
2.67
-3.67
-7.33
-1.67
-3.33
0.67
-2.67
-6.33
2.67
2.67
-1.33
1.67
0.0
10.33
-2.33
-1.0
2.67
-2.0
-4.33
1.33
1.67
-1.67
3.0
-2.33
1.0
3.33
3.0
-3.0
0.67
2.0
0.33
0.33
-3.0
-7.0
-2.67
3.33
1.67
4.33
-3.0
7.0
-0.67
0.33
4.0
-3.0
2.0
2.0
1.67
4.0
-1.0
2.67
-4.0
1.33
0.33
0.67
1.0
0.33
2.33
5.0
3.67
-3.67
0.33
1.33
-3.67
5.67
0.67
-3.33
-2.33
-1.33
-1.67
1.67
-1.67
0.0
1.0
0.67
0.67
3.0
-1.67
7.33
0.0
3.33
3.67
3.33
1.67
2.33
1.67
8.33
1.67
-3.33
0.0
0.67
1.33
-0.33
3.33
-3.67
-3.67
0.67
-2.33
-0.33
1.0
3.0
-0.67
-1.67
5.67
6.33
7.67
-3.0
0.33
3.0
-3.33
-1.67
-1.33
2.0
-1.0
-2.67
-4.0
-3.0
2.0
-1.0
1.33
-2.67
-0.67
4.33
1.67
-1.33
0.0
-1.67
-3.67
0.0
-1.33
-1.67
2.0
0.0
3.33
3.33
-4.33
-2.0
3.0
0.33
1.0
-1.0
0.33
4.67
6.0
3.33
2.67
-4.33
-1.0
8.0
3.33
5.0
5.33
-1.67
-0.67
3.33
0.33
5.33
-1.67
1.33
1.33
-1.0
1.67
-3.67
0.0
4.33
4.33
-2.33
3.33
-5.33
0.67
-0.33
-1.33
8.33
-4.33
-3.0
0.0
5.67
1.33
4.0
-1.33
1.0
5.33
0.33
-5.0
1.33
-0.33
2.67
7.67
3.67
-0.67
-4.0
-2.0
0.33
2.67
2.0
0.67
2.0
-4.67
-3.0
7.0
-3.67
6.67
-2.67
3.33
13.0
5.0
-2.0
6.33
1.33
-3.67
4.0
3.0
-2.33
1.33
1.0
8.0
4.0
4.0
13.33
6.33
6.33
4.67
-6.0
17.0
2.0
6.33
8.0
5.67
7.67
7.33
3.0
8.67
8.33
10.0
9.33
1.67
8.0
19.67
14.67
5.33
2.0
19.33
13.0
9.67
6.67
1.0
7.33
-2.33
11.67
11.33
5.0
13.0
18.0
20.0
22.33
32.33
52.0
49.33
68.67
72.33
86.67
84.67
91.0
52.0
47.33
41.0
13.0
30.0
17.67
9.33
10.33
5.67
15.67
6.33
2.0
4.33
10.67
12.33
20.0
19.0
21.33
31.67
33.0
39.67
21.33
42.0
36.67
39.67
31.33
42.33
39.0
36.67
46.33
39.67
28.33
27.0
16.67
15.67
11.33
12.67
21.0
13.33
6.67
10.0
19.67
15.33
18.0
23.33
19.67
13.33
18.0
9.67
10.33
30.67
13.0
22.0
20.33
22.67
41.33
32.67
21.33
29.0
28.33
41.0
32.67
44.0
15.0
29.33
44.67
37.0
56.67
48.0
61.67
73.67
47.67
57.33
41.0
42.0
29.33
31.33
22.67
28.33
11.0
28.67
28.33
23.33
12.33
14.67
23.67
18.67
18.0
9.33
12.33
14.33
15.0
14.0
19.67
15.33
13.0
14.0
14.0
24.33
26.0
25.67
34.33
35.0
35.33
41.0
50.33
79.67
70.0
75.33
51.67
46.0
19.67
30.33
25.0
24.33
5.33
39.0
31.33
41.0
48.33
66.0
66.0
54.33
84.67
85.67
92.33
121.33
127.67
116.33
108.67
115.67
86.0
112.67
105.0
98.0
80.67
59.0
41.33
40.0
49.33
29.33
27.67
21.67
44.0
30.0
56.33
55.67
72.33
86.0
92.67
115.67
115.0
153.0
151.33
154.0
140.0
139.67
113.0
83.67
68.0
50.0
42.33
40.33
24.33
24.0
13.0
10.33
6.67
18.33
13.33
14.33
13.33
4.33
7.0
14.67
13.0
17.0
15.0
15.0
6.67
13.0
8.33
8.33
4.67
5.67
17.33
4.0
12.67
7.67
12.67
10.67
18.0
26.33
25.0
21.33
24.33
21.33
21.33
11.67
25.33
15.0
27.67
31.67
8.67
23.0
20.67
25.0
25.33
13.33
22.0
14.33
13.67
20.67
-3.67
27.33
16.67
-3.0
10.0
6.0
3.0
6.0
14.0
5.33
0.33
18.67
11.0
3.67
5.67
9.33
16.0
4.0
4.0
-1.0
15.0
11.0
7.67
12.33
5.67
8.67
3.67
9.0
16.33
15.33
2.33
11.67
7.33
7.67
3.33
-2.33
21.33
8.0
19.67
10.67
-0.33
-9.33
7.0
12.0
11.0
-1.0
8.33
-0.33
10.67
4.33
12.33
16.0
5.67
-3.0
8.33
-7.67
11.67
1.67
13.67
-4.0
-5.33
7.0
3.0
-0.67
6.0
2.67
-6.33
-1.0
4.33
12.0
8.0
17.0
16.67
-1.0
-8.33
11.33
11.33
18.67
10.0
6.33
-2.67
8.0
3.33
4.67
5.67
-12.0
6.33
15.33
8.0
-3.33
1.67
10.0
24.67
20.33
11.33
2.33
5.33
4.67
22.67
17.0
9.67
6.33
23.33
15.67
13.0
10.67
21.33
6.33
14.33
8.67
3.67
9.33
7.67
5.33
1.67
-0.33
14.67
3.0
5.67
5.0
20.33
-8.0
12.0
0.0
16.67
11.67
2.67
5.33
0.67
7.33
12.33
4.67
-0.67
8.33
-5.0
5.67
0.67
18.67
-6.33
-5.33
3.33
8.33
0.0
10.67
9.33
-0.33
5.33
6.67
-4.67
0.0
8.67
6.67
0.0
4.33
5.67
-1.33
-6.33
4.33
1.67
6.33
1.67
-1.33
11.0
0.67
-6.67
-1.0
-6.0
5.33
-3.0
2.0
2.0
7.67
-3.33
-12.0
1.67
5.0
4.67
1.67
5.0
0.0
6.33
1.0
-2.0
5.67
6.0
-4.67
-2.0
6.33
9.33
6.33
3.67
3.0
9.67
1.33
7.0
0.67
-1.67
2.67
7.0
-5.33
0.0
-0.67
3.67
-1.0
-1.33
7.0
6.33
4.33
5.0
-0.33
4.67
1.67
-2.0
-5.67
10.0
-4.0
-2.0
4.0
8.33
8.33
3.33
6.0
5.0
0.33
0.67
5.0
-1.33
3.0
0.33
1.33
4.67
-0.33
7.33
1.33
2.0
3.33
-0.33
4.0
-2.33
10.0
-1.33
-0.33
-4.0
5.33
-0.33
7.0
-0.67
-1.0
1.67
9.67
3.33
-3.67
10.33
2.33
13.0
6.67
-0.33
3.0
5.0
5.33
4.0
-0.33
2.33
8.33
-1.0
4.0
5.67
2.67
-3.0
-5.0
2.67
-2.33
1.67
-2.33
5.0
-4.33
9.67
3.67
-5.0
-1.33
-1.67
4.33
0.33
1.67
6.67
0.67
1.67
-6.0
0.33
-2.33
0.67
-12.0
-5.33
3.67
1.67
-1.67
3.33
6.0
-2.0
6.67
-3.33
-5.0
-0.67
-4.33
1.33
3.67
1.0
2.67
5.33
0.33
2.0
0.33
-1.67
-1.0
5.33
0.33
0.0
-1.0
2.33
5.67
2.0
-0.67
6.67
3.33
3.33
1.67
4.67
5.67
-1.33
2.0
-0.33
9.0
1.33
1.0
-1.33
1.67
3.33
-7.33
-2.0
4.0