File: EDX Back Ups and Old Files/Spectra copy 3.3.23/Samples/Low pH SF Ref/12.0.txt
0.0
51.0
48.0
-74.67
-47.67
-49.33
-95.0
-22.0
20.67
-29.67
37.67
1.0
-18.33
-3.67
-6.67
7.67
8.33
1.33
-2.0
1.0
-1.0
-0.33
-0.33
-0.33
-0.67
0.0
0.67
-0.67
-0.67
0.67
0.0
0.33
-0.33
-0.33
-0.33
-0.33
0.0
0.0
-0.33
0.0
0.67
0.0
-0.67
-0.67
0.0
0.33
0.67
-1.33
-1.33
2.0
-0.33
-0.33
0.33
1.0
0.33
-2.0
-2.0
-2.33
-3.33
2.33
-0.67
-3.33
-0.67
-1.67
3.33
1.33
-3.0
5.0
4.33
1.0
-0.67
1.67
4.33
6.0
7.67
-0.67
-0.67
-0.33
8.33
0.33
1.0
0.67
-3.0
1.0
-2.33
-2.0
3.0
-4.67
3.0
3.67
-0.33
0.67
3.67
8.33
7.33
-2.67
4.0
0.0
-5.67
7.33
2.67
0.33
2.67
1.67
-7.33
-1.33
3.33
-2.67
5.33
-0.33
0.33
5.67
7.67
3.33
0.33
1.33
-2.33
-0.67
-3.0
1.0
-5.33
3.67
0.67
-0.33
-0.67
4.0
-5.0
6.0
4.67
6.33
-0.67
10.67
-4.67
3.67
-2.67
5.0
-2.0
5.33
3.33
-0.67
4.33
3.67
-2.33
1.0
5.33
2.0
-2.0
0.0
7.33
-1.33
2.33
1.0
5.0
0.0
2.0
-2.33
-8.67
-0.67
1.33
4.67
-1.0
-0.67
7.33
2.67
8.0
6.33
-1.33
-2.67
2.0
1.67
3.33
-3.0
2.0
3.67
-1.67
3.0
4.33
4.67
-5.33
-5.33
3.67
-2.0
4.33
-1.0
-6.33
-4.33
-4.33
-1.33
1.33
-0.67
-5.0
-3.33
1.0
-4.0
-1.0
2.67
-2.33
3.67
-1.67
-0.67
-2.67
-3.0
-5.33
3.33
-1.0
5.67
-0.67
-3.0
-6.67
0.0
2.67
-1.67
-4.33
-0.67
0.67
-4.33
-2.67
-1.33
-0.33
-1.33
0.67
-3.33
-2.0
4.33
1.67
2.0
0.67
-1.0
-2.33
-1.67
2.67
-0.67
0.0
1.67
1.0
4.33
0.0
-3.0
10.67
0.0
-3.67
8.33
1.0
-5.0
-1.67
-0.67
4.67
3.33
0.0
3.0
2.33
-1.67
6.0
-7.0
-1.0
1.0
-2.33
-1.0
1.0
2.67
1.0
-0.67
1.33
-0.33
-4.0
2.33
-0.67
1.0
-3.33
-2.67
-3.67
-1.67
5.33
-0.33
-2.33
-0.33
2.67
-0.33
-6.67
1.67
0.33
-3.0
2.0
0.67
-1.33
4.0
3.33
0.33
-3.0
2.33
1.67
1.33
0.67
1.33
0.67
2.33
-1.33
-3.33
4.0
-0.33
-1.67
-0.33
0.33
-0.67
-2.67
-2.33
-2.33
0.67
-2.0
2.0
3.33
-0.67
0.67
6.33
-0.33
1.0
2.33
0.0
0.67
1.33
-3.33
0.0
0.0
-3.67
1.0
-5.0
2.0
0.0
-0.67
1.33
-1.67
4.33
-0.33
-4.33
4.0
4.33
-1.67
0.0
1.67
0.33
-2.0
1.0
4.33
0.33
-4.33
0.0
2.0
-4.67
2.0
-1.0
-0.67
0.67
-2.0
-1.67
-4.33
-1.33
1.0
-3.0
3.33
3.0
1.33
-2.67
-3.67
0.33
-2.67
1.33
-2.67
-2.67
2.33
1.0
-0.33
-6.67
5.0
-3.67
-4.67
-0.33
2.33
0.67
1.67
3.67
5.67
3.33
-2.33
7.0
-1.0
-3.33
-3.67
-3.0
-4.33
3.0
1.33
2.33
-7.0
2.33
-3.33
3.67
-0.33
-0.33
-2.67
-4.0
1.0
-4.67
0.67
-6.0
1.67
3.0
1.33
1.0
2.0
-3.67
1.67
-3.67
-0.67
8.0
4.0
2.0
3.33
4.33
-1.67
3.0
4.0
-1.33
1.33
3.0
1.0
-1.0
-7.0
4.33
6.33
-0.67
2.67
-1.0
-1.0
-1.0
0.33
-5.0
-1.33
1.67
0.33
-2.0
-4.33
-5.67
3.0
-2.67
-1.33
5.0
9.67
10.67
4.33
-2.0
2.33
0.0
-0.33
0.67
-1.0
4.33
-1.33
7.67
-5.67
0.0
4.0
0.0
-1.0
17.33
8.33
5.0
11.33
3.67
5.33
1.67
0.67
2.0
11.0
10.33
6.0
7.0
5.0
1.67
-1.67
4.33
1.67
-2.33
5.33
-5.0
-1.67
6.67
1.33
9.0
7.0
8.33
-5.33
3.0
13.67
-1.67
-3.0
1.67
3.67
8.33
8.33
7.0
4.67
14.33
4.67
4.33
-5.0
-3.33
-1.33
2.33
-1.33
7.0
4.33
8.67
-3.0
5.67
6.33
11.0
1.33
14.67
10.33
12.0
9.67
8.33
15.67
19.0
22.0
8.33
5.67
16.33
11.67
12.33
2.0
6.33
12.0
8.67
5.0
3.0
2.33
3.67
9.0
6.67
3.0
7.67
3.67
8.67
12.33
10.0
9.0
17.33
16.33
7.67
11.33
8.0
15.67
6.33
0.33
2.33
3.67
5.67
1.67
5.0
2.33
3.33
-0.67
6.0
3.0
2.67
-4.67
5.0
0.0
12.0
2.33
11.0
4.67
0.33
0.0
2.33
2.0
5.33
-0.33
-8.0
-0.67
-0.33
9.0
2.67
-0.67
1.0
11.33
-5.67
-4.0
-0.67
-7.0
20.33
14.0
15.0
31.33
16.67
20.67
27.33
15.33
21.67
17.33
12.67
6.67
12.0
11.67
-4.0
9.0
14.67
10.0
14.33
9.0
18.33
3.33
5.67
8.67
11.0
7.0
8.33
9.67
23.33
28.0
18.67
40.67
39.0
49.0
31.33
46.0
22.0
13.67
17.0
5.67
15.0
6.0
13.33
8.33
13.33
8.0
2.0
6.33
1.67
-3.67
7.33
5.33
2.33
2.33
-2.0
-2.33
6.0
8.0
6.0
-3.0
1.67
4.0
-1.67
0.33
9.67
5.67
6.33
4.0
3.67
7.67
15.67
10.67
5.0
8.33
19.0
13.33
9.33
1.33
1.33
4.67
5.33
3.0
0.67
13.67
1.67
10.0
12.67
13.0
-1.67
2.33
0.0
9.33
1.67
-1.33
-1.67
7.33
0.67
6.0
-2.0
10.0
-1.0
5.0
16.0
19.33
12.33
3.67
22.0
2.67
-2.33
-1.67
12.0
-4.0
7.0
-1.0
6.0
7.0
5.67
-4.67
5.67
-3.33
-1.33
-12.0
8.33
8.33
-2.67
-1.33
-0.67
-1.33
6.33
-3.33
4.33
-1.0
5.67
1.67
-4.33
-5.33
14.0
14.0
-5.0
1.0
-1.67
0.67
-0.33
10.33
5.33
-4.0
9.67
-3.0
1.33
-3.67
16.67
3.67
9.67
3.0
2.67
-2.0
7.0
-6.67
8.0
-3.33
-3.33
3.0
-5.67
2.0
13.0
1.0
-4.33
-2.0
-2.33
-2.67
3.33
1.67
-2.0
7.33
2.33
3.0
2.33
11.67
-6.33
-8.0
-3.67
-2.67
9.0
-11.33
1.67
-3.0
14.67
7.33
-0.67
0.33
1.33
-6.33
5.67
11.0
-6.33
-9.67
5.33
3.67
6.0
12.67
-1.67
9.33
-1.67
-4.33
1.67
8.33
8.67
-5.67
-0.33
-0.33
14.67
8.0
3.67
-3.0
-1.67
-4.0
-9.0
5.0
-0.33
4.67
1.67
-4.67
-5.33
1.33
5.33
-6.33
6.33
-10.67
-3.0
6.67
-4.33
7.67
-0.33
-6.33
2.33
0.33
-5.0
4.67
-13.67
9.67
6.33
2.67
-4.67
9.0
-0.33
-1.33
-1.0
-1.67
-0.33
-2.33
3.67
7.33
-8.33
-7.67
4.67
1.67
3.0
-6.33
-1.67
-2.0
0.0
0.33
-2.0
-3.0
6.0
9.67
0.67
-2.0
-8.33
-2.0
7.67
0.67
8.0
11.0
-5.67
-3.0
0.0
3.67
2.0
-0.67
-5.0
-4.67
-0.67
-7.67
3.67
-5.0
5.67
6.33
3.0
-1.33
4.33
-6.33
9.0
-0.33
-2.0
-0.67
-1.33
-6.0
0.67
-5.0
4.33
-7.67
-3.0
1.67
-0.33
1.67
1.0
-5.67
5.0
-1.0
-3.0
-1.0
-8.67
7.33
6.33
3.0
-2.0
2.33
-1.33
0.0
-6.33
5.0
-2.67
4.33
-4.33
-1.33
11.33
8.33
-1.0
4.33
-1.33
3.0
-2.33
-1.0
-0.33
-4.33
5.0
-0.67
-1.33
-2.0
8.33
-1.0
2.67
0.67
-0.67
-2.67
2.33
-1.67
4.0
7.67
-1.33
-2.0
1.0
-0.67
4.0
1.67
0.33
4.33
-2.0
2.0
-2.33
4.67
0.0
1.0
-1.33
5.67
3.67
3.67
7.0
3.67
5.67
-4.33
-2.0
-2.33
-0.67
4.33
0.33
2.67
2.67
0.67
-0.33
-4.0
1.33
-3.33
-0.33
-4.0
0.67
-1.33
0.67
-4.67
-1.67
-2.0
0.0
6.67
-1.33
-6.0
-0.67
5.67
0.33
-2.33
-1.0
1.67
1.33
1.33
-6.0
-4.67
-1.67
-4.0
0.33
-2.67
2.0
0.0
3.33
5.67
-5.0
-8.67
-0.33
2.33
1.33
-6.33
3.67
1.67
-0.33
3.0
3.67
5.0
1.33
-3.0
-0.33
0.67
-0.67
-4.33
-4.0
-2.0