File: EDX Back Ups and Old Files/Spectra copy 3.3.23/Samples/Low pH SF Ref/12.25.txt
0.0
41.0
77.0
-90.67
-11.67
-21.33
4.0
-17.0
14.67
23.33
-2.33
28.0
-11.33
-3.67
9.33
-0.33
-2.67
4.33
-1.0
1.0
0.0
-0.33
1.67
-0.33
-0.67
0.0
-0.33
-0.67
-0.67
0.67
0.0
0.33
1.67
-0.33
-0.33
0.67
0.0
1.0
0.67
0.0
0.67
0.0
1.33
-0.67
0.0
-0.67
0.67
-1.33
0.67
1.0
-0.33
-0.33
2.33
1.0
-0.67
-1.0
-1.0
-2.33
-1.33
0.33
4.33
-3.33
2.33
1.33
0.33
-0.67
3.0
2.0
3.33
0.0
2.33
4.67
-2.67
-2.0
-5.33
-4.67
-0.67
-0.33
1.33
-4.67
2.0
-6.33
3.0
0.0
1.67
-3.0
0.0
-0.67
1.0
5.67
-0.33
3.67
-0.33
2.33
2.33
3.33
1.0
4.0
5.33
6.33
-6.33
-0.67
-0.33
-0.33
-3.33
-2.33
-1.67
-1.67
1.33
7.67
-0.67
0.67
-0.33
5.33
-1.67
-0.67
0.67
0.33
-4.0
-2.0
-4.33
4.67
0.67
0.67
0.33
4.0
2.0
3.0
-0.33
5.33
0.33
-0.33
-3.67
-1.33
-0.67
-2.0
3.0
3.33
-0.67
-2.67
0.33
-1.33
5.67
3.0
0.33
-3.0
-2.0
-3.0
5.33
4.67
3.33
-1.0
0.0
-1.0
1.0
-6.33
-4.67
4.33
-0.67
2.67
5.0
1.33
3.33
1.67
2.0
-3.67
-3.33
-0.67
4.0
-0.33
3.33
-3.0
5.0
1.67
-3.67
1.0
-3.67
-5.33
0.67
0.67
-0.33
-3.0
1.33
0.0
-0.33
-3.33
-0.33
0.67
0.33
1.33
-5.0
-3.33
-6.0
-1.0
7.0
2.67
-2.33
-0.33
1.33
2.33
-1.67
-9.0
2.67
3.33
-1.0
-1.33
1.33
-5.0
-1.67
7.0
5.67
-0.67
-7.33
-1.67
-1.33
0.67
-1.67
1.67
-2.33
3.67
4.67
1.67
-4.0
1.33
4.67
-1.0
0.67
-1.0
-4.33
1.33
-0.33
3.33
3.0
-1.33
1.0
2.33
1.0
0.0
0.67
1.0
-0.67
-2.67
-2.0
-5.0
-4.67
4.33
3.67
-1.67
-4.0
-2.0
2.33
5.33
4.0
-8.0
0.0
4.0
-2.33
1.0
3.0
-0.33
-1.0
0.33
5.33
1.67
-3.0
0.33
-0.67
3.0
0.67
-1.67
-1.67
-0.67
-0.67
-1.33
2.67
-1.33
-2.33
-2.33
-2.67
-1.33
0.33
4.0
6.0
-0.33
0.67
1.0
3.33
4.33
-2.0
1.33
0.67
2.33
2.67
3.33
-1.33
1.33
-2.33
-2.33
-1.0
2.67
-1.67
-1.33
0.33
-2.67
3.33
-0.33
-4.33
-0.33
-1.0
4.0
-0.67
-0.67
0.67
1.33
1.67
2.0
0.33
-5.0
-2.33
-0.67
-0.33
-4.0
2.0
0.33
-2.0
0.0
-2.0
-3.0
-0.67
-2.67
7.33
1.33
0.67
-3.33
-2.0
3.33
-1.67
3.0
-0.33
-5.67
0.0
1.0
0.33
0.33
-2.33
-1.0
-2.0
-0.67
3.0
0.0
3.33
2.67
-1.0
1.33
1.67
-4.33
-4.0
2.0
-3.67
0.0
-1.67
-1.67
0.33
-0.67
-1.67
3.33
-3.67
-5.67
0.33
1.0
0.67
-0.67
0.0
-0.67
5.33
-3.33
4.33
0.67
2.67
1.67
-2.33
7.33
-0.33
-2.0
-2.0
2.67
-6.67
-2.0
-1.33
2.0
8.33
-6.67
0.0
3.33
-2.33
0.67
0.67
5.67
-3.67
-1.0
3.0
-10.67
1.67
-2.0
-1.33
-2.0
2.33
-2.0
6.0
-6.67
-1.33
-1.67
2.33
5.0
4.0
3.0
0.33
-6.67
2.33
3.0
2.0
-3.33
-3.67
3.0
2.0
-1.0
-1.0
4.33
-1.67
5.33
-5.33
-8.0
0.0
-5.0
0.33
-3.0
-1.33
-1.33
-6.67
-4.0
-3.33
0.33
6.0
-1.67
-3.33
2.0
1.67
1.67
3.33
0.0
7.33
-2.0
-3.33
-2.33
2.0
5.33
-8.33
-2.33
0.33
1.0
2.0
3.0
0.0
2.33
1.33
4.0
1.33
-4.33
3.33
0.67
0.67
-1.0
5.0
5.33
-7.0
0.0
5.0
-6.33
7.33
10.33
-0.33
2.67
-3.67
-1.0
0.33
-0.33
-4.67
1.0
5.0
1.33
-1.33
6.0
5.67
3.33
0.0
10.67
-0.33
-2.67
-3.67
3.0
5.67
5.33
2.67
5.33
-2.0
0.67
0.67
3.33
-6.33
7.0
5.33
0.67
3.0
7.67
2.33
7.0
0.33
-0.33
-0.67
5.0
0.67
9.33
7.67
10.0
2.0
-4.67
2.67
7.33
0.67
-0.67
2.0
4.33
1.0
2.67
6.0
-3.0
-3.67
2.67
-2.0
6.67
-4.0
2.67
-0.33
9.67
-5.67
-2.0
3.0
-0.67
2.33
-5.33
1.33
2.0
8.67
-3.67
-5.67
-1.67
0.67
5.67
-1.33
6.0
-4.67
2.33
-3.67
0.0
-5.0
-5.33
-4.67
2.0
-3.0
3.0
7.33
6.0
1.67
2.33
12.0
0.33
10.0
0.33
-2.33
-5.0
-3.67
-0.33
1.0
-6.33
-5.67
0.0
-1.67
-3.67
-1.0
-0.67
-9.0
10.33
18.0
-1.0
-3.67
-0.33
-1.33
8.33
-1.67
-1.33
-0.67
3.67
0.67
3.0
-3.33
-4.0
1.0
2.67
5.0
2.33
-4.0
1.33
-1.67
0.67
0.67
0.0
-2.0
2.33
3.67
-4.67
10.0
2.67
-0.33
5.0
4.0
5.33
-7.0
-2.0
-5.33
3.0
-5.33
2.0
0.0
-5.67
2.33
3.33
-1.0
1.0
1.33
-0.33
-0.67
6.33
-5.67
3.33
-6.67
-9.0
5.67
3.0
1.0
-5.0
-1.0
0.67
3.0
1.33
8.33
0.67
-0.33
3.33
-4.0
-1.33
4.67
11.67
-3.33
-3.0
2.33
0.0
13.33
-4.67
7.33
3.33
6.67
6.33
-8.0
-9.33
6.67
-11.33
3.0
-0.33
10.0
2.33
4.33
16.0
3.33
-2.33
2.67
0.33
-2.67
6.67
3.0
-2.0
-1.0
3.0
10.0
-3.0
2.33
-9.67
-1.33
-2.0
6.67
-6.33
1.33
5.0
2.0
-1.0
0.0
-3.0
-2.0
4.67
0.33
-0.33
-2.33
0.67
-8.0
5.33
5.33
-1.67
-8.33
-3.67
-0.33
0.33
-13.33
-6.67
0.0
-1.33
3.67
-2.33
0.67
3.0
13.0
-9.0
-1.0
6.33
-4.33
-4.33
-0.67
1.33
13.0
-2.33
-11.0
-2.67
-3.67
4.67
3.67
-3.33
0.0
-6.33
-4.0
13.0
-11.67
3.0
7.67
-0.33
-1.0
14.33
5.0
-2.0
2.0
0.67
-3.0
-7.33
2.33
2.33
8.67
25.0
2.33
1.33
-5.0
-6.67
3.67
4.67
-7.0
-7.67
-3.67
-5.0
-1.33
3.67
0.0
12.67
4.33
11.33
11.33
3.33
4.67
-7.33
7.0
6.67
-2.67
4.33
-3.33
-6.0
1.67
11.33
-1.67
1.33
2.67
2.67
0.33
-1.33
7.33
4.67
4.67
-7.33
-3.0
-2.33
6.0
-3.67
-5.0
9.0
0.0
-7.33
0.67
-8.33
1.33
-6.33
-10.67
-0.67
-9.33
6.33
3.33
0.0
-3.33
2.67
15.67
3.67
14.67
12.33
5.33
-2.0
-0.33
-14.67
-0.33
-2.67
2.67
-9.67
1.0
-1.33
-0.33
4.0
-5.67
3.67
-8.33
-2.33
-2.67
6.67
-3.67
7.67
-3.33
11.0
-3.33
-6.67
9.0
-3.0
10.33
3.0
-8.0
6.0
0.67
-6.33
-4.0
-0.33
2.0
1.67
3.67
6.0
1.0
3.33
-2.0
-7.0
-4.33
8.0
3.33
1.0
1.33
-0.67
-7.67
3.67
4.0
3.67
4.33
6.0
1.67
-1.67
-5.33
7.0
-7.33
2.0
-5.67
-4.33
0.0
0.67
1.0
-0.67
0.33
-9.0
4.67
2.67
-5.33
-8.0
-8.67
7.0
0.0
-6.0
0.0
-4.67
-3.67
-1.67
5.0
-5.0
-0.67
4.67
-6.0
-8.33
-1.0
0.33
8.33
2.67
-2.33
1.33
-3.67
-1.0
-2.67
-1.33
-5.0
-4.33
7.0
1.67
-1.33
3.0
6.33
-2.33
0.0
9.33
-1.0
0.67
7.67
0.33
2.33
-2.67
-3.67
5.0
-0.33
-2.33
-3.0
-1.0
-2.67
1.0
-3.33
-5.67
5.33
-4.0
5.0
6.67
-1.33
2.0
4.0
-0.33
-3.33
-5.33
3.67
1.0
-4.33
4.67
1.67
1.0
-0.33
3.33
1.33
-3.67
0.67
-0.33
-0.33
-2.33
0.0
3.33
-5.33
1.67
-2.0
-0.33
-0.33
4.67
-3.67
2.33
-4.0
3.0
1.67
-2.33
-4.0
-4.67
1.67
-1.67
-2.33
4.0
-3.33
1.33
2.33
-3.0
-5.67
2.33
-4.0
-3.67
0.33
1.0
-1.0
5.33
3.67
-1.0
-4.67
1.67
5.33
-0.67
1.67
-0.33
-0.33
-0.33
-2.0
2.67
2.0
2.33
-2.0
0.67
0.67
-2.67
-1.33
-4.0
0.0