File: EDX Back Ups and Old Files/Spectra copy 3.3.23/Samples/Low pH SF Ref/9.0.txt
0.0
-16.0
-13.0
-63.67
-89.67
-12.33
-101.0
-77.0
17.67
28.33
19.67
-3.0
-7.33
-5.67
3.33
-0.33
-1.67
4.33
-4.0
1.0
0.0
-0.33
1.67
0.67
-0.67
0.0
-0.33
0.33
-0.67
1.67
0.0
-0.67
-0.33
0.67
-0.33
-0.33
-1.0
0.0
-0.33
1.0
-0.33
0.0
-0.67
-0.67
0.0
2.33
-0.33
-1.33
-0.33
1.0
1.67
0.67
0.33
0.0
3.33
-1.0
1.0
-1.33
-1.33
-0.67
1.33
0.67
1.33
2.33
6.33
2.33
1.0
-1.0
7.33
-2.0
4.33
1.67
6.33
5.0
-3.33
-3.67
4.33
0.67
5.33
2.33
2.0
-2.33
5.0
3.0
4.67
1.0
1.0
-3.67
1.0
0.67
1.67
-1.33
3.67
2.33
0.33
1.33
5.0
8.0
6.33
10.33
0.67
0.33
2.67
2.67
-4.33
-2.33
7.33
8.33
2.33
6.67
0.33
2.67
4.67
3.33
5.33
4.33
1.67
4.33
0.0
5.0
2.67
6.67
0.67
7.67
0.33
3.0
5.0
3.0
-0.33
1.33
9.33
0.67
-0.67
7.67
2.33
9.0
0.0
4.33
3.33
0.33
0.33
3.67
-5.33
5.0
5.33
4.0
1.0
-7.0
5.33
2.67
6.33
-4.0
5.0
9.0
6.0
3.67
5.33
-1.67
4.33
6.67
7.0
5.33
1.33
4.67
3.0
1.33
-2.33
-1.67
4.0
9.67
-0.67
6.0
4.0
6.67
0.33
8.0
-1.67
1.67
0.67
4.67
8.67
-7.0
9.33
5.0
2.67
-6.33
-3.33
4.67
0.33
5.33
-2.0
1.67
1.0
-1.0
5.0
0.67
1.67
2.67
0.33
-0.67
5.33
-6.0
-1.33
-0.67
0.0
3.67
6.33
0.0
-2.67
0.0
4.67
7.33
-1.33
4.33
-2.33
0.67
-4.67
0.67
4.67
2.67
9.67
3.67
-2.0
3.33
0.67
0.0
3.67
0.0
-2.33
-3.67
-0.33
2.33
-1.0
0.67
2.0
5.33
3.0
-2.0
9.67
4.0
2.33
0.33
-1.0
-6.0
1.33
4.33
5.67
2.33
-3.0
-1.0
-2.67
1.33
0.0
0.0
1.0
9.0
-2.33
1.0
6.0
4.67
0.0
-0.67
5.33
-3.33
-4.0
2.33
-1.67
2.0
0.67
1.33
1.33
1.33
2.33
2.67
2.67
-2.33
1.67
0.67
-1.67
1.67
7.33
1.0
2.0
3.67
3.67
5.0
-2.67
5.33
1.0
-0.67
1.67
-0.67
0.67
4.33
-4.33
1.33
3.67
0.67
3.0
-0.33
3.33
4.67
2.33
0.33
-4.67
2.67
-3.33
3.67
1.0
1.0
0.33
-1.67
-0.33
3.33
-1.33
-1.0
3.33
1.0
-0.33
-0.67
-1.33
-2.0
1.0
-0.67
-5.0
-6.0
7.0
-3.0
-0.67
-3.67
1.33
5.33
2.67
2.67
-2.0
7.33
-1.67
-1.0
2.67
-3.67
4.0
1.0
-1.67
4.33
-4.33
-2.0
1.0
-0.67
2.0
1.0
-3.67
-3.33
-3.0
3.33
1.67
0.67
-3.0
4.0
-0.67
6.0
-5.67
1.33
-2.67
-0.67
-3.67
-1.67
-3.67
0.33
-1.67
6.0
2.67
-4.67
-1.0
8.33
-1.67
2.67
0.33
-4.33
2.67
-0.33
8.67
2.33
2.67
2.0
1.0
10.67
0.33
-4.0
1.67
4.0
3.33
-1.67
-2.0
2.33
0.67
0.67
-3.33
1.67
1.33
-3.0
2.0
-3.67
5.67
0.0
6.67
1.0
10.33
4.0
6.0
-0.67
-0.33
1.33
6.33
6.0
7.0
14.0
10.33
3.33
2.33
2.0
5.0
3.67
0.33
3.0
9.0
5.0
7.0
11.33
7.33
1.33
3.67
0.0
5.0
1.0
0.33
9.0
13.67
2.67
2.33
2.0
5.67
4.33
5.0
1.33
9.67
10.0
10.67
8.67
8.33
1.0
4.33
2.0
8.67
6.67
6.0
17.33
1.67
7.67
13.33
1.0
4.0
7.0
6.0
11.33
6.33
6.0
10.33
11.67
30.33
11.67
24.67
25.0
25.0
15.33
10.0
6.0
10.0
13.67
3.33
20.33
14.67
6.67
14.33
13.0
10.33
11.67
17.33
11.0
15.0
17.33
31.67
42.0
33.67
48.33
86.0
65.67
44.67
35.33
39.33
22.0
30.67
15.33
20.67
15.33
16.0
9.67
8.67
9.33
1.67
13.0
8.33
8.67
9.0
9.67
11.33
19.0
13.33
12.67
14.33
17.0
17.67
35.33
20.67
30.0
40.0
21.33
35.67
53.33
45.67
34.33
24.0
38.33
24.0
36.67
31.0
21.0
24.33
24.67
21.0
19.67
39.0
40.67
45.67
49.67
56.33
51.0
52.0
49.33
54.33
35.67
24.33
20.0
33.67
19.33
17.33
3.33
15.67
15.67
9.67
14.0
-1.67
7.33
5.33
10.0
19.0
15.67
7.33
23.0
17.0
22.0
27.33
23.0
11.67
14.33
39.0
20.33
16.0
21.33
13.67
19.0
15.33
4.67
15.0
0.67
14.33
12.0
22.33
4.33
0.0
33.33
21.0
51.33
74.0
77.0
113.33
113.67
111.67
108.33
99.33
89.67
84.33
80.67
47.67
27.0
26.67
26.0
29.0
26.67
17.0
31.33
16.0
24.33
7.33
32.67
34.67
36.0
25.0
47.33
41.67
45.33
57.0
60.67
40.67
46.0
43.0
23.33
35.0
31.0
18.67
32.0
19.67
21.0
21.0
9.33
8.33
26.33
27.0
17.0
9.33
11.67
13.33
16.33
18.33
18.33
-0.67
1.0
9.67
4.0
16.0
21.0
7.0
3.67
10.0
0.33
15.33
21.67
19.67
14.33
10.0
13.67
25.67
24.67
15.67
31.0
24.33
21.0
18.33
33.33
30.33
22.33
11.67
30.33
10.0
24.67
30.67
13.67
19.0
17.67
23.0
10.33
11.33
20.0
8.33
27.67
16.67
20.33
23.33
13.67
10.0
6.0
13.0
17.0
26.0
16.0
15.33
11.33
11.67
9.0
9.67
17.67
2.33
16.0
2.0
6.0
4.0
13.0
8.0
-2.33
14.33
12.67
-5.33
13.67
11.0
15.33
14.33
2.33
17.67
11.33
6.67
8.33
13.67
14.33
11.0
23.67
13.67
17.67
6.67
10.0
16.0
21.0
12.0
13.33
4.67
-1.33
11.33
5.33
8.0
3.67
0.0
6.33
2.33
16.67
-0.33
-8.33
8.0
-2.33
-1.0
16.0
7.33
18.0
-6.33
4.67
5.0
7.33
5.0
28.0
5.0
-0.33
6.0
-5.33
-1.67
17.33
17.67
18.0
11.33
-3.67
3.0
2.33
10.67
8.67
15.0
2.33
6.33
17.0
9.67
19.67
14.0
18.67
19.33
11.33
11.33
22.33
9.67
15.67
6.0
11.67
12.33
9.33
9.67
14.0
13.67
20.33
11.33
11.33
3.67
11.67
14.33
11.67
19.33
3.67
16.67
5.67
4.0
11.67
11.0
-0.67
7.0
18.0
17.0
3.67
11.67
16.67
14.33
1.67
1.33
8.33
10.67
19.33
6.33
13.0
-0.33
5.67
13.67
-2.33
7.67
3.33
8.33
3.0
5.67
-1.67
7.67
11.33
13.67
4.33
3.0
8.67
-1.33
-8.0
9.33
11.67
2.67
-3.33
8.33
-0.33
8.33
2.67
2.67
3.0
9.67
-2.67
0.0
3.0
5.33
-4.0
2.0
11.0
4.67
4.67
-4.0
-4.33
1.0
-5.33
6.67
2.0
8.0
-1.67
1.0
7.0
1.67
3.0
3.33
-5.0
8.33
2.33
1.33
6.67
8.0
-0.33
-1.67
10.0
4.67
7.33
1.67
20.0
-1.33
2.0
2.33
-7.33
-1.0
9.67
2.0
7.33
1.33
-2.0
6.67
3.67
-4.33
-4.0
4.33
6.0
4.0
4.0
1.0
-1.67
-3.67
2.33
-5.0
-11.0
8.33
1.67
-4.0
-0.33
3.0
3.33
8.33
0.67
8.67
8.33
-5.67
3.0
5.33
2.67
4.0
5.67
2.0
3.67
7.67
2.0
5.33
4.67
7.0
6.33
-8.0
5.67
6.67
2.33
7.33
1.33
7.33
9.0
5.67
0.67
2.0
-5.0
5.33
1.0
-2.33
1.33
0.33
-4.0
4.0
1.67
4.67
-1.0
-3.0
5.67
1.67
10.67
-7.33
1.0
1.67
2.67
1.67
0.0
-1.33
-5.67
4.33
0.33
-2.33
2.67
9.67
-3.33
-4.0
5.33
4.67
4.67
-1.0
-0.33
2.67
2.67
-1.67
-0.67
2.0
1.0
5.67
2.67
-4.0
0.33
-0.33
7.33
5.67
3.0
-2.33
3.33
-1.67
-1.0
4.33
8.33
-1.0
8.33
4.33
3.0
2.0
0.33
10.67
6.0
-0.67
-3.33
7.33
6.33
-0.33
1.67
2.67
-1.33
1.0
-1.33
1.0
0.33
-2.0
7.67
2.67
-1.67
-1.33
-9.0
8.0