File: EDX Back Ups and Old Files/Spectra copy 3.3.23/Samples/Low pH SF Ref/9.75.txt
0.0
27.0
-83.0
-5.67
-35.67
29.67
-43.0
24.0
-8.33
24.33
24.67
-12.0
-0.33
-13.67
2.33
-0.33
-1.67
4.33
1.0
0.0
-2.0
-0.33
0.67
0.67
-0.67
1.0
-0.33
-0.67
-0.67
-0.33
0.0
-0.67
-0.33
0.67
-0.33
-0.33
0.0
0.0
-0.33
1.0
-0.33
1.0
-0.67
1.33
1.0
-0.67
-0.33
1.67
-0.33
1.0
-0.33
-1.33
0.33
1.0
2.33
0.0
-2.0
-0.33
-1.33
3.33
0.33
-3.33
1.33
0.33
4.33
0.33
-2.0
3.0
5.33
3.0
1.33
5.67
-2.67
3.0
2.67
5.33
4.33
6.67
6.33
7.33
4.0
-2.33
1.0
-1.0
1.67
4.0
-2.0
-4.67
2.0
0.67
1.67
6.67
5.67
7.33
6.33
12.33
5.0
0.0
0.33
9.33
4.67
6.33
2.67
5.67
4.67
-1.33
3.33
2.33
5.33
3.67
1.33
1.67
2.67
-0.67
2.33
2.33
1.67
-3.67
-5.0
5.0
2.67
-1.33
1.67
8.67
2.33
9.0
1.0
5.0
7.67
4.33
4.33
4.67
-0.67
4.67
-0.67
5.0
-4.0
-2.67
2.33
-0.67
-2.67
8.67
4.67
8.0
-1.67
0.0
-2.0
0.0
3.33
3.67
0.33
3.0
6.0
10.0
2.0
-0.33
-2.67
4.33
8.33
0.67
8.0
-2.67
10.33
-0.33
3.0
0.33
-2.33
2.33
4.0
3.67
1.33
2.0
8.0
-1.33
-1.67
-1.0
0.33
-3.33
0.67
-0.33
5.67
3.0
3.33
7.0
5.67
-3.33
2.67
2.67
1.33
0.33
-6.0
-3.33
-6.0
2.0
8.0
1.67
7.67
1.67
1.33
5.33
5.33
0.0
4.67
1.33
-3.0
1.67
4.33
-3.0
-4.67
0.0
4.67
-0.67
-5.33
-0.67
2.67
1.67
-2.67
9.67
5.67
2.67
0.67
-1.33
0.0
1.33
-2.33
0.0
-3.33
1.0
-2.33
3.33
10.67
1.33
4.0
-0.33
-2.0
9.33
4.0
-4.0
2.67
3.0
1.33
0.33
0.0
-3.0
-3.67
2.33
4.67
-1.67
0.0
2.0
0.33
3.33
-1.0
-3.0
4.0
2.0
0.67
1.0
4.0
1.67
-1.0
0.33
1.33
-0.33
-4.0
1.33
4.33
1.0
-0.33
-0.67
-2.67
-0.67
3.33
1.67
0.67
2.67
-1.33
-1.33
-1.67
-0.33
-1.67
1.0
2.0
-1.33
-0.33
2.0
0.33
1.33
4.0
1.33
-1.33
2.33
3.67
3.33
-1.33
-1.67
1.67
-4.33
-1.0
2.67
-0.67
-0.33
4.33
-3.67
0.33
-3.33
-4.33
-1.33
1.0
1.0
1.33
-1.67
4.67
-0.67
1.67
4.0
5.33
0.0
-0.33
-1.67
-1.33
0.0
-4.0
-0.67
-3.0
-3.0
4.0
-3.0
-3.67
5.33
-0.67
0.33
1.67
1.67
1.0
-0.67
1.33
4.0
2.67
-0.67
4.0
3.0
0.33
4.33
2.67
3.0
6.0
0.33
2.0
5.0
1.33
8.67
0.0
2.33
-1.33
-3.33
-2.0
6.0
4.33
0.0
-0.67
-4.67
0.33
-1.67
-2.67
2.33
-1.67
-1.67
9.33
1.0
-0.33
0.33
1.0
6.33
-1.67
6.67
0.33
0.67
1.67
-3.33
-0.33
2.33
-1.33
1.0
0.0
-0.33
-2.67
-2.0
-6.33
1.0
-4.67
-0.67
-3.0
1.33
9.67
3.67
1.67
6.67
4.33
4.0
8.0
4.33
0.67
-5.0
-2.33
2.0
5.33
4.0
7.0
-5.67
-1.33
2.33
-0.67
0.0
6.0
2.0
9.33
4.33
1.33
8.0
6.0
2.67
-0.67
9.0
12.0
5.0
6.0
-0.67
6.33
5.33
-4.33
5.0
1.0
-7.0
3.33
6.0
4.67
2.67
11.33
-1.0
6.67
1.33
11.0
1.33
9.67
7.0
4.67
8.67
11.33
11.0
6.33
4.0
14.67
10.67
8.0
8.33
8.67
8.67
8.33
-1.0
10.0
5.0
5.0
13.33
10.33
13.0
11.33
33.67
25.33
33.67
46.67
38.0
25.0
22.33
21.0
19.0
24.0
21.67
10.33
12.33
8.67
14.67
9.33
1.0
12.33
8.67
16.33
22.0
24.0
27.33
32.67
37.0
40.67
45.33
41.0
40.67
37.67
28.33
28.33
29.0
24.67
16.33
21.67
11.33
10.0
8.67
5.67
8.33
11.67
18.0
17.33
15.67
10.0
16.67
13.33
13.0
13.33
16.67
21.33
9.0
27.67
19.33
19.67
22.0
2.0
8.33
11.67
21.33
8.67
10.33
23.0
35.33
12.0
25.67
37.0
34.0
29.33
35.67
26.0
42.67
41.0
59.67
57.67
54.67
50.33
50.0
39.0
51.33
19.33
35.67
34.33
30.0
19.67
15.33
15.33
13.33
11.67
15.67
18.67
22.0
7.33
1.33
3.33
13.0
4.0
13.67
5.33
17.0
6.0
17.0
19.33
28.0
8.67
15.33
19.0
23.33
26.0
33.33
26.67
22.0
21.33
15.67
12.0
7.67
10.33
9.0
19.33
15.33
19.0
26.33
20.0
31.33
44.0
61.0
72.33
87.67
72.67
113.33
98.33
108.67
110.33
107.67
57.67
43.0
33.67
38.0
37.0
35.67
31.0
37.33
42.0
47.33
58.33
32.67
23.67
35.0
27.0
21.33
29.67
36.33
41.0
35.67
46.67
37.0
42.0
33.33
39.0
23.0
19.67
45.0
29.67
48.0
40.0
36.33
29.33
33.33
9.0
18.0
22.33
11.67
9.33
16.33
21.33
25.33
10.33
10.0
16.67
11.0
9.0
3.0
17.0
8.67
9.0
-2.67
16.33
20.67
9.67
-0.67
7.0
13.67
25.67
24.67
12.67
12.0
12.33
27.0
26.33
21.33
12.33
32.33
18.67
16.33
34.0
17.67
21.67
16.67
31.0
13.67
41.0
33.33
10.33
13.0
9.33
6.67
20.67
17.33
14.33
29.67
13.0
3.0
18.0
6.0
13.0
10.0
18.33
5.33
25.67
15.0
7.67
8.67
19.33
20.0
14.0
17.0
9.0
6.0
26.0
6.67
13.33
11.67
2.67
13.67
2.0
16.33
23.33
10.33
8.67
8.33
4.67
20.33
7.67
10.33
23.0
8.67
19.67
22.67
-1.33
32.0
41.0
11.0
17.0
6.33
6.67
15.67
17.33
14.33
12.0
11.67
4.0
8.33
4.33
7.67
2.67
7.67
11.0
12.67
0.0
7.0
16.33
7.0
4.67
10.67
9.0
9.33
15.0
12.0
-2.0
7.67
5.0
6.67
11.33
9.33
8.67
21.0
1.33
-1.67
5.0
-2.67
1.67
1.67
-9.0
2.33
20.33
3.0
12.67
9.67
10.0
-0.33
23.33
16.33
18.33
24.33
3.67
3.67
13.0
13.67
15.33
9.33
6.67
5.0
19.67
14.33
13.33
23.33
16.67
13.67
14.33
15.67
1.33
8.67
-2.33
5.67
12.0
12.67
8.0
-2.67
-1.0
4.0
11.0
7.67
1.67
24.67
9.33
2.67
7.33
13.33
12.67
15.33
8.33
3.0
16.67
17.67
20.67
-3.33
17.67
10.33
1.33
9.0
2.67
2.33
4.67
6.33
10.67
8.33
-2.0
-0.33
-3.33
-3.0
6.33
13.67
0.67
5.67
10.33
-4.33
7.33
-2.33
5.67
10.0
0.67
0.33
1.0
7.0
5.33
3.0
1.0
8.0
7.67
-4.33
-2.0
-8.33
5.0
7.67
-0.33
4.0
8.0
-1.67
1.0
-2.0
3.67
0.0
0.33
9.0
7.33
3.33
5.33
12.67
8.0
16.67
15.33
9.0
3.67
-0.67
2.67
23.0
-8.33
9.0
2.33
-2.33
3.0
-3.33
0.0
2.33
7.33
-2.0
-3.33
11.67
0.67
-8.0
-0.67
14.0
2.0
-1.0
2.0
0.33
5.33
3.33
-3.0
-7.0
0.33
-3.33
2.0
-5.33
5.0
-1.67
3.33
6.67
0.67
5.33
5.33
0.0
9.33
-1.33
7.0
-0.33
-1.0
-0.33
4.67
0.0
-0.67
0.67
0.0
4.33
-4.0
-1.33
9.67
2.33
6.33
4.33
7.33
7.0
10.67
-6.33
-1.0
-6.0
-3.67
3.0
4.67
4.33
6.33
1.0
6.0
5.67
-4.33
3.0
3.0
0.67
3.67
1.67
-0.33
3.0
4.67
0.67
-3.33
4.0
-3.33
0.33
2.33
3.33
-3.33
2.67
2.67
-0.33
-3.0
6.33
-1.33
-1.33
-4.0
-2.33
5.67
2.67
-2.67
4.33
0.0
6.0
2.67
3.67
1.0
-2.67
2.67
7.33
1.67
0.0
2.67
4.33
1.33
-5.0
2.33
5.33
-5.0
-3.67
-1.67
5.0
7.0
2.33
8.67
-1.0
-6.67
2.67
12.33
3.33
-0.33
9.67
0.67
-3.33
-5.0
5.67
2.0
1.33
0.0
3.67
-2.33
3.33
-0.33
-3.0
1.0