File: EDX Back Ups and Old Files/Spectra copy 3.3.23/Samples/High pH BL 25C 4d/10.0.txt
0.0
-46.33
-37.67
-45.33
-86.33
55.0
-10.67
-70.33
-49.33
11.33
29.67
-27.67
15.33
5.0
-0.67
-4.33
3.33
-0.67
-1.67
-1.33
-0.67
0.67
0.0
0.0
-0.33
0.67
-0.67
-0.33
0.0
0.0
1.0
-0.67
0.0
0.0
0.0
0.0
-0.67
0.0
-1.0
-0.33
-0.67
2.0
2.0
2.0
0.67
-1.0
0.67
1.0
-0.67
1.0
3.0
2.67
-0.33
-2.0
0.33
-1.0
3.0
0.33
-1.33
2.0
-2.67
5.0
4.0
-2.67
0.0
3.33
0.67
3.0
1.33
1.33
3.0
-0.67
1.67
0.0
0.0
2.0
1.0
2.0
-2.67
-3.67
2.67
5.0
3.67
7.33
0.0
-5.33
3.67
-2.67
0.33
1.0
-1.0
-4.67
2.33
5.0
-0.67
3.67
11.67
-3.33
3.0
0.67
-3.33
-4.33
-6.67
2.33
7.67
4.0
-2.0
-1.33
8.0
1.0
3.33
10.0
0.67
1.33
7.67
4.0
-1.0
0.67
2.33
-1.0
8.67
12.0
-1.33
1.0
2.33
-0.67
5.33
5.67
1.33
-0.67
3.67
6.33
5.33
4.67
-2.67
5.0
2.0
0.67
-3.0
5.0
0.0
-0.67
-3.33
-3.0
-3.67
1.33
3.67
8.33
-0.33
-4.67
1.0
0.67
4.0
4.67
1.33
-3.0
3.0
-0.67
3.0
1.67
4.33
3.0
5.0
3.33
-3.67
0.0
3.33
-2.67
4.33
2.33
0.0
-2.0
8.33
-0.33
0.0
5.0
4.0
3.0
4.67
0.0
14.67
-3.0
1.0
-2.0
-0.33
-1.33
4.67
2.67
6.0
2.0
0.0
6.0
-3.0
-1.67
-1.0
3.67
2.33
4.0
2.33
-1.0
-0.33
0.33
6.67
-4.33
0.67
4.0
0.0
-5.33
-6.67
2.0
-6.0
4.0
-3.33
-3.0
-5.33
-3.0
3.33
3.67
3.0
0.0
7.67
1.0
-1.0
-3.33
2.67
-3.33
5.0
0.33
3.33
2.0
-1.0
3.33
-0.33
3.0
-5.33
1.67
-1.0
4.33
6.67
-2.33
-0.67
3.33
3.33
1.0
4.33
1.0
-5.0
2.67
-1.67
-2.0
1.67
1.0
5.0
1.33
4.0
0.0
-0.33
-1.67
6.67
2.33
-3.33
0.67
-2.67
5.33
3.33
-2.67
-1.67
-1.0
3.0
3.0
1.67
3.0
-2.33
-2.33
3.33
3.0
3.0
0.0
-2.0
-0.67
2.0
-1.67
-2.33
-0.33
2.67
-2.67
4.0
0.0
1.33
-0.33
-1.33
-1.33
6.33
0.0
1.0
4.67
1.0
-3.33
1.0
-3.33
4.67
3.67
-0.67
-2.0
0.67
0.67
-3.33
6.0
-4.67
-0.33
0.33
-1.0
-2.67
-1.67
-0.67
-2.67
1.67
0.33
-1.0
8.0
-1.67
2.33
-5.0
2.33
4.0
-3.0
0.67
-0.67
3.33
1.0
4.67
-2.33
2.67
-2.0
-0.33
4.0
-4.0
-0.33
0.0
3.33
0.33
1.0
5.0
3.67
8.33
1.0
-0.67
-2.67
-1.0
2.67
1.33
1.0
2.0
0.67
1.33
-1.33
6.0
5.0
2.67
-3.67
2.67
-2.67
-0.33
-1.67
2.67
1.0
-6.0
-0.67
1.67
-2.67
1.67
5.67
1.33
-2.0
3.0
-1.33
1.0
-5.33
0.33
4.67
2.67
5.33
5.67
-0.33
11.67
1.33
1.67
4.33
-1.67
7.33
1.33
7.33
-1.33
3.33
-1.67
1.33
-2.33
9.67
8.33
7.67
11.33
18.33
18.0
23.0
27.67
32.33
43.67
48.33
44.0
37.67
36.33
16.33
27.33
11.33
7.33
9.0
12.67
19.33
8.67
7.33
1.0
7.33
5.67
0.33
8.33
1.33
7.67
-3.0
2.0
9.67
4.33
2.67
4.67
9.0
-0.33
1.33
-0.33
9.67
-2.0
-2.67
-2.67
12.67
2.0
5.33
2.67
4.67
3.0
4.0
-0.67
2.0
11.0
5.67
3.67
5.33
3.0
4.0
2.0
5.0
0.0
2.67
1.67
4.67
9.0
8.0
4.33
4.67
0.33
12.33
10.0
-5.67
4.67
-1.67
4.33
4.0
3.67
2.0
10.67
9.0
-1.0
2.67
6.33
2.0
0.67
11.67
8.67
10.33
5.33
4.0
11.0
1.0
6.67
9.0
-1.33
5.67
4.33
10.0
12.0
2.33
9.0
-2.67
9.0
7.0
0.0
4.0
8.67
11.33
10.33
4.0
9.67
6.33
17.67
6.0
27.33
20.33
23.33
27.0
20.33
30.0
31.67
29.0
20.0
7.33
27.33
24.0
15.67
13.33
13.67
19.67
-0.67
5.0
2.33
15.33
10.33
5.67
8.33
10.33
13.0
6.67
0.33
8.67
2.33
2.67
5.0
12.67
10.33
14.33
8.33
5.33
10.0
7.67
3.67
1.33
6.33
4.33
-2.0
8.0
0.33
12.0
10.0
9.0
9.0
11.0
7.0
5.33
2.67
6.33
14.0
9.33
5.33
6.33
6.67
4.67
15.33
7.0
-2.67
5.67
15.33
21.67
11.0
8.67
16.67
6.67
1.33
6.0
6.67
0.33
4.33
11.67
-2.0
6.0
14.0
2.0
-4.33
15.33
8.0
3.33
0.0
14.33
8.0
7.67
8.33
2.33
11.0
12.67
14.33
16.67
6.33
11.0
17.0
9.0
12.33
18.0
1.33
6.67
6.67
14.67
7.33
9.67
13.0
7.33
15.0
5.67
18.67
9.33
11.33
1.33
2.33
10.67
11.33
12.33
5.0
17.0
9.67
10.0
12.0
14.33
8.0
14.33
17.0
17.0
22.67
6.0
15.67
19.67
9.67
20.67
26.33
48.33
39.33
38.67
38.0
45.67
55.0
89.33
83.0
111.0
113.33
130.67
93.33
114.67
126.33
124.0
82.33
76.67
60.0
52.0
49.33
22.0
18.67
19.33
10.67
7.33
15.0
21.33
8.67
5.67
0.33
11.33
3.33
18.67
7.33
4.0
25.0
15.0
4.67
11.67
7.0
1.0
4.0
9.33
-3.0
13.67
12.0
20.33
14.0
32.67
6.33
2.0
7.0
-2.0
17.33
13.33
4.0
10.33
10.67
15.0
18.67
9.67
14.33
16.33
12.33
7.33
7.33
7.67
4.0
6.67
9.0
3.33
1.67
15.33
2.33
15.67
19.0
5.0
11.0
-3.0
9.67
14.33
6.67
9.33
-1.33
2.33
4.33
3.67
11.67
6.0
4.33
5.33
0.33
6.0
6.67
5.33
0.0
1.33
2.0
5.67
7.33
3.0
2.33
2.0
-2.0
10.33
21.67
19.67
21.33
17.33
14.67
25.33
43.33
27.33
41.0
41.33
33.33
29.33
30.0
28.33
11.67
20.0
26.0
20.67
17.0
14.0
2.0
18.0
3.67
2.67
19.0
8.0
11.67
10.33
4.33
8.0
12.0
9.0
1.0
7.67
6.67
-4.67
10.0
5.67
8.33
10.0
8.33
-5.67
29.33
12.33
8.0
18.67
8.33
10.67
22.33
6.0
-5.0
2.33
0.67
3.0
2.0
4.33
9.0
4.33
12.33
0.0
5.67
0.67
-5.33
-8.67
-5.0
1.33
2.67
3.33
-6.0
4.33
0.33
2.33
-3.67
0.0
15.67
2.67
6.67
7.67
5.67
-1.67
5.67
-5.0
9.0
-1.0
4.0
-0.67
-0.67
-1.67
7.0
8.0
-4.33
8.0
-5.0
2.0
-6.0
7.67
4.67
-4.0
-0.67
-2.33
-0.33
5.0
-6.67
-3.67
-3.33
-1.33
1.33
-1.0
-2.0
7.67
3.33
2.33
9.67
1.0
1.33
-6.33
-5.67
18.67
1.67
6.33
11.0
5.0
1.33
4.67
2.67
12.67
0.0
1.67
5.67
6.33
4.0
3.0
13.67
4.0
-2.0
-2.0
-3.67
-2.33
7.33
2.67
3.33
6.33
-2.67
6.67
-2.67
1.33
0.67
-0.67
1.33
6.67
8.67
-7.0
13.33
-5.67
-0.33
7.33
9.67
0.33
-0.33
-1.0
1.0
13.0
-8.33
8.33
8.33
-5.0
-2.67
-4.0
3.0
-2.0
-4.67
-7.0
-2.0
-1.0
11.67
8.67
7.33
2.67
3.33
-3.0
3.33
1.67
7.67
1.67
-3.0
2.33
-6.67
1.33
-7.0
5.0
2.67
-1.33
-2.33
-1.0
-6.33
-1.0
6.33
8.0
4.0
9.0
11.0
9.33
4.67
7.33
0.0
6.67
4.67
7.0
3.33
-1.0
10.0
3.33
-0.67
-2.33
-3.33
1.0
9.33
-3.33
1.0
7.0
1.0
3.0
4.0
-3.33
3.67
-3.33
0.33
4.67
-0.33
0.0
4.33
1.0
0.0
-3.33
1.33
-0.67
-1.0
0.0
2.0
2.0
1.67
-0.33
4.33
0.0
2.0
-1.67
-1.67
-3.0
0.33
-5.0
2.0
10.0
-1.0
-4.33
1.33
4.0
3.67
2.0
0.67
1.67
-6.33
-2.67
-5.33
0.67
1.67
-2.67
7.33
-2.0
-0.67
-1.67
-0.33
2.67
1.67