File: EDX Back Ups and Old Files/Spectra copy 3.3.23/Samples/High pH BL 25C 4d/11.5.txt
0.0
-25.33
11.33
-1.33
6.67
-36.0
38.33
-12.33
-76.33
-46.67
-23.33
-40.67
9.33
7.0
-0.67
-1.33
-3.67
-5.67
2.33
2.67
-0.67
-0.33
2.0
0.0
-0.33
0.67
-0.67
-0.33
0.0
0.0
1.0
-0.67
1.0
1.0
1.0
1.0
0.33
0.0
-1.0
1.67
-0.67
1.0
1.0
1.0
-0.33
-1.0
-0.33
0.0
-0.67
0.0
0.0
1.67
0.67
-2.0
-0.67
3.0
0.0
-0.67
4.67
-2.0
-0.67
2.0
5.0
0.33
1.0
2.33
-4.33
1.0
0.33
-4.67
5.0
4.33
-2.33
1.0
0.0
0.0
7.0
6.0
-1.67
-5.67
-4.33
-6.0
5.67
5.33
-1.0
-7.33
5.67
3.33
7.33
5.0
-1.0
-5.67
7.33
-3.0
2.33
0.67
1.67
-0.33
5.0
-0.33
-3.33
-6.33
0.33
6.33
1.67
2.0
1.0
-6.33
2.0
2.0
-5.67
4.0
1.67
5.33
-0.33
2.0
-2.0
0.67
4.33
-3.0
6.67
-5.0
0.67
3.0
3.33
-4.67
5.33
8.67
4.33
3.33
-1.33
4.33
3.33
-2.33
-3.67
3.0
-1.0
6.67
-4.0
-2.0
2.0
4.33
0.67
2.0
2.33
3.33
6.67
1.33
3.67
0.33
5.0
-0.33
5.0
0.67
1.33
0.0
13.0
6.33
5.0
0.67
8.33
8.0
6.0
0.33
1.33
2.0
3.33
-3.67
1.33
0.33
5.0
3.0
3.33
3.67
-2.0
1.0
5.0
8.0
5.67
-4.0
8.67
-2.0
2.0
4.0
-2.33
-2.33
-0.33
-1.33
-1.0
2.0
-2.0
-1.0
0.0
-0.67
5.0
-4.33
-2.67
2.0
-0.67
1.0
0.67
-0.67
-0.33
-3.33
0.67
8.0
-1.0
0.67
2.33
1.0
2.0
0.0
-0.33
1.0
-4.33
7.0
7.33
0.67
9.0
0.0
6.67
-1.0
3.0
-0.33
-1.33
0.67
3.0
3.33
-1.67
-3.0
5.0
-3.67
-2.33
1.0
2.67
0.67
-1.0
0.33
-2.33
-0.33
5.33
3.33
-0.67
-1.0
-1.67
5.0
-7.0
3.67
-2.67
2.0
4.67
-3.0
-2.0
1.33
1.0
2.0
0.67
-3.67
3.67
3.33
1.67
1.67
-2.67
0.33
3.33
-0.67
-3.67
-4.0
1.0
-2.0
0.67
-3.0
0.67
0.67
3.33
1.0
-1.0
1.0
3.0
2.33
1.0
-0.67
-7.33
-0.33
5.67
0.33
4.0
5.0
0.33
-3.33
-0.33
-1.33
-1.67
1.0
0.0
-0.33
-4.0
-3.33
1.0
1.67
3.67
-1.33
2.33
2.0
0.67
3.67
-4.33
2.0
5.33
0.67
4.33
-1.0
3.33
2.33
-0.67
-0.67
4.67
4.33
3.0
1.0
-0.67
0.33
-5.0
1.33
-1.0
-2.0
-4.33
2.33
1.33
5.0
6.67
2.67
4.67
1.0
0.67
-3.0
-5.0
2.67
1.0
0.33
0.33
5.0
-1.0
1.67
4.33
-1.0
0.33
3.33
-1.0
-0.33
-3.67
2.0
5.0
-2.33
3.33
0.67
6.0
4.0
11.67
2.33
4.67
-1.67
2.67
2.33
2.67
-1.0
3.0
0.33
-0.33
1.33
2.67
1.67
-1.67
-2.0
6.0
-1.33
3.0
0.67
6.33
-2.33
1.67
4.33
-0.33
-3.33
-1.33
1.33
1.67
2.33
-1.67
0.33
-4.67
4.33
2.67
5.33
3.33
-1.67
-3.33
-1.33
-1.67
7.67
1.33
6.33
16.0
7.0
17.67
19.33
20.67
11.33
14.0
10.67
15.33
6.33
9.33
6.33
13.33
8.0
6.67
0.33
1.67
3.33
2.0
6.33
1.67
5.33
12.33
3.33
7.67
-1.0
1.0
4.67
4.33
0.67
9.67
16.0
2.67
5.33
1.67
3.67
-1.0
1.33
4.33
1.67
4.0
4.33
17.67
4.67
5.0
2.0
7.33
6.0
4.0
1.67
5.67
0.33
5.0
16.0
11.0
12.0
7.0
9.67
3.67
1.67
11.0
16.0
2.33
8.67
-1.67
4.33
6.0
0.33
1.67
0.33
0.33
3.0
11.67
0.0
4.67
7.0
11.0
2.67
5.33
9.0
6.67
-1.33
5.67
8.33
7.33
7.0
7.0
10.0
-0.33
5.0
0.67
12.67
16.33
10.0
3.0
2.33
3.0
8.33
8.0
2.0
3.0
10.0
5.67
7.33
8.33
7.0
13.67
15.33
15.67
15.0
31.33
35.33
27.33
26.0
33.33
41.0
49.67
31.0
48.0
31.33
25.33
22.0
21.67
14.33
16.67
8.67
1.33
3.0
7.33
8.33
13.33
3.67
11.33
8.33
9.0
6.67
13.33
9.67
6.33
2.67
14.0
13.67
17.33
11.33
5.33
13.33
2.0
4.67
4.67
9.33
4.33
4.33
0.0
6.0
0.33
10.0
17.0
6.0
16.0
16.0
-2.0
18.33
13.67
6.33
13.0
5.33
9.33
10.33
11.67
-5.33
16.33
8.0
17.33
10.67
15.33
4.67
14.0
17.67
18.67
4.67
2.33
14.0
8.67
7.33
12.33
5.67
13.0
3.0
8.0
15.0
0.67
9.33
7.0
6.33
15.0
21.33
12.0
19.67
12.33
9.33
6.0
19.67
12.33
14.67
11.33
4.0
18.0
18.0
12.33
8.0
17.33
16.67
14.67
15.67
-0.67
18.67
16.0
23.33
17.0
9.67
13.67
22.33
9.33
12.33
11.33
14.67
11.33
8.33
9.0
20.0
14.67
14.0
7.0
0.33
7.0
8.33
20.0
14.0
18.67
13.0
15.67
25.67
18.67
16.67
27.33
48.33
47.33
57.67
62.0
93.67
133.0
152.33
178.0
234.0
212.33
224.67
249.33
250.67
232.33
201.0
178.33
122.67
117.0
94.0
81.33
64.0
62.67
31.33
17.67
20.33
21.0
13.33
13.67
6.67
21.33
7.33
7.33
20.67
5.33
4.0
16.0
22.0
12.67
9.67
16.0
12.0
5.0
9.33
8.0
6.67
9.0
16.33
7.0
8.67
8.33
4.0
11.0
2.0
12.33
18.33
7.0
22.33
15.67
12.0
13.67
12.67
4.33
17.33
11.33
1.33
13.33
18.67
6.0
-0.33
24.0
-1.67
2.67
20.33
16.33
9.67
7.0
5.0
24.0
14.0
0.67
7.33
2.67
0.33
4.67
2.33
9.33
13.67
5.67
6.0
-1.67
-0.67
10.33
11.0
6.67
0.33
7.0
4.33
20.0
8.67
-0.67
1.0
9.33
10.0
3.0
11.33
10.67
18.67
3.33
19.33
3.67
13.33
19.33
14.33
22.0
19.33
21.33
12.33
5.0
0.33
10.67
1.0
12.0
9.67
17.0
6.0
6.0
3.0
14.67
-2.33
10.0
9.0
2.67
8.33
-3.67
12.0
0.0
8.0
6.0
11.67
10.67
3.33
8.0
13.67
11.33
8.0
5.33
6.33
3.33
6.33
2.0
10.67
8.33
9.67
12.33
13.0
14.0
12.33
5.67
-1.0
2.0
7.33
10.0
-1.67
8.33
-3.0
5.67
-6.33
-1.33
-4.67
13.0
-1.67
7.67
3.33
1.0
1.33
10.33
7.33
-5.67
7.0
5.67
-8.33
15.67
9.67
-2.33
6.33
-3.33
7.0
2.0
6.0
-2.0
5.33
-1.67
1.33
-9.0
0.0
-0.33
9.0
-5.0
-2.0
7.0
10.67
0.67
4.0
3.33
8.67
-3.33
-1.0
-9.67
1.33
0.67
2.67
2.33
-2.0
-1.0
10.67
2.33
2.33
9.67
5.0
0.33
2.67
3.33
15.67
1.67
1.33
13.0
19.0
5.33
6.67
7.67
3.67
11.0
15.67
4.67
17.33
9.0
11.0
3.67
1.0
-5.0
2.0
10.33
-4.33
-0.67
-2.33
2.33
-1.67
-1.67
-0.33
1.33
8.33
-0.33
4.33
1.33
6.67
-4.33
4.0
2.33
-0.67
-0.33
11.33
4.67
2.33
-1.33
3.0
-3.0
-3.0
5.67
-0.67
8.33
-8.0
-1.67
-3.0
3.0
-2.0
5.33
7.0
-1.0
4.0
1.67
4.67
6.33
-3.33
6.33
0.0
0.33
3.67
2.67
9.67
-1.0
-0.67
0.33
9.33
-5.0
-8.0
2.67
3.67
5.67
-5.0
1.67
-3.0
1.33
-1.0
5.0
6.0
3.0
10.33
7.67
2.33
-1.0
5.67
0.67
6.0
1.33
1.0
-2.0
9.33
2.33
-2.33
0.67
-4.0
3.33
8.67
2.0
0.0
1.0
-5.0
5.0
2.67
0.67
0.67
3.33
-1.33
-0.33
1.0
-6.67
6.0
8.0
4.67
-1.67
0.33
2.0
1.0
1.0
-2.0
2.67
-3.33
-3.67
2.0
6.0
4.33
1.33
-1.0
-1.67
-7.0
1.0
1.0
3.0
-5.33
-5.67
-4.0
2.67
2.0
-2.33
2.67
-4.33
-2.67
-3.33
2.67
6.67
2.33
3.33
3.0
0.33
-3.67
-2.33
-0.33
5.67