File: EDX Back Ups and Old Files/Spectra copy 3.3.23/Samples/High pH BL 25C 4d/11.75.txt
0.0
-65.33
-45.67
-190.33
-28.33
46.0
-24.67
-12.33
-57.33
-29.67
-12.33
-25.67
11.33
-13.0
-11.67
-7.33
-2.67
0.33
1.33
3.67
-1.67
3.67
1.0
0.0
-0.33
-0.33
-0.67
-0.33
2.0
2.0
0.0
1.33
0.0
0.0
0.0
0.0
-0.67
0.0
-1.0
1.67
0.33
1.0
0.0
1.0
0.67
-1.0
-0.33
1.0
0.33
0.0
0.0
-1.33
-2.33
-1.0
0.33
0.0
2.0
-0.67
1.67
-3.0
0.33
0.0
-1.0
-1.67
3.0
4.33
-4.33
5.0
2.33
3.33
11.0
-3.67
-1.33
-3.0
0.0
-8.0
9.0
0.0
6.33
3.33
-2.33
-5.0
0.67
6.33
-5.0
-3.33
7.67
1.33
-1.67
-2.0
-2.0
-4.67
0.33
3.0
-1.67
4.67
8.67
0.67
6.0
1.67
-1.33
-4.33
-4.67
-0.67
2.67
2.0
2.0
0.67
1.0
-2.0
-1.67
4.0
1.67
-1.67
2.67
0.0
9.0
8.67
-8.67
5.0
1.67
1.0
5.67
0.0
0.33
3.33
4.33
4.67
5.33
0.33
-4.33
5.33
6.33
7.67
-1.67
3.0
0.0
2.67
1.0
-2.0
-2.0
-2.67
-2.33
-1.0
4.33
0.33
2.67
9.33
1.67
-4.67
4.0
3.67
2.0
1.67
2.33
0.0
9.0
3.33
8.0
0.67
1.33
5.0
9.0
-2.67
3.33
0.0
2.33
-4.67
3.33
0.33
3.0
-4.0
-0.67
8.67
2.0
0.0
7.0
0.0
1.67
-2.0
2.67
-2.0
3.0
3.0
2.67
0.67
2.67
-0.33
7.0
-2.0
5.0
0.0
2.0
4.33
-1.0
3.67
1.33
5.0
2.33
1.0
-3.33
1.33
-0.33
-0.33
0.67
1.0
-1.0
1.67
0.33
-2.0
-3.0
2.0
-0.33
-3.0
-0.33
0.0
9.33
-1.33
6.0
2.0
6.67
-2.0
-4.0
-1.33
2.67
3.67
5.0
-2.67
5.33
5.0
0.0
2.33
0.67
-2.0
0.67
5.67
2.0
-2.67
0.67
-1.33
3.33
5.33
-0.67
1.0
3.33
4.0
-5.0
1.67
-2.67
2.0
0.67
0.0
-3.0
0.33
-1.0
1.0
-1.33
-5.67
0.67
2.33
-2.33
0.67
1.33
0.33
4.33
-2.67
-0.67
2.0
2.0
2.0
4.67
-3.0
0.67
1.67
5.33
1.0
1.0
0.0
0.0
0.33
0.0
4.33
-3.33
2.67
1.67
-0.67
-2.0
2.0
8.33
-3.33
-2.33
-4.33
0.33
1.0
0.0
3.67
0.0
-0.33
7.0
-0.33
5.67
-5.33
-1.67
1.0
-0.33
6.67
0.67
2.0
-0.67
0.67
0.33
5.0
-0.67
1.33
3.33
-0.67
1.67
-1.67
0.0
0.0
-2.67
-1.67
-4.0
0.33
-1.0
1.0
2.67
2.33
1.33
0.0
2.67
4.67
2.67
-4.0
4.67
2.0
-3.0
-0.33
7.0
-2.67
1.33
3.0
2.0
-0.33
3.33
1.0
-1.67
1.33
-1.0
-1.33
2.33
0.0
2.0
3.67
4.33
6.67
2.0
2.0
3.67
8.33
0.67
1.33
0.67
0.33
0.67
-5.0
-4.0
2.33
2.67
10.33
0.67
2.67
3.33
-4.0
-2.0
4.67
1.0
1.67
-0.67
-3.33
3.67
6.33
1.67
3.67
-0.33
0.33
1.67
5.33
-0.67
4.33
-0.67
1.33
-3.33
3.33
-1.67
0.33
2.67
0.67
2.33
5.67
-2.67
4.33
3.0
0.0
9.67
7.33
9.67
9.33
7.0
1.67
13.33
0.33
3.33
2.33
8.33
1.0
1.67
3.33
1.67
6.33
8.0
3.33
0.67
1.33
7.33
4.33
5.67
1.0
4.0
-0.33
8.33
5.67
5.67
4.0
12.67
-2.67
2.67
5.67
3.0
-5.67
8.33
0.67
-2.0
9.33
2.67
5.67
7.0
5.0
10.33
0.0
6.0
0.67
0.67
0.33
15.0
12.0
9.0
15.0
-7.0
6.67
4.67
6.67
-3.0
6.0
-2.67
2.67
-2.67
9.33
8.0
8.33
18.67
3.33
7.33
1.0
8.67
5.0
14.67
-2.0
9.0
-3.33
6.33
5.0
2.67
4.67
2.67
3.33
0.33
7.0
7.0
11.0
5.67
13.0
11.67
10.67
3.33
0.0
6.0
5.33
12.0
5.33
13.0
0.0
-1.0
5.0
18.67
5.33
11.33
4.0
6.67
4.33
23.67
17.0
14.33
30.33
43.33
25.0
34.33
41.0
43.67
42.0
35.0
32.33
34.33
21.0
13.67
18.33
15.67
4.67
6.33
8.0
10.33
13.33
8.33
-0.33
11.33
9.33
10.0
10.67
3.33
3.67
16.33
17.67
3.0
10.67
13.33
4.33
13.33
5.33
11.0
4.67
7.67
7.33
8.33
5.33
14.0
16.0
0.33
4.0
15.0
9.0
19.0
12.0
7.0
17.33
10.67
14.33
1.0
14.33
9.33
15.33
17.67
10.67
5.33
13.0
14.33
16.67
2.33
18.67
7.0
8.67
11.67
12.67
3.33
11.0
15.67
5.33
2.33
5.67
13.0
11.0
-9.0
18.0
0.67
22.33
9.0
10.33
0.0
8.33
13.0
8.67
5.33
14.33
13.0
10.67
8.33
11.67
3.33
2.0
12.0
8.0
13.33
9.0
8.33
0.67
11.67
8.67
6.33
6.67
12.0
16.33
17.0
11.67
10.67
3.33
17.33
12.33
12.33
9.67
10.33
10.33
20.0
9.0
25.67
10.0
16.0
15.33
3.0
18.33
10.0
9.0
9.67
14.0
12.67
13.67
16.67
16.67
33.33
39.33
61.33
66.67
96.0
110.67
127.0
168.33
175.0
237.0
248.33
284.67
278.33
259.67
236.33
231.0
172.33
187.67
150.0
102.0
85.33
68.0
50.67
28.33
25.67
12.33
20.0
13.33
19.67
16.67
14.33
13.33
17.33
20.67
2.33
8.0
19.0
16.0
5.67
15.67
11.0
6.0
18.0
6.33
9.0
13.67
17.0
9.33
6.0
11.67
9.33
16.0
16.0
6.0
9.33
10.33
10.0
12.33
14.67
13.0
17.67
7.67
17.33
9.33
8.33
4.33
5.33
15.67
-3.0
13.67
14.0
3.33
6.67
26.33
10.33
9.67
11.0
6.0
11.0
12.0
18.67
6.33
7.67
14.33
7.67
-6.67
-0.67
-0.33
8.67
19.0
5.33
3.33
-1.67
13.0
10.67
2.33
-3.0
6.33
4.0
5.67
-3.67
4.0
6.33
6.0
-8.0
-5.67
8.67
8.67
5.33
-1.67
-0.33
4.33
16.33
4.33
10.0
5.33
6.33
12.33
4.0
11.33
-4.33
2.0
12.0
4.67
4.0
8.0
5.0
-3.0
6.67
3.67
3.0
14.0
14.67
3.33
8.33
15.0
1.0
26.0
6.0
14.67
1.67
7.33
8.0
9.67
30.33
2.0
20.33
9.33
6.33
16.33
13.0
19.67
3.33
16.67
17.33
24.0
2.0
16.33
4.67
20.0
12.0
13.33
14.0
18.33
0.33
6.0
5.67
4.67
-1.33
8.33
4.0
7.33
0.67
-5.67
2.0
1.33
7.33
4.33
-3.67
5.0
7.67
1.67
6.67
3.67
-10.33
8.33
2.67
5.0
6.0
7.0
-10.0
6.33
1.33
2.33
-6.0
-2.0
4.67
7.0
-2.0
0.0
-4.0
1.67
-7.33
-7.0
2.33
-7.33
2.67
3.0
5.33
-0.67
0.67
-5.33
8.33
1.0
-3.0
8.67
4.33
4.33
3.67
2.0
9.33
2.67
5.33
19.67
14.67
16.33
8.0
11.0
9.33
19.67
5.67
6.67
8.0
3.67
4.67
8.33
0.0
8.0
1.67
5.0
5.0
-3.0
2.33
1.67
3.33
2.67
7.33
3.33
10.33
-2.33
5.33
0.33
5.67
-0.67
-3.67
5.67
0.67
-2.0
8.33
1.33
0.67
-0.67
7.67
2.33
6.67
3.0
10.0
5.0
-8.33
6.33
4.33
-3.0
-0.67
0.0
7.0
-2.0
3.33
-7.0
-4.0
13.0
-4.33
1.67
-0.67
-2.33
11.33
-3.0
5.33
0.67
-2.33
-0.33
0.0
2.33
-0.67
7.33
0.0
4.0
7.67
3.67
-0.33
2.0
4.67
-5.0
9.33
3.0
9.0
6.0
-2.0
8.33
6.67
10.33
6.0
9.67
8.67
11.0
-1.67
6.0
-2.0
0.33
1.33
-9.33
-1.33
1.0
2.33
-2.33
-1.0
5.0
0.0
-2.0
5.0
2.67
-2.33
-2.33
0.33
-4.33
5.67
3.0
4.33
6.0
0.0
3.67
1.33
6.33
-5.0
10.0
1.0
1.0
-2.33
0.67
2.33
2.0
6.0
13.33
-4.67
-5.0
3.33
-2.0
-4.0
4.0
9.0
-0.33
0.33
3.0
5.67
3.0
-4.33
0.67
-6.33
-1.67
-6.33
-4.33
1.67
-2.67
3.33
-1.0
-0.67
6.33
0.67
-0.33
4.67