File: EDX Back Ups and Old Files/Spectra copy 3.3.23/Samples/High pH BL 25C 4d/12.0.txt
0.0
20.67
5.33
44.67
5.67
-23.0
29.33
-9.33
-10.33
-21.67
-26.33
-60.67
1.33
-2.0
-8.67
-10.33
-5.67
1.33
4.33
-0.33
0.33
0.67
2.0
0.0
-0.33
-0.33
0.33
-0.33
0.0
1.0
0.0
0.33
1.0
0.0
0.0
0.0
-0.67
1.0
0.0
-0.33
-0.67
0.0
1.0
0.0
-0.33
-1.0
-1.33
1.0
-1.67
0.0
-1.0
-1.33
0.67
-2.0
-0.67
-2.0
1.0
0.33
-2.33
-3.0
0.33
0.0
3.0
1.33
4.0
3.33
-2.33
-3.0
-0.67
-3.67
3.0
-1.67
-6.33
-2.0
2.0
-1.0
2.0
4.0
3.33
-7.67
5.67
-5.0
8.67
0.33
2.0
-1.33
2.67
5.33
-1.67
1.0
2.0
-0.67
4.33
6.0
-3.67
-0.33
2.67
3.67
-2.0
-2.33
-4.33
-4.33
-7.67
-1.67
-0.33
1.0
6.0
-4.33
3.0
2.0
0.33
-1.0
1.67
1.33
0.67
-3.0
-5.0
0.67
-1.67
5.0
-3.33
2.0
3.67
3.0
1.33
2.33
-3.67
1.67
9.33
-3.67
0.67
7.33
8.33
0.67
-3.67
1.0
-3.0
4.67
-5.0
0.0
1.0
-3.67
2.67
-1.0
4.33
1.33
-0.33
-2.67
6.67
1.33
4.0
2.67
7.0
2.67
-0.67
-1.0
3.0
2.33
0.0
1.67
1.33
4.0
-5.0
3.33
2.33
6.0
-1.67
-1.67
-0.67
5.33
-2.0
-5.0
2.33
4.67
3.0
5.0
3.0
-8.0
3.67
-2.0
2.67
-1.0
-1.0
1.0
-4.33
-2.33
-1.33
1.67
11.0
5.0
-1.0
5.0
-2.0
0.33
3.0
-3.33
4.33
2.0
5.33
-4.0
3.67
-0.67
-0.33
-6.33
5.67
6.0
0.0
-2.33
0.33
-3.0
-1.0
4.0
0.67
-4.0
-5.33
-2.0
2.33
-0.33
3.0
5.0
2.67
3.0
-1.0
2.67
1.67
3.67
1.0
3.33
-3.67
6.0
-1.0
2.33
0.67
3.0
-3.33
-1.33
1.0
-2.67
0.67
-1.33
3.33
4.33
1.33
-1.0
1.33
2.0
-3.0
3.67
1.33
2.0
1.67
0.0
1.0
-3.67
-3.0
-2.0
4.67
-7.67
-0.33
2.33
-4.33
0.67
1.33
5.33
1.33
-2.67
-3.67
-4.0
3.0
4.0
2.67
1.0
5.67
3.67
5.33
-3.0
1.0
2.0
-3.0
3.33
1.0
1.33
-1.33
0.67
5.67
2.33
1.0
5.0
-0.67
-0.33
-0.33
-1.33
4.33
-1.0
-1.0
-2.33
-2.0
-0.33
2.0
-3.33
2.67
-1.33
2.33
-4.0
-0.33
5.67
0.67
2.0
1.33
-0.33
1.33
-3.0
-2.67
3.33
2.33
2.33
3.67
-1.67
6.0
2.0
0.33
-0.67
1.0
-2.67
0.0
0.0
2.67
1.33
4.33
7.0
0.67
-0.33
-0.33
-4.0
-2.33
-2.0
0.0
-0.33
10.0
1.33
2.33
-1.0
2.0
1.67
1.33
-1.0
-0.67
1.33
0.0
1.67
3.33
-4.0
4.0
-0.33
1.33
3.67
4.0
4.0
-2.33
-1.67
-2.33
5.33
0.67
2.33
-0.33
1.0
-4.0
0.33
-1.33
4.33
-0.33
7.67
3.33
-1.0
3.0
-3.33
-4.0
1.67
-0.67
-1.33
2.67
5.33
7.67
8.67
5.67
-1.67
2.67
5.33
-0.67
5.33
-1.67
1.33
4.67
3.33
5.33
0.33
6.67
5.67
5.33
-0.33
1.33
8.33
7.0
3.0
6.67
-1.67
6.67
9.33
-1.0
2.67
6.33
0.33
5.33
3.33
4.33
4.0
2.67
9.33
1.67
8.33
5.0
3.33
3.67
8.33
11.33
8.33
3.67
-4.0
-1.0
5.67
8.33
6.67
5.67
4.0
-0.33
4.33
2.67
12.67
2.0
8.33
3.33
-0.33
10.0
3.33
10.67
16.67
-4.0
3.0
7.33
5.0
0.0
3.67
10.67
5.33
13.0
6.0
8.0
11.0
-2.0
8.67
3.67
4.67
5.0
3.0
13.33
2.67
0.33
7.33
-2.0
1.33
11.67
8.33
7.33
4.0
2.67
4.0
6.67
8.0
0.0
-0.33
5.33
5.0
3.67
12.67
1.67
3.33
9.33
5.0
9.0
13.0
9.67
9.0
5.67
6.67
3.33
10.0
-1.0
9.33
21.0
17.33
1.0
-1.0
9.0
0.0
2.67
1.33
7.33
13.0
11.67
17.33
12.67
18.0
31.33
31.33
19.33
33.0
46.33
42.0
38.67
34.0
46.0
29.33
35.33
17.0
19.67
18.33
16.67
6.67
11.33
9.0
0.33
8.33
22.33
4.67
9.33
17.33
9.0
7.67
19.33
2.67
13.33
16.67
-4.0
16.67
16.33
17.33
2.33
8.33
6.0
4.67
8.67
3.33
-2.67
3.33
10.0
9.0
3.33
8.0
11.0
8.0
7.0
10.0
-1.0
20.33
10.67
0.33
5.0
5.33
16.33
5.33
11.67
9.67
13.33
3.0
10.33
-6.33
8.33
4.67
9.0
16.67
18.67
10.67
17.33
11.0
14.67
5.33
7.33
6.67
10.0
2.0
1.0
7.0
-0.33
16.33
12.0
11.33
9.0
20.33
10.0
6.67
1.33
11.33
4.0
17.67
4.33
8.67
25.33
14.0
13.0
10.0
0.33
14.0
16.33
11.67
8.67
14.67
4.33
7.67
9.0
4.33
16.0
11.67
18.67
10.33
2.33
3.33
21.33
9.67
11.33
14.33
14.0
13.0
4.67
6.0
6.0
7.33
10.0
15.33
10.0
9.0
9.67
11.0
15.67
20.67
9.67
20.67
33.33
51.33
56.33
68.67
91.0
124.67
163.0
200.33
226.0
234.0
251.33
271.67
272.33
298.67
260.33
263.0
237.33
169.67
136.0
121.0
90.33
66.0
51.67
24.33
16.67
23.33
25.0
6.33
-3.33
10.67
21.33
21.33
12.33
14.67
8.33
15.0
13.0
23.0
14.67
11.67
5.0
8.0
15.0
13.33
8.0
8.67
18.0
11.33
22.0
14.67
6.33
22.0
15.0
11.0
19.33
11.33
7.0
1.33
14.67
9.0
16.67
5.67
7.33
7.33
7.33
14.33
2.33
12.67
1.0
2.67
22.0
-2.67
-0.33
9.33
22.33
14.67
11.0
6.0
9.0
24.0
9.67
4.33
3.67
8.33
16.67
15.33
8.33
-1.33
3.67
8.0
3.33
1.33
14.33
6.0
9.67
6.33
0.0
8.33
-2.0
6.67
0.33
12.0
1.33
3.0
-2.0
-3.67
16.67
14.67
10.33
3.33
-4.33
12.33
2.33
18.33
13.0
3.33
7.33
9.33
-1.0
6.33
-10.33
1.0
4.0
4.67
12.0
10.0
0.0
4.0
6.67
0.67
4.0
7.0
3.67
12.33
5.33
1.0
-5.0
6.0
5.0
1.67
7.67
9.33
13.0
9.67
17.33
4.0
24.33
8.33
8.33
13.33
4.0
19.67
4.33
18.67
9.33
12.0
8.0
9.33
1.67
20.0
3.0
1.33
9.0
-2.67
2.33
3.0
-0.33
-4.33
-8.33
-6.67
7.0
7.33
-1.33
8.33
1.0
0.33
6.33
-0.67
5.33
3.0
2.67
-4.33
13.67
5.67
3.67
10.33
2.67
1.0
3.0
-2.0
2.0
3.33
2.33
18.33
2.0
-4.0
6.67
1.0
-13.0
-1.0
1.0
2.67
-2.33
-1.0
7.33
-3.33
-4.33
5.0
0.33
5.33
7.67
5.67
7.33
-3.0
-10.0
10.67
13.33
5.33
8.67
10.0
4.33
9.67
7.33
18.67
15.67
6.33
9.0
8.0
2.33
7.67
6.67
-0.33
5.0
13.67
10.67
5.33
4.0
13.0
5.67
9.0
-7.0
2.0
7.33
-3.33
0.33
-0.33
2.33
5.33
0.33
5.67
-3.67
8.33
0.67
-3.67
3.33
1.67
-0.33
-9.0
5.33
2.33
17.67
8.33
-2.33
-4.67
6.67
8.0
-2.0
-3.0
0.67
6.33
2.33
1.0
-4.67
-2.0
1.0
1.0
-1.67
-9.0
10.0
0.0
0.67
1.67
2.33
-1.33
-4.67
0.0
0.33
1.67
1.67
-1.33
-10.0
4.33
-5.67
2.33
-5.0
7.0
9.67
6.67
8.67
-4.0
2.67
6.0
5.33
1.0
0.0
8.0
5.0
4.33
6.67
8.33
6.0
6.67
4.67
8.0
8.33
9.0
1.0
3.33
-2.67
-3.33
2.67
6.0
-0.67
10.67
0.0
3.0
4.0
1.0
7.0
0.67
8.67
1.67
9.33
-4.33
-1.33
1.0
2.33
2.0
0.0
-1.33
4.33
0.33
3.0
2.0
-3.0
1.0
0.67
-1.33
-0.67
4.0
4.0
0.33
0.33
3.0
2.33
-2.0
-3.0
-2.0
0.0
-2.33
-1.67
-4.0
3.67
6.0
-3.33
3.67
-4.33
4.33
-5.33
-3.33
2.67
5.33
-0.67
-1.0
-0.67
4.33
0.67
4.67
1.67