File: EDX Back Ups and Old Files/Spectra copy 3.3.23/Samples/High pH BL 25C 4d/6.25.txt
0.0
25.67
-13.67
-45.33
-37.33
79.0
38.33
51.67
3.67
-3.67
-4.33
-21.67
10.33
-8.0
3.33
4.67
-2.67
2.33
-1.67
-0.33
1.33
-0.33
0.0
1.0
-0.33
-0.33
-0.67
-0.33
1.0
1.0
2.0
-0.67
1.0
1.0
0.0
0.0
-0.67
1.0
-1.0
-0.33
1.33
0.0
1.0
0.0
-0.33
-1.0
-0.33
1.0
0.33
0.0
1.0
1.67
-0.33
-1.0
2.33
2.0
3.0
2.33
4.67
1.0
0.33
2.0
0.0
-1.67
-1.0
3.33
-1.33
2.0
3.33
-1.67
0.0
3.33
-0.33
-1.0
2.0
-1.0
2.0
5.0
6.33
0.33
3.67
-1.0
7.67
6.33
-3.0
0.67
3.67
1.33
5.33
-1.0
9.0
-1.67
4.33
4.0
11.33
6.67
5.67
1.67
-2.0
0.67
-0.33
-2.33
-1.67
-0.67
-1.33
2.0
7.0
-0.33
5.0
3.0
2.33
-1.0
-2.33
8.33
3.67
-5.0
1.0
0.67
2.33
3.0
-1.33
10.0
3.67
12.0
-1.67
0.33
3.33
0.67
4.33
7.33
4.67
7.33
1.33
3.67
-0.67
1.0
1.0
2.67
-1.0
-1.0
2.0
-1.67
0.67
4.0
0.33
6.33
3.67
1.33
-3.33
-2.67
10.0
10.67
2.0
-3.33
4.33
4.0
2.0
6.33
1.0
2.67
5.33
-1.0
4.0
-3.67
8.33
5.0
-2.67
-1.67
1.33
5.33
2.0
0.0
2.33
-0.33
3.0
7.0
4.0
0.0
6.67
4.0
5.67
3.0
6.0
-3.0
-0.33
0.67
0.67
-1.33
2.0
-3.0
0.0
0.0
10.0
-1.67
1.0
-0.33
7.33
1.0
4.33
1.0
4.67
7.33
3.67
-1.33
5.67
2.0
-2.0
4.67
-3.67
1.0
2.0
10.0
-4.33
0.0
-0.33
4.0
7.33
2.67
3.0
-1.0
-2.33
8.0
5.0
-0.33
3.67
1.67
3.0
-2.67
6.33
2.0
1.0
-2.67
1.67
-2.0
4.67
2.67
0.0
0.33
-0.33
1.67
0.33
2.33
0.33
1.0
1.33
2.0
-2.0
1.67
5.33
1.0
0.67
-1.0
3.0
5.33
3.0
-2.0
3.67
-1.67
2.67
6.33
2.67
2.67
0.33
3.33
3.33
0.33
3.33
-1.0
5.0
1.0
-1.33
7.0
-0.33
0.67
-0.67
3.0
4.0
3.0
-2.0
0.33
-5.0
7.33
0.67
1.67
0.67
4.33
1.0
2.0
-0.67
2.67
0.67
-1.33
4.33
3.0
3.0
-1.33
-1.0
-2.33
3.0
-0.33
0.67
1.67
0.33
2.0
-3.33
4.67
3.67
4.0
-0.67
-0.33
0.33
0.0
4.33
-1.67
-0.67
-1.67
8.67
6.33
-1.0
2.0
0.33
1.33
-6.0
4.33
1.0
-5.0
-1.33
4.33
0.33
1.0
5.67
-0.33
0.67
-1.0
0.67
0.0
2.0
-1.33
0.0
3.33
-0.67
3.0
4.0
5.67
3.33
4.0
5.33
-0.67
-1.0
1.67
0.33
-1.0
-5.0
4.67
3.33
0.67
4.0
3.0
-6.33
1.33
1.67
-0.67
6.67
-2.67
-3.33
1.0
-3.0
8.33
4.67
3.33
2.67
1.67
-4.67
-2.0
2.0
-1.33
-5.0
-5.33
-2.67
2.67
0.67
1.33
5.67
-4.33
-2.33
1.33
2.67
3.33
-2.67
0.33
2.33
1.33
9.67
2.33
3.33
4.33
5.67
10.67
1.33
7.67
-0.67
6.33
16.0
17.0
25.67
18.33
19.67
29.33
23.0
21.67
22.33
6.33
1.33
9.33
7.33
10.0
6.67
10.33
2.67
-0.67
8.0
2.33
5.67
5.33
13.33
2.33
13.67
-1.0
-4.0
8.67
8.33
3.67
5.67
-1.0
2.67
10.33
2.67
6.67
-1.0
3.33
11.33
3.67
8.0
3.33
4.67
6.67
3.0
-2.0
-0.67
8.0
2.0
-2.33
2.67
-3.67
8.0
6.0
1.0
7.0
8.0
5.67
7.67
7.67
-2.0
3.0
7.33
14.67
-4.67
2.33
5.0
-8.67
-0.33
5.33
2.33
4.0
-0.33
0.0
9.67
0.0
-2.0
4.67
7.33
6.0
8.67
3.67
9.67
5.33
2.33
8.0
4.0
14.0
-1.33
12.0
5.67
6.67
1.33
5.0
4.0
7.33
4.0
4.33
-5.0
-3.0
10.0
3.0
9.67
5.33
0.33
3.0
-2.33
5.33
0.67
11.0
10.33
16.33
10.33
16.0
16.33
21.0
6.67
28.0
27.0
8.33
18.33
22.0
15.67
17.33
11.67
1.67
8.33
6.0
9.33
5.33
5.33
4.67
5.33
8.33
9.0
2.67
3.33
2.67
9.33
10.67
10.0
9.67
6.33
9.33
19.33
10.33
5.0
2.67
13.67
2.33
6.33
2.33
7.0
4.0
4.33
1.0
7.0
13.0
4.0
6.0
3.0
8.33
15.67
1.33
7.0
6.33
4.33
20.33
12.67
6.67
17.33
21.0
13.33
0.67
0.33
15.67
21.0
3.67
3.67
11.67
-0.67
7.0
3.67
5.33
10.33
12.67
17.0
11.0
15.0
17.0
-1.33
22.33
14.0
2.33
9.0
13.33
8.0
9.67
9.33
-1.67
2.0
1.67
11.33
13.67
11.33
15.0
2.0
19.0
11.33
8.0
10.33
2.67
21.67
9.67
-2.67
7.67
12.0
6.33
11.0
5.67
10.67
4.33
16.33
5.33
5.33
14.67
18.33
9.33
8.0
13.0
11.67
0.0
17.0
17.33
12.0
15.33
16.0
27.0
18.67
17.0
16.67
26.67
17.67
23.67
31.33
27.33
13.33
25.67
53.0
42.67
46.0
69.33
83.0
65.0
89.33
99.67
81.33
85.67
89.33
80.0
85.33
47.67
63.0
59.0
41.33
20.0
25.67
19.33
4.67
19.33
16.0
24.33
4.67
5.67
13.33
16.33
6.33
5.67
14.33
5.0
11.0
16.0
8.67
12.67
9.0
14.0
4.0
13.33
21.0
34.67
11.0
12.33
10.0
16.67
5.33
3.0
13.0
15.0
10.33
16.33
8.0
-1.67
15.67
23.0
27.67
17.67
20.33
15.33
18.33
10.33
22.33
27.67
11.0
14.67
5.0
13.33
-3.33
10.33
10.33
9.67
6.0
2.0
18.0
14.0
15.67
7.33
7.67
18.33
5.67
17.33
6.33
10.67
-0.33
7.0
11.33
8.33
6.33
14.0
4.67
-3.67
6.0
3.33
0.0
5.67
7.33
14.0
6.33
11.0
16.0
22.33
16.67
11.67
9.33
7.33
20.67
35.33
33.33
27.33
10.0
21.33
33.33
28.33
29.0
19.33
12.67
22.0
14.0
17.67
14.0
14.0
23.0
8.0
14.67
8.67
2.0
12.0
5.67
11.33
6.33
0.0
8.0
7.0
8.0
9.67
6.67
8.33
10.0
2.67
0.33
-3.0
7.33
5.33
17.33
13.33
23.0
12.67
4.33
8.67
13.33
16.0
-3.0
9.33
2.67
15.0
3.0
5.33
28.0
6.33
5.33
4.0
7.67
4.67
10.67
-2.67
3.0
-0.67
4.67
9.33
5.0
8.33
-0.67
6.33
1.33
-7.0
6.67
7.67
5.67
5.67
-0.33
-1.67
15.67
-3.0
12.0
4.0
7.0
-1.67
4.33
10.33
14.0
-9.0
16.67
6.0
-5.0
5.0
-6.0
11.67
2.67
14.0
3.33
3.67
-6.33
-2.0
-2.67
13.33
-0.33
-5.33
2.33
-3.0
-2.0
10.67
3.33
-0.67
3.67
5.0
5.33
8.67
9.33
17.67
9.67
0.33
5.0
16.0
-0.67
9.67
12.67
3.67
9.0
6.67
4.67
10.33
-1.0
8.0
0.67
5.0
1.0
5.0
-4.67
-3.33
-1.67
8.67
2.33
4.33
-1.67
3.67
3.33
12.33
1.67
0.33
-3.67
1.67
1.67
-6.0
-0.67
2.33
7.67
6.33
9.67
4.33
4.67
4.0
4.0
-6.0
-3.33
6.33
7.33
-2.0
4.33
-6.0
3.0
2.0
1.33
3.0
3.0
5.0
9.67
1.67
7.33
-2.33
5.33
2.0
7.33
4.67
0.67
-4.33
-5.0
-0.67
-2.67
7.33
-7.0
2.0
12.67
4.67
-0.33
1.0
3.67
5.0
6.33
0.0
2.0
5.0
-1.0
-1.67
5.67
8.33
-4.0
6.67
6.67
6.0
1.33
-2.0
4.0
4.33
6.33
-5.33
3.67
5.0
8.33
1.67
4.0
0.0
4.0
-2.0
5.0
10.67
2.67
-0.33
3.33
-1.33
-2.33
3.0
-1.67
1.0
5.0
1.67
3.33
0.33
-6.0
3.0
6.0
-1.0
-3.33
1.67
-1.67
8.0
3.0
4.33
-3.67
-4.0
2.33
2.0
-3.0
5.0
7.0
4.67
4.33
2.0
-2.33
2.0
-1.33
-0.33
5.67
3.33
3.67
1.67
4.67
-6.67
6.33
2.0
6.33
-4.67
-0.33
2.67
-0.33