File: EDX Back Ups and Old Files/Spectra copy 3.3.23/Samples/High pH BL 25C 4d/6.5.txt
0.0
22.67
-58.67
15.67
-10.33
83.0
-6.67
-5.33
25.67
11.33
4.67
2.33
21.33
18.0
-5.67
1.67
4.33
3.33
0.33
-0.33
0.33
2.67
0.0
0.0
-0.33
0.67
-0.67
0.67
1.0
0.0
1.0
0.33
0.0
1.0
0.0
1.0
0.33
1.0
-1.0
0.67
-0.67
0.0
0.0
1.0
-0.33
-1.0
-0.33
0.0
-1.67
0.0
0.0
2.67
0.67
0.0
0.33
-1.0
0.0
1.33
-2.33
3.0
-0.67
1.0
-1.0
-2.67
5.0
-0.67
0.67
3.0
-1.67
-3.67
3.0
8.33
-3.33
1.0
-3.0
-1.0
5.0
7.0
5.33
-1.67
4.67
-1.0
3.67
1.33
4.0
-0.33
0.67
1.33
4.33
3.0
0.0
7.33
11.33
2.0
-1.67
5.67
4.67
3.67
-2.0
6.67
-0.33
-1.33
3.33
9.33
-1.33
7.0
6.0
4.67
3.0
4.0
-4.67
-1.0
2.67
0.33
1.67
7.0
3.0
5.67
14.33
3.0
-2.33
4.0
7.67
8.0
-2.67
4.33
2.33
2.67
10.33
4.33
6.67
6.33
10.33
0.67
2.33
1.0
8.0
7.67
5.0
0.0
5.0
-3.67
0.67
4.0
7.33
0.33
2.67
2.33
6.67
0.33
7.0
9.67
1.0
0.67
1.33
1.0
9.0
9.33
6.0
7.67
5.33
6.0
4.0
6.33
2.33
1.0
3.33
1.33
11.33
-3.67
-2.0
6.0
1.33
1.67
6.0
8.0
7.0
6.0
0.67
-1.0
9.67
9.0
-3.0
0.0
3.67
1.67
3.67
3.67
2.0
4.0
0.0
5.0
-1.0
4.33
1.0
0.67
-3.67
1.0
1.33
4.0
8.67
0.33
4.67
0.67
8.67
4.0
1.0
4.67
-0.67
0.0
6.0
4.0
-0.33
-1.0
-2.33
-1.0
6.33
1.67
7.0
0.0
3.67
8.0
5.0
0.67
6.67
6.67
0.0
4.33
3.33
5.0
1.0
3.33
1.67
8.0
-2.33
4.67
3.0
2.33
7.67
-1.33
1.33
5.33
-0.67
-2.0
0.33
6.0
1.0
2.67
4.33
-1.0
3.67
0.0
0.0
6.33
6.0
3.0
-2.33
-1.67
0.67
0.33
1.67
8.67
-0.67
-0.67
1.33
0.33
1.33
-3.0
3.0
1.0
3.67
3.0
-0.33
-3.33
0.33
-1.0
3.0
3.0
0.0
1.33
-3.0
0.33
-4.33
0.67
-1.33
-1.67
0.0
2.0
-0.67
4.67
0.67
0.67
-0.67
3.0
2.0
-0.33
-4.0
0.67
2.0
4.67
-0.33
-2.33
0.33
0.0
0.67
6.67
5.67
2.0
-0.67
2.67
0.33
0.0
-2.67
-0.67
-0.67
1.33
0.67
5.33
3.0
3.0
4.33
-0.67
0.0
4.33
-1.0
0.0
-3.33
-1.67
-0.67
10.0
3.67
-3.33
-0.33
-7.0
0.67
2.0
-3.0
-3.33
4.0
-2.67
-0.67
0.0
2.0
2.67
-1.67
-3.0
-2.67
5.33
3.0
2.67
1.33
1.0
0.0
1.67
-0.67
0.67
-1.0
0.0
1.67
-0.67
1.67
-2.67
3.67
-1.67
4.67
2.0
-6.0
4.33
-2.33
1.33
3.67
4.67
-1.67
-2.0
4.0
-0.33
-3.0
-0.33
-2.67
-0.33
3.67
3.33
6.67
-0.33
-2.33
-1.67
-1.33
0.33
5.33
2.33
-0.67
8.33
1.67
0.33
4.33
-3.67
-3.33
5.67
4.33
3.67
6.33
19.33
8.0
21.0
16.67
26.33
32.67
13.33
34.0
12.67
23.33
9.33
8.33
6.33
9.33
4.0
10.67
7.33
7.67
10.33
9.0
6.33
4.67
6.33
8.33
-2.67
4.67
6.0
1.0
8.67
4.33
1.67
3.67
2.0
-2.33
4.33
4.67
4.67
1.0
-2.67
3.33
3.67
6.0
0.33
4.67
-1.33
3.0
0.0
4.33
2.0
3.0
8.67
2.67
1.33
6.0
2.0
8.0
3.0
1.0
6.67
5.67
3.67
-2.0
3.0
-0.67
8.67
0.33
4.33
2.0
3.33
9.67
2.33
4.33
5.0
7.67
-1.0
-0.33
1.0
7.0
-0.33
8.33
4.0
2.67
4.67
-4.33
2.33
1.33
4.0
3.0
5.0
3.67
8.0
11.67
9.67
5.33
0.0
4.0
0.33
10.0
4.33
8.0
2.0
8.0
4.0
3.67
5.33
10.33
3.0
2.67
15.33
14.67
12.0
17.33
8.33
21.33
7.0
9.33
33.0
16.67
21.0
21.0
8.33
26.33
12.0
21.67
10.33
14.67
9.67
-8.67
7.0
18.33
4.33
12.33
-0.33
3.33
11.33
14.0
12.67
7.33
6.67
7.33
10.67
7.0
6.67
10.33
17.33
13.33
5.33
4.0
0.67
4.67
7.33
-1.67
-0.67
3.0
12.0
1.33
11.0
4.0
5.0
8.0
9.0
4.0
11.33
14.67
4.33
15.0
4.33
1.33
5.33
13.67
4.67
12.33
8.0
7.33
0.67
7.33
12.67
8.0
8.67
10.67
8.67
11.33
11.0
7.67
8.33
15.33
-0.33
9.0
10.0
2.0
21.0
-1.33
14.33
10.0
9.33
11.0
14.33
9.0
5.67
-1.67
5.33
2.0
11.67
7.33
8.67
10.33
14.0
13.0
10.0
8.33
6.0
9.33
6.67
12.67
10.67
2.33
10.67
2.0
6.33
17.0
6.67
10.67
11.33
3.33
7.33
13.33
3.67
10.33
14.33
11.0
17.0
20.67
14.0
8.0
10.33
23.0
9.33
27.0
15.0
24.67
15.0
22.67
20.67
17.67
17.67
25.33
22.33
13.33
33.67
34.0
33.67
58.0
51.33
81.0
92.0
83.33
91.67
93.33
89.67
87.33
92.0
75.33
40.67
51.0
56.0
38.33
28.0
18.67
25.33
9.67
15.33
16.0
12.33
-6.33
11.67
11.33
11.33
10.33
11.67
5.33
0.0
11.0
18.0
8.67
9.67
14.0
-5.0
19.0
11.33
13.0
2.67
12.0
14.33
23.0
22.67
4.33
13.0
17.0
13.0
15.33
6.33
-2.0
1.33
17.67
2.0
11.67
9.67
21.33
19.33
14.33
3.33
9.33
3.67
7.0
7.67
13.0
5.33
11.67
18.33
9.33
15.67
13.0
5.0
10.0
16.0
15.67
-2.67
7.67
1.33
5.67
-3.67
19.33
19.67
15.67
11.0
-5.67
-4.67
9.33
9.0
11.67
6.33
3.0
9.33
29.0
5.67
6.33
14.0
-0.67
8.0
16.0
23.33
11.67
20.67
13.33
15.33
18.67
43.33
24.33
23.33
36.0
20.33
30.33
42.33
16.0
22.33
6.67
4.0
3.0
16.67
6.0
4.0
3.0
13.0
13.67
15.67
6.0
5.0
-3.33
1.33
5.33
7.0
9.0
10.0
4.0
5.67
14.67
1.33
4.0
-0.33
13.33
-1.0
13.33
5.33
16.33
4.33
6.0
14.67
5.33
10.67
23.33
4.0
3.0
0.33
6.67
5.0
1.0
5.33
3.0
3.33
-6.67
2.0
5.67
11.67
-2.33
-13.67
7.0
9.33
-9.33
13.33
11.0
11.33
10.33
5.33
-3.67
-5.0
12.67
-0.33
1.67
7.67
4.67
1.33
10.67
-1.0
6.0
12.0
6.0
-0.67
4.33
-2.67
3.0
0.0
6.67
-6.0
-1.0
2.0
2.0
-1.33
3.67
-1.0
-0.67
0.67
-2.33
0.0
0.33
0.33
0.67
8.67
9.33
6.0
-2.0
12.67
1.33
1.33
0.67
5.0
-3.67
15.67
6.33
6.67
7.67
-2.67
2.0
9.0
2.33
-0.33
8.67
5.67
5.0
13.67
1.67
19.33
11.0
13.0
-2.33
5.0
-7.0
-2.0
3.33
-7.33
4.33
4.67
3.33
9.33
5.33
3.67
-3.67
1.33
-1.33
-0.67
4.33
8.67
3.67
-5.0
10.33
4.33
6.67
11.33
-0.33
-2.67
7.67
3.0
7.0
-4.0
-1.33
1.33
5.33
1.0
3.33
-1.0
6.0
3.0
-1.67
2.0
8.0
3.0
2.67
7.67
4.33
2.67
-0.67
6.0
7.33
8.67
1.67
-3.33
2.0
8.33
9.33
-2.67
-1.0
-2.0
7.67
0.67
3.67
-1.0
1.67
1.0
-1.67
6.0
0.0
11.0
3.0
6.33
0.67
8.33
7.0
2.67
-0.33
6.0
0.33
2.0
5.0
-0.67
-2.67
0.67
3.67
6.0
-0.67
1.67
2.0
2.0
4.0
3.0
3.0
-4.33
1.67
1.67
10.33
-0.33
4.67
-1.0
3.33
3.0
3.0
3.67
8.33
1.33
-4.0
3.0
-7.0
-2.0
5.67
0.67
13.33
3.0
0.0
0.33
6.33
-3.0
4.33
-1.0
8.0
8.0
6.0
-0.33
0.33
-2.0
2.67
1.0
4.67
6.67
-1.33
0.33
-1.33
2.67
19.67
-0.67
0.33
4.0
-0.67
3.33
-3.33
7.67
0.67