File: EDX Back Ups and Old Files/Spectra copy 3.3.23/Samples/High pH BL 25C 4d/6.75.txt
0.0
49.67
50.33
33.67
30.67
36.0
36.33
18.67
7.67
26.33
-10.33
-32.67
14.33
1.0
-6.67
-3.33
-2.67
5.33
-1.67
-0.33
0.33
0.67
1.0
1.0
0.67
-0.33
-0.67
-0.33
0.0
0.0
0.0
-0.67
0.0
2.0
0.0
0.0
-0.67
0.0
-1.0
-0.33
1.33
0.0
2.0
0.0
0.67
0.0
-1.33
0.0
-1.67
-1.0
0.0
-1.33
-2.33
0.0
-1.67
0.0
2.0
0.33
-1.33
2.0
1.33
0.0
2.0
0.33
3.0
3.33
-5.33
3.0
0.33
-2.67
4.0
3.33
4.67
8.0
6.0
4.0
2.0
2.0
3.33
4.33
2.67
-7.0
7.67
2.33
4.0
-5.33
8.67
3.33
4.33
1.0
1.0
-2.67
4.33
3.0
8.33
8.67
6.67
3.67
4.0
6.67
-1.33
8.67
0.33
-3.67
2.67
4.0
5.0
-2.33
5.0
3.0
-4.67
0.0
-3.33
3.33
4.67
12.0
6.0
3.67
2.33
3.0
6.67
3.0
5.67
7.0
1.33
13.33
6.33
3.67
3.33
3.33
0.67
6.33
11.33
2.67
3.33
2.0
6.0
5.67
-5.0
3.0
6.0
1.33
-0.33
2.0
4.33
0.33
2.67
3.33
3.67
2.33
8.0
4.67
2.0
-7.33
0.33
2.0
9.0
-3.67
7.0
0.67
-0.67
8.0
2.0
1.33
5.33
1.0
2.33
-1.67
2.33
0.33
3.0
-3.0
2.33
8.67
-2.0
7.0
5.0
1.0
-1.33
-2.0
8.67
7.0
5.0
3.0
3.67
3.67
3.67
12.67
1.0
2.0
0.0
6.0
-3.0
0.33
-1.0
-0.33
8.33
7.0
-4.67
-2.0
1.67
8.33
2.67
-1.33
4.67
2.0
4.0
2.67
-2.67
-2.0
0.0
1.0
-4.33
-5.0
1.67
1.0
7.33
5.67
2.0
-2.0
3.67
4.0
-1.0
9.67
0.67
1.67
4.0
2.33
1.33
5.0
5.0
2.33
10.67
-1.0
0.67
2.67
-4.0
-1.67
6.67
-0.33
-2.67
-0.67
2.33
4.0
3.33
1.0
4.0
7.67
-0.67
1.0
1.67
-1.0
-1.0
3.33
3.0
-3.0
-1.33
-1.67
5.67
3.33
-4.33
-0.33
1.33
-0.67
1.33
-0.67
-1.67
-5.0
3.0
3.0
1.67
-2.0
-1.33
-0.33
5.33
4.0
3.0
1.0
2.0
5.33
-1.0
2.33
-3.33
-1.33
0.67
5.33
2.0
-2.0
-0.67
0.67
-0.33
8.67
3.33
7.0
-2.0
2.67
0.0
0.67
8.0
-0.33
3.67
0.67
6.33
1.0
2.67
4.67
-0.33
6.0
-1.67
-0.33
2.33
-5.0
-1.67
4.33
6.33
-0.67
-1.33
2.33
0.0
8.0
3.33
0.33
3.0
-0.67
2.0
-1.0
-0.33
1.33
-0.67
1.0
-0.33
-3.33
-1.33
-4.0
1.67
-2.0
1.0
0.67
4.0
4.33
1.33
-1.0
2.0
2.67
4.33
5.0
-1.67
-3.67
-3.0
2.67
3.33
-3.0
-1.0
10.67
-0.67
1.67
-1.0
-1.0
-2.33
1.33
2.67
6.33
-0.33
0.33
4.67
6.0
-2.0
-0.67
-1.33
7.33
-0.33
-0.33
-0.67
-4.0
8.0
-3.33
-3.0
-3.33
-0.67
0.67
0.67
1.33
2.67
-1.33
-1.33
5.33
1.67
4.33
-4.67
6.33
-0.67
1.33
-0.33
4.33
-0.67
5.33
3.67
4.67
6.33
6.67
7.33
12.33
23.0
17.0
26.67
27.33
27.67
35.33
28.0
31.67
13.33
6.33
18.33
11.33
2.33
-2.0
9.67
5.33
8.67
3.33
11.0
-0.67
-2.33
7.33
6.33
0.33
1.67
3.0
-2.0
12.67
7.33
3.67
8.67
6.0
-0.33
-1.67
1.67
6.67
-4.0
4.33
0.33
7.67
3.0
1.33
6.67
10.67
2.0
-1.0
6.33
4.0
3.0
7.67
2.67
2.33
4.0
6.0
4.0
5.0
-4.0
7.67
9.67
10.67
2.0
6.0
9.33
6.67
-5.67
6.33
8.0
2.33
2.67
7.33
5.33
9.0
9.67
4.0
4.67
-3.0
-1.0
-2.33
0.33
7.0
3.67
0.67
4.67
10.33
8.33
3.0
8.0
8.0
-1.33
8.0
1.67
5.67
3.33
4.0
7.0
1.33
7.0
2.33
8.0
4.0
10.0
5.0
1.67
8.33
4.33
5.0
-1.33
1.33
12.67
28.0
16.33
12.33
19.33
17.0
21.33
21.0
19.67
15.0
23.0
14.33
19.33
15.0
16.67
10.33
12.67
6.67
9.33
6.0
4.33
7.33
15.33
2.67
5.33
3.33
7.0
-2.33
11.33
11.67
9.33
5.67
10.0
13.67
8.33
4.33
22.33
7.33
3.0
8.67
-2.33
-1.67
10.33
-2.67
10.0
10.0
10.33
7.0
10.0
7.0
9.0
5.0
6.0
4.33
8.67
22.33
10.0
5.33
8.33
0.33
9.67
12.67
6.33
8.0
12.33
4.67
2.33
11.67
14.0
10.67
13.67
9.67
1.33
12.0
6.67
9.33
7.33
9.67
14.0
8.0
7.0
11.0
-8.33
14.33
13.0
9.33
4.0
14.33
1.0
9.67
14.33
3.33
2.0
9.67
4.33
17.67
8.33
6.0
10.0
5.0
14.33
17.0
6.33
7.67
17.67
18.67
1.33
14.67
15.0
8.33
10.0
15.67
16.67
21.33
9.33
12.33
6.33
13.67
0.33
12.33
5.0
10.0
15.67
13.0
15.0
3.33
9.0
26.33
19.0
13.0
23.67
11.0
13.67
26.67
11.67
23.67
18.33
25.33
21.33
22.67
45.0
46.67
39.0
68.33
76.0
74.0
86.33
89.67
82.33
80.67
99.33
95.0
68.33
64.67
50.0
47.0
47.33
25.0
30.67
13.33
7.67
22.33
21.0
17.33
1.67
19.67
11.33
5.33
4.33
18.67
7.33
-2.0
15.0
20.0
10.67
10.67
4.0
15.0
34.0
8.33
12.0
24.67
6.0
8.33
29.0
17.67
3.33
-1.0
12.0
-5.0
7.33
8.33
7.0
9.33
16.67
17.0
13.67
17.67
11.33
20.33
16.33
16.33
11.33
16.67
6.0
8.67
18.0
5.33
-0.33
17.33
8.33
10.67
7.0
7.0
10.0
0.0
4.67
8.33
-4.33
9.33
7.67
6.33
4.33
7.67
10.67
16.0
6.33
8.33
4.33
4.0
9.67
12.33
15.0
10.33
11.0
5.67
1.33
17.0
13.33
6.0
2.0
30.33
12.67
22.67
25.33
11.33
8.67
28.33
39.33
21.33
28.0
32.33
24.33
24.33
25.0
30.33
17.67
8.0
10.0
23.67
3.0
7.0
19.0
-4.0
22.67
16.67
4.0
13.0
11.67
1.33
3.33
7.0
8.0
12.0
3.0
13.67
11.67
-9.67
11.0
18.67
9.33
1.0
9.33
8.33
19.33
2.33
3.0
16.67
11.33
12.67
13.33
4.0
1.0
-12.67
-3.33
6.0
7.0
4.33
7.0
-7.67
-0.67
16.0
12.67
-0.33
5.67
-0.67
17.0
2.33
3.67
15.33
3.0
12.33
9.33
4.33
-9.67
12.0
18.67
3.67
11.67
7.67
-6.33
-0.67
1.67
0.0
7.0
4.0
-7.0
14.33
11.33
2.33
-2.0
2.0
5.67
3.0
-5.0
11.0
0.0
0.67
7.67
6.0
3.33
-4.33
-3.33
1.0
-2.67
6.33
-3.33
-3.33
11.33
4.0
1.0
9.67
12.33
10.33
0.67
8.0
16.33
13.67
7.33
11.67
10.67
10.33
8.0
8.0
2.33
1.67
5.67
3.67
8.0
10.67
18.67
5.33
12.0
9.0
5.67
-1.0
4.0
1.0
2.33
-5.33
5.33
5.67
4.33
-1.67
-3.67
12.67
6.33
-1.67
2.67
4.33
1.33
18.67
11.67
-4.0
4.33
2.33
-1.33
5.33
-0.33
11.33
3.67
0.0
-2.0
5.0
0.67
7.33
0.33
1.0
2.33
-2.0
7.0
4.0
10.33
-1.0
5.0
9.0
7.67
2.67
10.33
8.67
-2.67
7.0
-3.67
7.67
-5.33
8.67
6.0
5.33
-2.67
2.33
-2.0
-7.0
3.67
2.67
-0.33
3.0
5.67
-4.0
5.33
1.0
8.0
5.0
-2.0
3.33
6.67
6.33
-3.0
4.67
1.67
5.0
5.33
3.0
4.0
4.33
12.33
5.67
4.67
-2.0
0.33
-0.33
0.0
1.0
-2.0
-4.0
-1.0
4.67
6.67
-1.33
1.33
5.67
4.67
2.0
3.33
2.0
-2.0
7.67
8.33
2.33
-2.0
6.0
4.0
4.0
6.67
-6.33
-2.67
4.0
4.0
1.33
0.33
-1.0
1.33
1.0
6.0
3.0
-4.0
-2.33
-0.67
3.0
4.67
8.0
3.67
4.67
1.67
3.33
-5.33
1.67
5.67
0.33
5.33
-2.0
0.33
1.33
-1.33
0.67
3.67