File: EDX Back Ups and Old Files/Spectra copy 3.3.23/Samples/High pH BL 25C 4d/7.0.txt
0.0
-63.33
6.33
-49.33
42.67
5.0
-7.67
-52.33
7.67
-8.67
-32.33
21.33
24.33
-2.0
-7.67
-2.33
-1.67
-6.67
1.33
1.67
-0.67
-0.33
0.0
1.0
0.67
-0.33
-0.67
-0.33
0.0
0.0
0.0
-0.67
0.0
0.0
1.0
0.0
-0.67
0.0
0.0
0.67
1.33
1.0
1.0
0.0
-0.33
-1.0
-0.33
1.0
-1.67
2.0
2.0
-1.33
-1.33
-2.0
-0.67
1.0
-1.0
-1.67
1.67
0.0
-3.67
3.0
4.0
2.33
2.0
5.33
-0.33
0.0
0.33
4.33
6.0
4.33
-1.33
0.0
2.0
1.0
5.0
-1.0
2.33
3.33
6.67
0.0
7.67
3.33
-1.0
0.67
3.67
4.33
5.33
10.0
1.0
5.33
7.33
8.0
4.33
2.67
7.67
4.67
5.0
4.67
-4.33
-5.33
-0.67
2.33
2.67
-1.0
5.0
-1.33
5.0
2.0
1.33
1.0
-0.33
9.33
8.67
3.0
0.0
1.67
5.33
4.0
0.67
3.0
-3.33
2.0
0.33
1.33
3.33
8.67
0.33
-4.67
6.67
7.33
1.33
5.67
1.33
8.0
7.0
14.67
4.0
0.0
6.0
-3.67
-0.33
3.0
3.33
1.33
4.67
0.33
-1.33
0.33
2.0
0.67
5.0
-6.33
0.33
3.0
10.0
4.33
1.0
-1.33
8.33
7.0
1.0
-4.67
1.33
6.0
2.33
-3.67
-2.67
6.33
2.0
-4.0
4.33
4.67
4.0
1.0
9.0
4.0
2.67
2.0
9.67
-1.0
2.0
9.0
5.67
7.67
2.67
1.67
3.0
-2.0
2.0
4.0
0.0
0.33
7.0
0.67
-0.67
4.0
1.33
2.0
-2.33
5.33
-0.33
-1.33
7.67
4.0
3.0
5.67
3.33
1.0
-3.0
2.0
6.67
1.0
6.67
0.0
3.33
2.67
3.0
2.0
5.67
3.0
1.0
4.67
3.67
2.67
2.0
0.33
4.33
2.0
1.0
1.33
0.67
3.0
2.67
-2.33
-4.0
1.33
3.67
1.67
5.33
3.33
3.33
-3.0
-0.67
3.0
-2.0
5.67
1.33
1.0
7.67
1.0
-2.0
5.33
3.0
2.0
-2.33
2.33
5.67
6.33
-0.33
-1.33
1.33
-0.67
5.33
0.33
0.33
-1.0
7.0
-1.0
-0.33
-1.0
-0.33
1.67
1.33
0.0
-1.0
0.0
-1.0
4.33
-2.0
3.33
-1.33
2.67
2.67
7.33
4.0
6.0
-0.67
1.67
1.67
-1.33
-0.67
-1.0
7.0
1.67
-2.0
-1.33
3.0
0.67
1.67
-0.33
3.33
0.0
4.67
0.67
1.67
5.0
-0.67
4.67
-0.67
0.0
3.33
1.33
5.33
-3.67
0.67
4.33
1.0
0.0
1.33
0.33
-5.0
1.33
3.0
-1.0
2.67
-2.67
3.33
-2.0
0.67
-4.33
0.67
2.0
4.67
1.0
-2.0
-0.33
5.0
-2.67
0.33
-5.0
2.0
-0.33
5.33
0.0
2.33
1.33
0.0
-3.33
3.33
3.0
1.0
-0.33
-0.67
0.67
5.0
6.0
-2.33
3.33
5.67
3.33
2.67
6.33
4.67
-1.0
0.0
2.33
-1.33
4.33
-5.33
8.67
-0.67
-2.0
-5.0
1.67
3.0
0.67
3.33
1.67
2.67
10.33
-0.33
-1.33
4.67
-1.67
1.67
2.33
-0.67
2.33
-2.67
1.33
1.67
4.33
1.33
-3.67
13.67
-0.33
1.33
7.67
16.33
13.33
16.0
12.0
19.67
13.33
28.67
30.33
36.0
16.67
17.33
15.33
26.33
9.33
7.33
10.0
4.67
4.33
5.67
4.33
6.0
3.33
2.67
1.33
3.33
0.33
7.67
1.0
4.0
2.67
3.33
-0.33
15.67
2.0
1.67
1.33
0.67
2.67
0.0
6.33
4.33
-0.33
5.0
1.33
1.67
9.67
1.0
8.0
3.33
5.0
6.0
14.67
-2.33
3.33
3.0
12.0
9.0
11.0
-7.0
3.67
9.67
4.67
3.0
3.0
3.33
0.67
-5.67
4.33
7.0
5.33
4.67
5.33
1.33
3.0
4.67
5.0
6.67
2.0
3.0
-0.33
9.33
4.0
2.67
4.67
1.67
2.33
1.33
9.0
6.0
5.0
1.67
6.0
7.67
16.67
0.33
0.0
1.0
1.33
8.0
8.33
5.0
4.0
3.0
3.0
8.67
8.33
9.33
0.0
1.67
10.33
7.67
11.0
16.33
13.33
8.33
14.0
22.33
29.0
21.67
18.0
15.0
14.33
24.33
7.0
6.67
12.33
21.67
3.67
8.33
3.0
12.33
7.33
2.33
-1.33
18.33
19.33
3.0
15.67
4.33
-1.33
5.33
-2.33
9.0
5.67
8.33
13.33
10.33
12.33
2.0
4.67
5.67
8.33
0.33
11.33
3.0
4.0
-0.67
6.0
9.0
2.0
2.0
9.0
9.0
11.33
9.67
7.33
6.0
8.33
6.33
7.33
7.67
2.67
17.33
7.0
9.33
-5.33
13.33
9.67
8.0
8.67
11.67
16.67
4.33
3.0
14.67
-1.67
7.33
1.67
5.0
8.0
12.0
0.0
15.67
14.33
5.0
2.33
10.0
10.33
7.0
6.67
6.33
11.33
11.0
17.67
3.33
12.67
8.33
11.0
13.0
9.0
13.33
10.0
10.33
10.67
12.67
13.67
2.33
6.67
14.0
8.33
5.0
6.67
17.67
10.33
22.33
6.33
4.33
7.67
5.33
5.33
19.0
17.0
14.67
17.0
11.0
10.33
20.0
12.33
20.0
13.0
9.67
8.0
19.67
21.67
9.67
6.67
25.33
32.33
26.33
31.67
47.0
36.67
44.0
67.33
72.0
61.0
93.33
91.67
93.33
105.67
95.33
69.0
78.33
54.67
52.0
58.0
43.33
16.0
32.67
32.33
4.67
6.33
17.0
14.33
5.67
-1.33
9.33
2.33
6.33
11.67
12.33
7.0
19.0
12.0
24.67
2.67
12.0
6.0
13.0
6.33
11.0
3.67
15.0
13.33
25.0
8.67
8.33
12.0
12.0
4.0
9.33
1.33
-2.0
-0.67
19.67
9.0
18.67
10.67
9.33
19.33
11.33
21.33
1.33
10.67
7.0
6.67
3.0
-1.67
14.67
6.33
13.33
1.67
-4.0
16.0
17.0
15.0
15.67
8.33
4.67
7.33
10.67
9.33
7.33
8.67
8.67
12.0
1.33
10.33
10.33
13.0
4.67
6.33
4.0
10.33
16.0
6.67
6.33
19.0
18.33
4.0
2.0
4.33
15.67
20.67
12.33
19.33
18.67
20.33
40.33
31.33
28.0
12.33
36.33
25.33
24.0
37.33
15.67
23.0
10.0
13.67
15.0
19.0
20.0
3.0
12.67
3.67
18.0
-3.0
6.67
0.33
5.33
10.0
13.0
20.0
-4.0
12.67
0.67
2.33
6.0
13.67
6.33
10.0
14.33
10.33
7.33
17.33
-2.0
21.67
12.33
9.67
11.33
10.0
5.0
2.33
5.67
4.0
-8.0
3.33
7.0
18.33
5.33
-1.0
11.67
1.67
-6.33
8.33
4.0
2.33
2.67
6.33
-1.0
9.33
13.33
17.33
5.33
-2.0
10.67
10.67
16.67
10.67
-6.33
0.33
6.67
1.0
15.0
9.0
3.0
5.33
0.33
4.33
5.0
2.0
5.67
5.0
-9.0
13.0
2.0
4.67
4.67
1.0
9.33
-2.33
-0.33
7.0
-1.67
3.33
3.67
16.67
6.33
2.0
3.0
14.67
11.33
4.33
0.67
1.0
-2.67
4.67
-6.67
-1.33
7.67
11.33
14.0
5.0
5.33
11.67
2.67
4.67
14.0
8.67
2.67
3.33
4.0
11.0
9.67
6.0
2.0
-1.0
3.33
-2.33
6.33
6.67
9.33
4.33
9.33
6.67
-4.67
8.33
4.67
-1.67
1.33
-0.33
9.67
-5.0
10.33
4.33
13.67
13.33
7.67
-1.67
1.67
6.0
2.0
0.0
2.67
7.33
4.33
0.0
6.33
-2.0
7.0
-3.0
9.33
-2.0
1.0
-2.0
2.67
-1.33
11.33
0.67
-1.67
5.0
5.33
0.67
11.67
3.67
-8.0
6.33
0.33
-0.67
-3.0
8.0
5.67
3.67
4.67
-2.0
-0.33
0.0
6.33
6.0
-2.0
7.0
7.0
1.33
7.67
3.33
-2.0
2.67
-2.33
13.0
9.33
5.0
7.0
-3.67
4.33
-3.33
6.67
6.0
1.33
-0.33
8.0
8.0
-2.0
-1.0
3.0
0.67
7.67
4.67
2.33
-0.33
3.67
4.0
-4.67
2.0
4.0
-5.33
1.33
3.33
-5.0
-1.0
3.0
-1.0
4.67
3.67
3.33
-2.0
5.0
3.33
-0.67
-4.0
5.33
-3.0
0.0
8.0
1.0
-6.33
-2.67
-1.0
0.67
6.0
-4.33
-2.33
-1.33
6.33
0.67
-2.33
3.67
4.33
2.33
-5.0
-1.67
-3.67
-1.33
0.67
-1.33