File: EDX Back Ups and Old Files/Spectra copy 3.3.23/Samples/High pH BL 25C 4d/7.75.txt
0.0
16.67
-21.67
-4.33
-1.33
-39.0
24.33
5.67
-58.33
-30.67
-20.33
-8.67
13.33
11.0
-8.67
5.67
0.33
6.33
-1.67
-1.33
2.33
1.67
0.0
0.0
-0.33
-0.33
-0.67
1.67
1.0
0.0
0.0
-0.67
0.0
0.0
1.0
0.0
-0.67
1.0
-1.0
-0.33
-0.67
0.0
0.0
0.0
0.67
0.0
-0.33
0.0
-0.67
-1.0
1.0
1.67
-1.33
-1.0
1.33
-1.0
-1.0
3.33
-1.33
-1.0
0.33
2.0
3.0
2.33
4.0
0.33
2.67
2.0
2.33
-0.67
6.0
1.33
-0.33
1.0
9.0
0.0
0.0
10.0
-1.67
-0.67
10.67
-2.0
9.67
1.33
-2.0
-4.33
7.67
2.33
1.33
1.0
-5.0
1.33
6.33
5.0
4.33
13.67
0.67
5.67
4.0
-1.33
-4.33
4.67
-3.67
4.33
1.67
3.0
-3.0
0.67
5.0
2.0
-2.67
-2.0
-5.33
7.33
3.67
4.0
10.0
2.67
5.33
-3.0
1.67
0.0
1.67
4.0
4.33
0.33
10.33
-1.33
6.33
4.33
-3.33
7.33
4.33
-1.33
6.33
12.0
2.0
8.67
7.0
9.0
0.0
6.33
-0.33
-2.0
-2.67
1.33
6.67
-4.67
9.67
6.33
5.0
3.67
5.0
0.67
-0.67
5.0
8.0
3.33
2.0
3.67
5.33
8.0
2.0
-0.67
0.33
3.0
-2.67
0.33
1.33
-0.67
-1.0
-3.0
3.33
-0.33
9.0
0.0
3.0
-3.0
2.67
-2.0
2.67
5.0
4.0
0.0
-0.33
-2.33
4.67
0.67
4.0
-1.0
0.0
-1.0
-1.0
6.33
-2.0
-2.33
2.33
5.0
2.33
7.0
-2.33
-1.67
2.67
-0.33
3.67
5.0
0.0
3.67
-3.67
3.0
-1.0
4.0
-1.33
-4.0
2.67
3.0
6.33
-1.33
3.0
3.0
3.67
3.0
4.0
-3.33
-0.33
0.67
3.0
1.33
3.33
9.0
0.0
-1.67
4.67
1.0
0.67
1.67
1.0
-1.67
1.67
-1.33
2.33
1.33
-1.67
1.0
-0.67
6.0
-6.0
3.67
4.33
5.0
2.67
0.0
-1.0
3.33
-1.0
2.0
-0.33
-2.67
-0.33
7.33
2.67
2.67
-1.67
-1.67
3.33
-0.67
0.33
-3.0
2.0
8.0
4.67
2.0
0.67
2.67
0.33
2.0
0.0
0.0
-4.0
4.33
-6.0
0.33
-5.33
0.67
1.67
2.33
6.0
-1.0
-0.67
-3.33
-2.33
-0.33
2.33
2.0
0.0
1.67
3.0
-0.33
2.0
0.67
3.67
-1.33
-2.67
1.0
-4.33
2.67
-0.33
2.0
4.33
3.67
1.33
-4.0
-1.67
-3.67
2.33
-0.67
5.67
0.33
0.0
1.0
-1.67
-0.67
-4.0
2.33
1.0
-1.0
0.67
-3.67
2.33
2.0
7.67
-5.33
-0.33
-5.0
2.67
4.0
-1.0
0.67
6.0
4.33
1.33
1.0
4.0
-1.33
2.33
5.0
-0.67
-2.67
-4.0
3.67
3.33
-4.0
-3.0
4.67
0.33
3.67
9.0
2.0
-5.33
-1.67
-1.33
-2.67
2.67
-0.67
1.67
-2.0
-1.0
0.33
-4.33
1.33
-1.33
3.67
-6.67
6.0
5.0
1.67
6.0
-1.33
-3.67
1.67
-1.33
2.33
-0.33
2.67
7.67
3.33
2.67
1.33
-2.67
2.33
0.33
2.33
6.67
1.33
3.33
4.33
1.67
1.67
4.33
3.67
7.33
10.33
23.0
20.0
29.67
25.33
22.67
25.33
23.0
15.67
17.33
13.33
9.33
12.33
13.33
5.0
15.67
6.33
7.67
7.33
4.0
4.33
4.67
6.33
5.33
5.33
1.67
2.0
-1.0
3.67
3.33
-1.33
4.67
7.0
10.67
2.33
9.67
4.67
-5.0
-2.67
-0.67
4.67
-1.0
3.33
1.67
2.67
6.0
2.0
1.33
6.0
1.0
-2.33
0.67
-1.67
9.0
5.0
2.0
6.0
1.0
8.67
8.67
2.67
4.0
6.0
7.33
11.67
8.33
3.33
3.0
-2.67
5.67
2.33
2.33
2.0
2.67
3.0
11.67
7.0
-2.0
8.67
13.33
8.0
8.67
3.67
9.67
5.33
5.33
9.0
3.0
6.0
1.67
5.0
-3.33
5.67
10.33
5.0
8.0
0.33
10.0
6.33
7.0
3.0
3.0
4.0
5.67
4.33
2.33
11.0
6.67
4.33
10.67
13.0
8.33
17.33
20.33
9.0
9.33
29.0
14.67
13.0
17.0
13.33
21.33
19.0
9.67
8.33
7.67
16.67
3.33
10.0
7.33
12.33
13.33
6.67
7.33
9.33
18.0
8.67
-0.67
9.67
10.33
4.67
10.0
15.67
14.33
3.33
6.33
12.33
3.0
7.67
5.67
5.33
-0.67
-0.67
-1.0
9.0
5.33
5.0
11.0
8.0
6.0
8.0
0.0
8.33
2.67
3.33
7.0
3.33
6.33
0.33
12.67
1.67
16.33
14.0
11.33
13.67
-3.67
0.67
14.0
12.67
8.67
-1.33
15.33
15.0
9.67
6.33
9.33
7.67
10.0
13.0
-2.0
7.0
-7.33
18.33
0.0
6.33
13.0
20.33
17.0
10.67
10.33
7.33
8.0
11.67
3.33
8.67
11.33
7.0
9.0
14.0
-1.67
14.0
12.33
18.67
13.67
9.67
14.33
8.67
16.0
9.33
13.0
10.67
23.67
14.33
10.33
3.33
6.33
12.67
18.33
11.33
7.0
9.0
17.67
14.0
11.0
20.33
8.0
16.33
21.0
11.0
18.67
15.0
21.67
23.67
12.67
14.67
35.33
26.33
15.33
26.67
40.0
26.67
63.0
58.33
81.0
88.0
107.33
97.67
113.33
95.67
82.33
89.0
75.33
69.67
64.0
57.0
25.33
30.0
30.67
20.33
3.67
16.33
30.0
17.33
3.67
1.67
10.33
10.33
7.33
10.67
2.33
4.0
9.0
9.0
13.67
10.67
10.0
1.0
11.0
1.33
13.0
24.67
8.0
25.33
27.0
15.67
-2.67
5.0
16.0
11.0
21.33
6.33
2.0
6.33
9.67
13.0
16.67
8.67
17.33
11.33
15.33
11.33
7.33
15.67
22.0
13.67
11.0
-1.67
6.67
12.33
14.33
4.67
18.0
6.0
9.0
5.0
22.67
5.33
9.67
12.33
0.67
4.33
7.33
-3.33
15.67
2.0
7.33
-2.67
13.33
9.0
2.67
5.33
4.0
7.33
12.0
1.67
19.33
7.0
10.33
-1.0
-2.0
3.33
10.67
18.67
29.33
18.33
12.67
41.33
29.33
31.33
37.0
19.33
31.33
29.33
21.0
29.33
11.67
10.0
22.0
13.67
10.0
15.0
1.0
3.0
8.67
1.67
4.0
2.0
4.67
1.33
10.33
5.0
6.0
19.0
11.0
7.67
15.67
-0.67
3.0
9.67
6.33
2.0
18.33
8.33
12.33
6.33
0.0
8.67
2.33
14.67
13.33
10.0
21.0
-2.67
-2.33
7.0
4.0
18.33
-1.0
1.33
8.33
0.0
14.67
6.67
-6.33
-10.67
0.0
6.33
2.67
1.33
8.0
2.33
1.33
7.33
-2.67
1.0
7.67
-0.33
18.67
10.67
-1.33
-3.67
3.67
-2.0
4.0
-4.0
-8.0
0.33
4.33
6.33
-5.0
1.0
10.67
14.0
5.0
3.0
-2.0
3.67
0.67
-3.0
7.33
-4.33
7.67
4.0
3.33
-0.67
-1.33
0.67
9.33
2.0
0.0
4.67
7.33
-1.67
2.67
-5.0
8.33
1.67
2.33
0.67
4.67
-6.67
14.0
1.0
4.33
12.67
6.67
10.67
5.0
9.67
3.67
8.33
14.0
2.0
-1.33
10.0
-8.0
-3.0
6.33
-2.33
-2.67
4.67
3.33
2.33
5.33
0.67
-2.67
7.33
3.67
1.33
4.33
4.67
8.67
2.0
9.33
0.33
0.67
10.33
5.67
-0.67
4.67
5.0
4.0
2.0
-3.33
5.33
-3.67
5.0
7.33
4.0
3.0
6.0
2.33
-2.0
4.0
5.0
3.67
-0.33
3.33
-4.33
0.33
-1.0
8.33
-7.33
5.67
3.67
-4.0
2.33
-4.67
6.33
-1.0
-4.0
13.67
2.67
4.67
2.0
-7.33
1.0
4.33
5.0
-2.0
6.0
9.0
3.33
4.67
3.33
-4.0
9.67
6.67
9.0
5.33
4.0
1.0
-1.67
7.33
-0.33
-0.33
2.0
-0.67
2.67
2.0
6.0
6.0
0.0
0.0
-5.33
0.67
2.67
3.33
-3.33
-6.33
5.0
-0.67
7.0
-2.0
-1.33
1.33
-2.67
-2.0
0.0
4.0
-3.0
6.67
-2.33
-1.67
-2.0
6.0
-1.67
2.33
3.0
-1.67
-3.0
1.0
3.0
-3.0
-0.33
-0.67
3.0
-1.33
-2.0
0.67
-1.33
5.67
-2.67
-1.33
5.67
4.67
-3.67
1.33
-2.0
-0.67
1.33
-4.33
6.67
-0.33