File: EDX Back Ups and Old Files/Spectra copy 3.3.23/Samples/High pH BL 25C 4d/8.0.txt
0.0
54.67
75.33
-41.33
60.67
127.0
21.33
2.67
-62.33
33.33
4.67
-36.67
-11.67
10.0
-4.67
5.67
3.33
-1.67
-3.67
1.67
-0.67
0.67
2.0
0.0
-0.33
0.67
-0.67
-0.33
0.0
1.0
0.0
0.33
1.0
0.0
0.0
0.0
-0.67
2.0
-1.0
-0.33
-0.67
1.0
1.0
0.0
-0.33
0.0
-1.33
0.0
-0.67
1.0
2.0
1.67
-1.33
-3.0
1.33
1.0
3.0
-2.67
-1.33
-3.0
-2.67
2.0
3.0
-0.67
3.0
-2.67
0.67
1.0
2.33
0.33
1.0
-3.67
2.67
-3.0
0.0
-6.0
3.0
-2.0
-3.67
3.33
0.67
-4.0
3.67
8.33
-1.0
4.67
4.67
7.33
6.33
4.0
12.0
6.33
1.33
2.0
3.33
3.67
8.67
2.67
5.0
-2.33
-8.33
-1.33
-0.67
4.33
3.67
3.0
5.0
4.67
6.0
2.0
-2.67
12.0
1.67
2.33
3.67
0.0
0.0
2.67
1.33
1.0
1.67
0.0
2.67
5.0
1.33
-3.67
10.33
-1.33
4.33
-1.67
-4.33
4.33
7.33
0.67
0.33
1.0
4.0
0.67
-6.0
2.0
-5.0
2.33
-0.33
-4.0
0.33
-0.67
0.67
2.33
3.67
3.33
5.0
0.67
4.0
-3.33
3.33
-1.0
9.0
4.33
9.0
7.67
0.33
6.0
-3.0
-1.67
-2.67
-1.0
1.33
-0.67
-5.67
6.33
-2.0
-1.0
0.33
3.67
4.0
2.0
1.0
4.0
6.67
-3.0
0.67
-1.0
2.0
5.0
0.67
2.67
5.67
-3.33
7.0
-2.0
-5.0
1.0
2.0
-2.67
-3.0
2.67
-0.67
3.0
2.33
4.0
1.67
-3.67
0.67
-4.33
2.67
1.0
4.0
-4.33
5.33
4.0
1.0
2.0
1.67
1.0
-3.33
4.0
0.33
5.67
5.0
8.0
2.67
2.0
-2.0
5.67
4.67
3.67
0.0
-0.67
4.33
-1.0
5.0
4.33
2.67
1.0
4.67
2.67
3.0
0.33
1.67
5.67
-0.67
-0.67
4.33
-4.0
0.33
0.0
3.0
3.67
2.33
6.0
3.67
3.0
3.0
3.33
-2.0
-1.0
2.67
-7.67
2.67
-0.67
0.67
1.67
1.33
-1.67
3.33
2.33
-0.67
-1.0
6.0
1.0
6.67
-3.0
4.67
1.67
1.33
0.0
-3.0
3.0
-1.0
6.33
-3.0
0.33
1.67
-2.33
-1.33
5.33
-2.0
8.0
-2.67
3.67
1.67
-2.33
2.33
1.0
0.0
0.67
0.0
-1.33
3.0
-0.33
1.67
3.67
3.33
0.0
-1.33
4.67
-1.33
3.0
4.33
-2.33
-0.67
-1.0
-0.67
1.33
5.33
-6.67
3.67
4.33
4.0
-1.0
-0.67
0.33
-5.0
0.33
1.0
2.0
-2.33
-0.67
-2.67
4.0
2.67
1.67
-0.33
0.0
0.67
2.0
4.0
-4.33
1.0
0.33
0.33
1.0
3.0
1.67
5.33
-3.0
-2.67
1.33
-2.0
-5.33
0.33
-1.0
-8.0
0.67
5.33
-0.33
7.0
1.0
-2.33
0.33
-1.33
-2.67
4.67
-4.67
4.67
1.0
-8.0
3.33
5.67
5.33
-2.33
2.67
1.33
-1.0
-2.0
-3.33
4.0
3.67
2.33
7.67
-0.33
-0.67
-4.33
-0.33
1.67
3.33
3.67
3.33
-4.67
-0.67
-0.67
9.33
-0.33
9.33
2.33
-2.67
6.67
6.67
2.33
6.67
10.33
11.33
11.0
17.0
21.67
27.33
25.67
22.33
37.0
26.67
17.33
24.33
13.33
10.33
16.33
3.0
9.67
9.33
7.67
2.33
6.0
6.33
2.67
3.33
14.33
-2.67
1.67
7.0
-4.0
6.67
8.33
0.67
-1.33
1.0
-2.33
-2.67
0.67
6.67
2.0
-1.67
2.33
2.67
3.0
2.33
2.67
0.67
-2.0
1.0
3.33
1.0
7.0
1.67
4.67
9.33
10.0
7.0
8.0
9.0
0.0
2.67
-0.33
0.67
-5.0
8.0
-3.67
13.67
-0.67
-1.67
8.0
0.33
5.67
0.33
0.33
2.0
7.67
6.0
19.67
-1.0
0.0
-1.33
4.33
8.0
-2.33
0.67
5.67
8.33
5.33
8.0
2.0
10.0
6.67
7.0
6.67
2.67
0.33
4.0
12.0
6.33
2.0
7.33
7.0
-1.0
12.0
2.0
10.67
0.33
6.33
0.0
2.67
6.33
16.67
4.0
23.33
16.33
10.33
14.0
33.33
19.0
18.67
22.0
23.0
26.33
24.33
27.0
20.67
14.33
9.67
5.67
10.33
11.0
10.33
10.33
12.33
-2.33
6.33
2.33
14.0
14.67
3.33
-1.33
14.33
3.67
16.0
7.67
12.33
12.33
9.33
10.33
5.0
12.67
-4.33
1.33
4.33
-0.67
4.0
2.0
6.33
8.0
8.0
7.0
15.0
3.0
3.0
10.33
9.67
-0.67
7.0
4.33
-3.67
2.33
8.67
6.67
15.33
20.0
10.33
7.67
10.33
0.67
11.0
7.67
3.67
5.67
-3.67
9.0
9.67
1.33
7.33
-3.33
1.0
-8.0
5.0
15.0
4.67
14.33
10.0
1.33
7.0
15.33
0.0
10.67
13.33
16.33
12.0
12.67
6.33
14.67
4.33
5.0
12.0
10.0
6.33
17.0
11.33
12.67
-0.33
7.67
9.33
11.67
15.0
12.33
11.0
12.67
20.67
0.33
9.33
12.33
0.33
3.67
10.33
17.33
9.0
10.0
15.67
13.0
13.0
6.33
10.0
4.33
20.0
18.0
22.67
20.0
16.67
22.67
9.67
18.67
16.33
35.33
29.33
27.67
52.0
34.67
51.0
59.33
75.0
86.0
104.33
113.67
88.33
99.67
120.33
96.0
53.33
54.67
64.0
44.0
45.33
19.0
20.67
15.33
1.67
13.33
13.0
20.33
15.67
9.67
6.33
15.33
2.33
14.67
10.33
12.0
18.0
15.0
5.67
22.67
5.0
9.0
10.0
6.33
4.0
7.67
15.0
12.33
14.0
9.67
8.33
10.0
14.0
9.0
9.33
9.33
7.0
-4.67
21.67
15.0
0.67
13.67
14.33
8.33
18.33
4.33
5.33
15.67
2.0
4.67
8.0
11.33
-1.33
9.33
2.33
2.67
4.0
5.0
8.0
10.0
16.67
12.33
3.67
0.33
7.67
10.33
12.33
17.67
3.67
22.0
9.33
11.33
11.33
9.0
15.67
4.33
4.0
7.33
14.0
10.67
7.33
2.0
3.33
22.0
-5.0
19.33
27.67
16.67
18.33
25.33
13.67
25.33
30.33
27.33
33.0
15.33
31.33
28.33
29.0
34.33
20.67
13.0
16.0
18.67
0.0
7.0
7.0
7.0
17.67
11.67
12.0
3.0
4.67
-2.67
-4.67
4.0
8.0
3.0
-2.0
16.67
10.67
5.33
15.0
1.67
19.33
5.0
3.33
2.33
6.33
4.33
10.0
20.67
-2.67
8.67
14.33
13.0
0.0
-0.67
8.67
6.0
-2.0
4.33
7.0
11.33
5.33
0.0
1.67
1.67
5.67
3.33
11.0
6.33
5.67
6.33
11.0
-6.67
8.33
14.33
7.33
0.0
5.67
-12.33
10.67
19.67
1.67
4.33
2.67
-2.0
6.0
0.0
-2.0
-0.67
-2.67
11.33
-4.0
-2.0
9.67
-5.0
-11.0
11.0
-3.0
9.67
6.67
0.0
4.33
0.67
4.67
4.0
-2.67
0.33
14.67
7.67
0.33
-2.0
-1.0
12.67
5.33
3.33
6.67
8.0
11.33
3.67
2.33
10.67
5.67
-0.67
2.0
18.0
3.33
5.67
4.67
-5.33
7.0
8.67
4.67
5.33
15.0
6.0
4.67
3.0
-2.0
2.0
5.33
1.67
7.33
-1.33
3.33
-1.67
-3.67
-3.33
-2.67
4.33
4.67
3.33
-1.67
11.67
2.67
-5.0
5.33
6.33
7.67
4.33
0.67
-1.67
2.67
6.0
10.0
-2.0
-1.33
-4.67
1.33
-2.0
-4.67
-1.0
2.0
12.0
-0.67
-2.0
-5.0
13.0
5.67
1.67
7.33
4.67
5.33
5.0
-0.67
0.67
-4.33
5.67
-3.0
-0.67
0.33
5.33
-7.0
4.0
-0.33
3.67
9.67
-1.0
0.67
-5.0
2.33
9.0
-1.0
4.0
1.0
4.33
4.67
2.33
1.0
8.67
6.67
8.0
-0.67
8.0
3.0
-3.67
2.33
-1.33
0.67
3.0
-1.67
-0.33
1.0
4.0
2.0
0.0
6.0
4.67
7.67
3.67
7.33
6.67
-1.33
4.0
1.33
3.0
-5.0
1.67
5.33
6.33
-2.0
-3.0
1.0
-4.0
3.67
-0.33
-0.67
0.0
-3.0
-1.67
-1.67
1.0
3.33
1.0
8.0
11.0
-2.0
-3.33
-0.67
2.0
0.67
2.0
-5.33
-1.33
0.67
0.33
-4.33
0.67
6.67
-4.67
-1.67
-5.0
-0.67
0.33
-0.33
2.67
3.67