File: EDX Back Ups and Old Files/Spectra copy 3.3.23/Samples/High pH BL 25C 4d/9.25.txt
0.0
-29.33
-58.67
41.67
45.67
-29.0
83.33
8.67
6.67
24.33
14.67
-9.67
-0.67
3.0
7.33
-1.33
3.33
0.33
-1.67
-0.33
-0.67
-0.33
0.0
1.0
-0.33
-0.33
1.33
-0.33
1.0
0.0
0.0
-0.67
0.0
0.0
1.0
0.0
-0.67
0.0
0.0
-0.33
-0.67
0.0
0.0
0.0
-0.33
1.0
-1.33
1.0
0.33
-1.0
-1.0
0.67
-2.33
0.0
-0.67
-1.0
0.0
0.33
-1.33
0.0
1.33
1.0
2.0
1.33
1.0
4.33
1.67
0.0
1.33
1.33
4.0
6.33
-2.33
2.0
1.0
1.0
1.0
7.0
4.33
2.33
12.67
-5.0
2.67
8.33
-1.0
-2.33
1.67
1.33
3.33
1.0
-3.0
2.33
0.33
8.0
7.33
2.67
2.67
-2.33
-1.0
5.67
-6.33
-2.33
5.33
2.33
-1.33
-1.0
2.0
-1.33
2.0
5.0
-0.67
-1.0
-1.33
8.33
2.67
3.0
0.0
-1.33
-4.67
-1.0
5.67
2.0
-2.33
-2.0
10.33
-3.67
7.33
3.67
8.33
7.33
-4.33
5.33
4.33
-3.33
-5.67
-1.0
0.0
4.67
0.0
4.0
-1.0
5.33
-5.33
4.0
5.33
1.33
-0.33
5.33
5.67
7.33
4.0
-0.33
0.0
0.67
2.33
1.0
5.0
-0.67
7.0
2.67
3.33
4.0
6.0
-0.67
1.33
2.0
0.33
3.33
5.33
8.33
1.0
-2.0
8.33
-0.33
8.0
4.0
0.0
1.0
5.67
-5.0
5.67
3.0
3.0
1.0
-0.33
4.67
4.67
7.67
4.0
1.0
0.0
6.0
4.0
-1.67
-4.0
2.67
3.33
6.0
2.33
-5.0
6.67
3.33
2.67
-3.33
3.67
1.0
5.0
1.67
-4.67
-2.0
5.0
4.0
1.67
-1.0
0.67
-2.0
1.33
1.67
4.0
4.0
-0.33
4.0
0.0
-0.33
4.67
-1.33
4.0
-2.67
2.33
4.0
3.0
-0.67
1.67
-3.0
-4.33
5.67
-1.0
-2.67
1.67
-3.33
3.33
3.33
2.33
1.0
-0.67
3.0
-5.0
1.67
4.33
6.0
1.67
0.0
-3.0
-1.67
6.0
0.0
1.67
-0.67
0.67
0.33
1.67
-0.33
2.33
-0.67
0.33
-2.67
-0.67
0.0
5.0
0.0
-0.33
-2.0
-0.33
0.67
2.33
0.0
3.0
-4.0
3.0
-0.67
4.0
1.33
-0.33
-1.33
5.67
2.33
1.0
0.0
1.33
1.67
-1.33
-4.33
-0.67
-1.0
-2.0
4.67
-2.0
-1.33
3.0
-2.33
-0.33
-0.33
2.33
-1.0
1.67
4.67
0.67
2.0
2.33
4.67
2.33
3.0
-3.67
1.33
-1.67
-2.67
-0.33
0.33
-2.0
6.0
-0.67
0.33
-2.0
2.33
5.0
-3.0
-4.33
1.33
2.33
4.0
2.67
1.67
-0.33
-1.0
1.67
0.0
2.0
2.67
1.0
3.33
1.33
1.0
1.0
-0.33
6.33
-3.0
0.33
-0.67
-4.0
-2.33
0.33
-1.0
-5.0
0.67
0.33
2.67
6.0
4.0
7.67
7.33
-2.33
6.33
2.67
1.33
2.67
-1.0
2.0
-1.67
1.67
0.33
4.67
-0.33
-2.67
-1.0
-2.0
-2.33
-2.0
1.67
3.33
5.67
4.67
1.33
4.67
0.67
-1.33
5.33
2.67
4.33
-2.67
-0.67
1.33
0.33
-6.33
6.33
2.33
-0.67
2.67
3.67
9.33
14.67
19.33
18.33
20.0
28.0
18.67
34.33
38.67
35.33
38.0
24.67
19.33
16.33
15.33
6.33
5.33
6.0
10.67
5.33
5.67
3.33
3.0
5.33
-0.33
3.33
15.33
2.33
5.67
1.0
-4.0
4.67
5.33
-1.33
7.67
4.0
1.67
-2.67
6.67
4.67
-7.0
-1.67
6.33
3.67
6.0
6.33
5.67
7.67
2.0
1.0
4.33
5.0
2.0
3.67
6.67
-1.67
1.0
12.0
12.0
11.0
-2.0
12.67
8.67
10.67
-2.0
7.0
5.33
10.67
0.33
3.33
3.0
2.33
4.67
4.33
2.33
2.0
-0.33
-2.0
8.67
9.0
5.0
4.67
4.33
5.0
3.67
10.67
-0.33
6.33
10.33
1.0
-1.0
11.0
2.67
3.0
9.67
8.67
2.33
1.0
6.0
4.33
14.0
1.33
3.0
5.0
13.0
5.0
8.67
8.33
-0.67
8.0
1.67
14.33
20.67
8.0
9.33
17.33
27.33
16.0
18.33
25.0
19.67
18.0
25.0
14.33
12.33
16.0
12.67
17.33
15.67
5.67
2.33
-2.0
15.33
4.33
8.33
4.67
7.33
15.33
1.0
6.67
10.33
2.67
9.33
3.67
14.0
13.67
12.33
10.33
16.33
0.33
7.0
9.67
4.67
12.33
0.33
-0.67
12.0
12.0
5.33
10.0
10.0
7.0
13.0
10.0
13.0
11.33
7.67
20.33
5.0
3.33
12.33
10.33
5.67
14.67
8.33
9.0
16.33
12.67
3.33
1.67
22.0
5.67
14.67
0.67
8.33
14.0
8.67
3.33
-1.67
7.67
12.0
-4.0
17.0
13.0
3.67
13.33
7.0
9.33
10.0
10.33
4.0
5.67
11.33
4.33
4.0
13.67
14.33
14.67
18.33
4.0
13.0
7.0
6.33
16.0
6.33
11.67
10.67
6.67
4.33
14.67
18.0
-2.67
10.0
11.67
20.67
5.33
13.33
12.33
15.33
0.67
6.33
3.33
3.0
8.0
5.67
21.0
10.0
16.33
12.0
13.33
14.0
18.0
19.67
23.0
11.67
15.67
6.67
19.67
15.33
26.33
22.33
30.67
49.0
45.67
36.0
78.33
94.0
77.0
113.33
120.67
105.33
116.67
107.33
105.0
77.33
62.67
44.0
37.0
36.33
22.0
7.67
24.33
8.67
17.33
21.0
12.33
20.67
13.67
5.33
14.33
5.33
7.67
3.33
9.0
11.0
18.0
10.67
18.67
5.0
17.0
8.0
13.33
8.0
15.67
17.0
4.33
9.0
11.67
10.33
6.0
7.0
10.0
6.33
7.33
4.0
16.33
5.67
10.0
22.67
-6.33
16.33
18.33
1.33
5.33
5.33
7.67
12.0
7.67
0.0
15.33
6.67
16.33
23.33
12.67
5.0
2.0
11.0
10.0
11.67
10.33
9.67
9.33
3.67
-0.67
15.33
9.67
2.67
2.0
3.33
8.33
-1.67
15.0
8.67
3.33
14.0
3.33
21.0
14.67
8.33
5.0
0.33
2.0
1.0
3.33
22.67
13.67
25.33
23.33
21.67
33.33
24.33
9.33
16.0
33.33
47.33
40.33
22.0
26.33
30.67
20.0
6.0
18.67
8.0
4.0
5.0
13.0
6.67
3.67
11.0
9.0
7.67
5.33
-0.67
-3.0
14.0
16.0
7.0
14.67
6.67
3.33
12.0
10.67
17.33
3.0
7.33
-0.67
14.33
7.33
0.0
7.67
8.33
13.67
8.33
9.0
6.0
12.33
6.67
4.0
4.0
7.33
9.0
9.33
-3.67
15.0
5.67
5.67
7.67
-9.67
7.0
6.33
3.67
4.33
5.0
9.33
-1.67
15.33
2.33
8.0
7.67
1.67
11.67
6.67
-6.33
4.33
7.67
5.0
7.0
3.0
10.0
4.33
4.33
1.33
-2.0
0.0
6.67
0.0
-5.0
6.0
-6.0
-2.33
6.67
3.0
1.33
-3.33
-5.33
-3.0
-2.67
-0.67
1.67
-6.33
7.33
1.0
-4.0
15.67
2.33
8.33
2.67
0.0
2.33
13.67
5.33
6.67
5.67
8.33
9.0
5.0
-2.67
9.67
3.67
3.67
17.0
10.67
3.67
10.33
5.0
8.0
-0.33
8.0
6.0
-7.0
5.33
2.67
8.33
-2.33
6.33
0.33
-3.67
2.67
2.33
4.33
-3.33
6.33
2.33
2.67
3.67
-7.0
5.33
2.33
2.67
3.33
3.67
-4.67
7.67
1.0
2.0
-4.0
-0.33
5.33
4.33
-3.0
1.33
-2.0
3.0
-3.0
-1.67
-8.0
11.0
1.0
7.67
-5.33
-2.67
-3.33
-1.67
2.0
1.33
7.67
-2.33
8.67
1.0
-3.67
-5.67
-2.67
2.0
-2.0
2.67
4.67
-0.33
4.0
2.67
4.0
7.33
7.0
6.0
6.0
0.0
1.33
4.67
5.33
-7.0
5.67
8.67
0.0
7.33
4.0
1.0
-0.67
5.33
3.67
7.67
-2.0
2.33
2.67
-2.0
-3.0
-2.0
0.0
3.0
-0.33
2.67
1.67
-0.67
1.67
-5.33
6.0
-2.67
-1.0
-4.0
-4.33
-1.67
4.33
-5.0
6.0
4.0
-5.0
3.67
-2.33
-3.67
1.0
1.0
5.33
-1.67
-1.0
3.33
5.0
-3.0
8.0
0.0
-1.33
-5.67
-2.0
1.67
-3.0
-3.33
0.67
1.67
-0.67
-4.33
0.67
5.67
0.33
1.33
-5.0
-4.67
1.33
-0.33
-0.33
-2.33