File: EDX Back Ups and Old Files/Spectra copy 3.3.23/Samples/High pH BL 25C 4d/9.75.txt
0.0
56.67
44.33
51.67
-22.33
88.0
72.33
-51.33
20.67
-15.67
-24.33
-15.67
2.33
-1.0
-9.67
-0.33
0.33
-2.67
-1.67
2.67
-1.67
-0.33
1.0
0.0
-0.33
-0.33
0.33
-0.33
1.0
0.0
1.0
-0.67
1.0
0.0
1.0
0.0
-0.67
0.0
-1.0
-0.33
-0.67
0.0
0.0
0.0
0.67
0.0
0.67
1.0
-0.67
-1.0
0.0
0.67
-2.33
-2.0
1.33
1.0
2.0
3.33
-1.33
1.0
-1.67
-1.0
2.0
0.33
3.0
3.33
5.67
2.0
3.33
-5.67
3.0
-0.67
-2.33
0.0
5.0
4.0
2.0
7.0
1.33
-3.67
5.67
-4.0
5.67
3.33
1.0
10.67
5.67
3.33
1.33
6.0
-2.0
2.33
9.33
-1.0
2.33
3.67
-0.33
2.67
-2.0
1.67
-1.33
1.67
2.33
6.33
3.67
5.0
3.0
-6.33
5.0
2.0
-3.67
0.0
-0.33
2.33
9.67
-2.0
-4.0
4.67
5.33
2.0
1.67
1.0
-1.33
2.0
3.33
-1.67
2.33
5.67
1.33
2.33
-2.33
6.33
4.33
4.67
4.33
3.0
6.0
3.67
2.0
8.0
-3.0
3.33
1.67
-1.0
-0.67
3.33
-1.33
1.33
4.67
-1.67
8.0
7.67
5.0
-2.33
3.33
3.0
1.0
-0.67
1.0
-4.33
5.33
11.0
2.0
3.33
0.33
5.0
0.33
0.33
0.33
-1.67
2.0
1.0
3.33
3.67
6.0
3.0
0.0
-5.0
1.67
1.0
1.67
5.0
1.0
0.0
-2.33
0.67
8.67
-0.33
3.0
-2.0
-3.0
-2.0
2.0
2.33
4.0
-2.33
-1.67
-5.0
-0.67
3.0
1.67
-0.67
0.67
1.67
0.67
0.0
0.0
-1.33
-0.67
0.0
6.0
8.0
3.67
-2.0
-0.33
2.0
5.33
-0.33
6.0
1.0
0.67
5.0
-1.0
2.67
0.67
-0.33
1.0
-0.67
1.33
2.0
8.0
-2.67
5.67
2.0
1.67
6.67
-3.0
2.33
2.67
-4.33
-0.67
5.33
-1.67
0.0
6.33
8.0
0.0
0.67
-0.67
2.0
-2.33
0.0
0.0
0.33
1.0
1.0
-0.33
-3.67
2.67
-0.67
-0.33
2.67
3.33
1.33
2.33
-1.67
-0.67
2.0
6.0
2.0
0.67
0.0
0.67
2.67
1.33
3.0
3.0
-4.0
-3.0
3.33
-1.0
-4.67
-3.33
-1.33
0.67
0.33
-2.0
3.0
0.33
0.67
0.67
-3.33
-1.67
1.0
0.0
1.67
3.0
-2.33
0.0
0.67
2.67
-0.33
3.33
2.0
-1.33
3.67
-1.33
1.0
1.33
0.67
0.33
-1.0
-1.67
-2.67
-0.67
-2.67
1.67
1.33
3.0
-2.0
-1.67
2.33
-2.0
2.33
2.0
-5.0
-5.33
1.33
-2.67
0.0
2.67
0.67
-0.33
0.0
-0.33
0.0
4.0
-1.33
4.0
4.33
1.33
1.0
2.0
1.67
5.33
0.0
-1.67
0.33
1.0
0.67
0.33
2.0
2.0
2.67
-0.67
2.67
8.0
3.0
0.67
6.33
7.67
-2.67
-1.33
-4.67
8.67
-1.0
-7.0
2.33
3.67
-0.67
0.67
1.67
-4.67
-2.0
-2.0
3.67
1.0
-3.33
-2.67
4.67
1.67
9.33
-1.33
-4.33
-2.33
-2.67
-0.33
3.33
-6.67
4.33
-7.67
2.33
-3.33
5.33
-0.67
0.33
3.67
7.67
0.33
3.67
11.33
9.33
23.0
27.0
38.67
26.33
35.67
41.33
28.0
31.67
27.33
15.33
11.33
21.33
10.33
8.0
1.67
5.33
6.67
2.33
0.0
6.33
6.67
7.33
5.33
7.33
13.67
-3.0
-1.0
5.67
12.33
2.67
1.67
2.0
1.67
7.33
6.67
5.67
1.0
2.33
8.33
-0.33
6.0
8.33
2.67
8.67
1.0
6.0
15.33
10.0
7.0
3.67
6.67
4.33
8.0
2.0
11.0
8.0
2.0
-0.33
7.67
3.67
0.0
9.0
8.33
9.67
1.33
13.33
3.0
4.33
10.67
7.33
4.33
4.0
-0.33
4.0
4.67
0.0
2.0
11.67
1.33
7.0
9.67
0.67
6.67
7.33
1.33
5.0
1.0
3.0
5.67
17.0
3.67
18.67
11.33
9.0
10.0
4.33
13.0
6.33
8.0
0.0
7.0
5.0
9.67
7.33
6.33
-1.0
1.67
6.33
6.67
6.0
17.33
15.33
15.33
28.0
20.33
15.0
13.67
25.0
25.0
21.33
20.33
12.0
9.67
8.33
10.67
10.67
6.33
3.0
11.33
9.33
12.33
9.67
6.33
6.33
13.0
11.67
4.33
2.67
6.33
11.67
5.0
14.67
18.33
5.33
0.33
11.33
3.0
11.67
-2.33
11.33
6.33
7.33
7.0
12.0
8.33
8.0
14.0
12.0
7.0
18.0
11.0
13.33
7.67
8.33
2.0
12.33
3.33
0.33
4.67
11.67
15.33
8.0
3.33
8.67
-2.67
0.67
13.0
6.67
8.67
11.67
3.33
11.0
5.67
-0.67
-3.67
12.67
6.0
2.0
6.0
6.0
2.67
20.33
11.0
14.33
7.0
4.33
12.0
6.67
11.33
8.33
4.0
15.67
8.33
11.67
10.33
4.0
14.0
7.0
1.33
6.0
4.33
14.67
5.67
4.67
9.33
7.67
5.0
11.33
14.0
15.67
9.67
1.33
19.33
9.33
4.33
10.67
6.33
9.33
8.0
7.0
11.67
15.0
6.0
6.33
22.0
17.33
15.0
21.0
11.67
20.0
8.67
30.67
19.67
28.67
25.33
23.33
45.33
29.67
48.0
54.67
47.0
79.33
102.0
91.0
118.33
120.67
114.33
117.67
107.33
123.0
108.33
69.67
66.0
57.0
42.33
24.0
31.67
29.33
5.67
6.33
20.0
15.33
9.67
3.67
8.33
11.33
7.33
13.67
8.33
5.0
15.0
8.0
14.67
17.67
11.0
4.0
7.0
4.33
18.0
17.67
6.0
4.33
4.0
14.67
15.33
14.0
19.0
8.0
9.33
21.33
15.0
-0.67
17.67
24.0
9.67
6.67
12.33
14.33
10.33
0.33
11.33
11.67
5.0
11.67
11.0
4.33
-2.33
8.33
14.33
6.67
23.0
13.0
12.0
9.0
12.67
15.33
8.67
14.33
2.67
9.33
12.33
18.67
9.67
5.0
2.33
-1.67
3.33
8.0
1.67
-3.67
17.0
15.33
10.0
13.67
14.33
7.0
4.33
6.0
13.0
22.33
15.67
35.67
25.33
14.33
24.67
33.33
21.33
30.33
39.0
31.33
22.33
43.33
29.0
36.33
17.67
20.0
21.0
7.67
16.0
24.0
8.0
5.0
9.67
23.67
9.0
3.0
1.67
5.33
-10.67
1.0
2.0
7.0
6.0
3.67
18.67
9.33
-4.0
11.67
17.33
13.0
7.33
2.33
7.33
17.33
1.0
8.67
11.33
14.67
16.33
7.0
4.0
3.33
-0.33
10.0
-1.0
16.33
6.0
5.33
-8.67
5.0
8.67
4.67
14.67
-1.67
3.0
9.33
6.67
17.33
10.0
7.33
-2.67
4.33
5.33
-4.0
-1.33
-7.33
9.67
11.67
-7.33
3.33
11.67
-4.0
8.0
5.0
6.0
7.33
1.33
-3.67
2.0
8.0
0.67
-4.0
-3.0
13.0
9.0
5.67
12.67
-3.0
8.33
6.67
-2.33
3.0
5.33
7.33
-3.33
-8.33
-4.67
6.0
1.0
8.67
3.33
7.33
4.67
7.0
4.33
5.67
11.33
3.67
3.67
-6.67
2.0
16.0
11.33
6.67
1.67
2.67
0.0
10.67
7.67
14.33
4.0
9.0
5.67
1.0
-2.0
2.0
7.33
-0.33
1.33
1.67
1.33
3.33
-3.67
6.67
1.33
4.33
-3.33
0.33
7.33
-3.33
-3.33
-4.0
8.33
3.33
3.67
1.33
8.67
-8.67
10.67
1.0
0.0
-6.0
-9.33
2.33
3.33
-6.0
-4.67
-2.0
2.0
6.0
3.33
7.0
6.0
5.0
4.67
-4.33
-0.67
-2.33
-4.67
-1.0
13.33
-1.33
10.67
-3.33
0.0
6.33
-4.67
1.33
-2.0
3.0
6.67
-2.33
-0.33
3.0
-1.33
0.0
10.33
-4.0
-5.0
1.0
-5.0
12.33
1.67
10.33
-7.0
6.67
-1.33
2.0
0.33
6.0
-5.0
-0.67
6.33
-1.33
0.67
-1.0
2.33
10.67
1.0
1.0
7.0
2.0
5.0
-0.33
2.67
6.67
5.33
-10.33
0.67
2.0
5.33
1.0
1.0
2.67
3.33
6.33
0.0
0.0
-6.0
2.0
4.67
-2.33
2.33
9.0
4.0
1.33
3.33
-3.0
-0.67
5.0
-2.0
14.0
1.0
1.67
1.33
1.0
3.67
2.0
-6.33
-3.33
2.67
0.33
-0.33
4.67
10.67
-3.67
2.33
-1.0
-1.67
-1.67
0.67
-3.33
0.67