File: EDX Back Ups and Old Files/Spectra copy 3.3.23/Samples/Low pH SF 25C 6d/10.0.txt
0.0
-44.33
15.0
-110.67
-88.67
-142.0
0.67
24.0
27.33
-67.0
-22.67
-7.33
-29.0
1.33
-0.67
8.33
1.33
-4.0
-0.67
-1.0
1.33
-0.33
-0.33
0.0
1.0
0.0
0.0
0.0
1.0
-0.67
0.67
0.0
1.0
-1.0
-0.33
0.67
0.0
0.67
2.33
0.0
1.0
-1.33
-0.67
-0.67
-0.33
-1.33
1.67
-0.67
1.0
1.67
-1.33
0.67
-0.67
-1.33
1.0
1.0
2.33
1.67
-2.0
-1.0
1.67
-0.33
-2.33
-2.0
0.33
1.33
-1.0
1.33
0.33
-0.67
-2.0
-4.0
0.67
1.67
1.67
-5.0
3.33
1.67
-6.0
-1.67
8.67
6.33
2.67
9.67
1.33
-0.67
-1.0
1.0
-4.33
5.67
-3.33
-1.33
-3.33
1.67
4.33
-0.67
3.0
-1.33
4.67
2.33
4.0
2.33
5.33
0.67
-4.0
-3.0
5.0
9.0
-1.0
-1.33
-2.0
2.33
4.67
2.0
-3.67
-5.67
-8.67
1.0
11.0
0.33
6.0
0.67
3.0
5.33
11.0
5.67
-0.33
3.67
6.33
11.33
3.33
4.0
6.0
-0.33
7.33
-3.33
-1.67
0.0
5.33
-1.0
4.67
5.67
0.33
8.0
5.67
8.0
0.33
8.67
3.67
-3.0
-2.67
-0.67
0.0
3.33
8.67
0.67
5.33
2.0
6.0
1.33
-3.33
0.33
0.33
3.67
3.33
-1.0
1.67
-2.0
3.0
-4.33
-0.67
2.67
2.67
0.33
4.67
2.0
2.33
-6.67
-1.33
-3.67
-0.33
-0.33
-1.67
5.0
3.0
-1.67
3.67
4.67
8.0
-1.0
-2.0
0.33
-1.67
-3.33
2.33
0.67
5.0
2.67
1.67
0.67
-3.33
0.33
4.33
3.0
2.67
0.33
6.67
-2.33
3.67
1.67
-0.33
11.0
2.33
0.33
2.33
2.33
-3.33
4.67
1.0
-3.0
3.67
0.33
3.33
-1.0
0.67
1.33
2.33
2.33
3.67
-2.67
6.0
4.33
0.0
4.0
-0.33
-4.67
-2.33
0.0
3.67
-1.67
0.33
-2.33
9.0
4.67
1.67
-2.0
-1.0
0.33
4.0
3.67
0.0
4.0
-5.0
3.33
1.33
1.0
1.0
1.67
3.0
-1.33
3.67
-0.33
0.67
-5.0
4.0
0.67
-5.33
4.0
3.67
4.0
0.33
1.67
1.67
-5.0
0.0
2.33
0.67
-6.33
2.67
2.33
2.0
0.67
-1.67
2.67
1.0
1.0
0.67
-0.33
2.67
0.0
-3.0
1.67
-2.33
0.33
-0.67
1.67
5.33
-1.0
-2.0
-1.33
3.33
-2.67
-2.0
1.0
2.33
1.0
2.0
6.0
-2.67
2.0
-1.33
6.0
2.0
6.67
-0.33
-0.33
-0.33
-1.67
-1.0
-0.67
4.67
0.33
0.0
-2.67
-1.33
1.0
-0.67
-2.0
-3.67
-2.67
-1.67
-1.33
-1.67
0.0
-3.0
0.67
-3.0
-5.0
-3.33
-5.0
1.67
2.0
-3.67
-3.0
-0.67
0.0
-3.33
4.0
1.0
-0.67
-3.33
-3.67
-3.33
-5.0
-2.33
-3.0
-4.67
-1.0
0.67
-3.67
-0.33
-4.0
-3.67
-1.33
0.67
-5.67
-9.0
1.67
0.67
-4.33
-4.67
-7.0
-4.0
-3.0
-10.0
-8.67
-7.67
-0.67
-2.33
-2.67
-7.33
-1.0
-6.67
-0.67
-2.67
3.33
-3.33
-8.67
-6.33
-2.33
-0.67
0.0
4.0
-0.67
7.0
-1.33
-2.0
0.0
-6.33
0.0
-7.67
-1.67
0.33
-3.33
0.67
-0.67
0.33
2.0
-6.33
-4.67
1.33
-4.0
-2.33
1.67
3.67
-10.67
-4.0
-4.33
5.33
-9.33
-1.33
1.33
5.67
-5.67
1.0
0.67
1.33
-2.67
0.0
-0.67
-1.33
0.67
4.67
0.0
-3.33
-0.67
6.67
-5.33
6.33
-2.0
-3.33
-1.33
2.67
-4.67
-1.67
1.67
-1.33
5.0
2.33
7.67
-0.33
3.33
-4.0
-2.67
3.0
-2.33
3.0
7.0
1.0
0.67
-3.0
5.0
6.0
12.33
16.67
23.33
23.33
24.67
35.33
38.33
47.0
30.67
32.67
55.67
26.0
28.33
18.0
17.0
5.33
7.0
10.0
4.0
1.67
2.67
-2.33
2.0
1.0
-1.67
19.0
1.67
11.0
3.0
23.33
28.0
27.0
26.0
22.33
28.0
14.33
16.0
3.33
10.0
-1.33
-2.33
3.67
4.33
8.33
6.67
3.67
31.0
23.67
17.0
19.0
7.67
13.33
22.67
6.0
5.0
5.0
18.0
10.33
4.67
14.67
14.33
3.33
31.67
15.67
30.0
41.67
48.0
56.0
60.0
56.0
67.33
75.0
56.67
87.67
70.67
68.0
56.67
32.67
31.67
34.67
19.33
26.0
24.0
35.33
24.67
12.67
20.33
30.0
15.33
9.0
8.0
9.67
5.0
10.33
1.33
14.0
8.67
7.67
6.67
14.33
16.33
6.33
2.0
20.67
4.0
12.0
9.33
13.0
9.0
3.33
29.67
39.67
13.0
20.0
29.0
19.0
32.0
15.0
13.33
6.0
3.0
15.67
18.0
14.67
27.33
51.33
63.33
72.33
98.67
109.67
138.33
112.0
116.67
105.0
130.33
102.0
126.67
97.67
113.33
84.67
90.33
68.67
52.67
39.67
29.33
15.33
17.0
24.33
18.67
22.33
19.33
6.0
25.33
21.67
32.67
28.33
33.33
33.0
22.67
23.67
39.67
44.67
22.0
37.0
19.67
34.0
39.67
32.67
31.67
14.33
23.0
10.0
24.67
0.67
14.0
3.33
5.67
12.33
2.67
7.0
14.67
8.33
7.33
14.0
10.33
18.0
16.67
9.0
6.0
15.0
19.67
21.0
18.0
29.33
41.33
30.33
33.67
37.0
35.0
32.67
39.0
18.0
18.67
24.0
28.33
19.0
22.0
16.33
10.0
9.0
15.33
26.67
19.33
12.0
23.67
15.33
12.67
30.67
17.33
17.33
25.0
18.0
20.67
18.33
19.0
11.33
35.67
22.67
11.0
-1.33
7.33
12.33
4.0
7.67
12.0
10.67
5.0
-1.33
14.0
6.33
3.33
6.67
4.33
5.33
4.0
3.33
22.67
6.67
12.67
12.67
4.67
17.67
-6.33
4.33
12.33
14.33
12.67
8.0
5.0
13.67
16.67
-5.0
5.33
-5.33
5.67
6.0
10.0
18.0
-1.67
10.67
18.0
14.33
4.67
2.67
2.0
8.67
4.67
4.67
7.0
1.33
4.33
4.67
9.0
-6.67
-8.0
9.33
7.67
9.67
11.0
14.0
-1.0
7.33
2.33
6.33
13.67
12.0
0.33
13.33
17.67
6.33
18.33
0.67
12.67
0.67
-2.0
0.0
5.67
13.67
10.67
4.67
9.0
11.0
3.33
-6.0
-2.67
2.33
8.33
2.33
-2.33
9.33
15.67
1.0
4.0
15.0
21.67
15.33
16.33
3.0
4.33
-3.0
6.67
6.33
15.67
10.0
9.33
9.0
23.0
3.0
2.33
7.33
8.0
2.33
-1.33
13.0
11.0
15.33
14.0
11.67
10.67
8.67
7.0
14.0
0.0
7.0
5.33
-3.0
5.33
2.67
12.33
6.33
-1.0
4.67
10.67
4.0
-1.33
9.0
-2.0
2.33
-8.67
-3.67
0.33
11.67
6.67
6.67
5.33
1.67
-1.33
7.33
1.0
1.0
3.67
2.67
16.33
-1.33
2.67
9.67
1.0
9.0
1.0
11.0
3.33
-6.67
9.33
1.67
4.67
-4.33
5.33
14.67
8.67
-1.33
-3.33
-9.67
6.0
-7.33
4.0
0.33
4.0
3.0
12.0
-1.0
-2.33
-2.0
1.33
3.67
5.0
0.33
-0.33
5.67
-0.67
3.67
-7.33
2.33
2.33
0.33
10.67
3.67
-0.67
-10.33
-2.0
-2.0
5.33
-3.33
-2.33
3.67
3.33
-1.0
4.33
3.67
0.33
-0.33
-7.33
4.0
0.0
1.33
5.33
1.0
-7.33
3.33
-10.67
-1.67
6.33
-0.67
2.0
5.33
-0.67
10.67
-4.33
12.67
-6.33
4.67
0.67
5.67
0.33
8.33
1.67
0.0
8.0
3.33
-8.67
4.0
3.67
9.33
9.67
8.0
-1.0
1.33
-1.33
-0.33
3.67
5.67
-4.33
6.0
0.0
-2.33
8.33
5.67
3.33
6.0
-8.67
6.33
-0.67
-4.33
-0.33
4.0
-3.67
2.0
3.0
-3.33
9.0
-3.0
0.67
3.67
4.0
-5.33
6.0
-1.67
-3.0
-4.0
6.0
1.0
5.33
-4.33
6.33
-0.33
3.33
4.0
5.67
4.67
-2.0
8.33
9.0
9.33
0.67
5.67
-2.33
1.0
2.0
3.33
7.33
-1.0
1.0
-1.0
-2.67
0.0
-6.0
2.33
4.0
3.67
-3.33
-7.33
-1.33
1.0
2.33
-7.33
0.67
-6.33
4.67
-1.33
-1.67
0.0
-4.33
5.0
-2.33
-0.33
1.67
4.0
-0.33
-1.33
-0.67
-4.0
-3.0
4.33