File: EDX Back Ups and Old Files/Spectra copy 3.3.23/Samples/Low pH SF 25C 6d/10.25.txt
0.0
32.67
-15.0
53.33
-0.67
-33.0
5.67
-46.0
31.33
-41.0
-2.67
-10.33
-14.0
6.33
-14.67
6.33
0.33
-3.0
3.33
1.0
-0.67
-0.33
1.67
0.0
0.0
0.0
0.0
0.0
0.0
-0.67
-0.33
1.0
0.0
0.0
-0.33
-0.33
1.0
-0.33
-0.67
0.0
0.0
-1.33
-0.67
0.33
-0.33
1.67
1.67
0.33
0.0
0.67
-2.33
0.67
-0.67
1.67
-1.0
7.0
-0.67
1.67
1.0
-2.0
3.67
-2.33
-3.33
-2.0
3.33
-0.67
0.0
1.33
1.33
0.33
10.0
-3.0
7.67
1.67
-1.33
2.0
-0.67
5.67
-2.0
4.33
2.67
3.33
1.67
0.67
9.33
6.33
3.0
1.0
-0.33
3.67
1.67
1.67
2.67
-1.33
5.33
4.33
4.0
5.67
6.67
-2.67
-1.0
1.33
2.33
2.67
7.0
1.0
8.0
1.0
0.0
1.67
-4.0
-1.67
2.67
7.0
-5.67
12.33
2.33
6.0
0.0
5.33
5.0
3.67
-1.0
5.33
5.0
-2.33
4.67
4.67
3.33
-3.67
4.33
-1.0
-1.0
-0.33
9.33
0.67
3.33
1.0
4.33
9.0
0.67
1.67
1.33
5.0
9.67
7.0
4.33
4.67
-2.33
2.0
4.33
1.33
2.0
3.33
5.67
1.67
0.33
2.0
7.0
3.33
-6.33
8.33
10.33
-0.33
-3.67
3.0
2.67
2.0
3.0
-2.33
3.33
2.67
-4.33
4.33
5.67
2.0
2.33
2.33
5.67
-4.67
12.67
1.67
1.33
5.0
10.0
-2.67
5.67
3.67
3.0
-3.0
0.0
2.33
1.33
-3.33
2.33
-2.33
1.0
1.67
1.67
5.67
-6.33
0.33
2.33
0.0
1.67
-1.67
0.67
1.67
-3.33
-2.33
4.67
-3.0
4.33
-1.67
4.33
-0.67
-1.33
-1.33
0.0
-2.0
5.67
-0.67
3.33
3.0
3.67
3.33
0.33
0.33
5.67
1.33
3.0
0.33
2.0
1.0
1.67
-4.67
0.67
-5.0
0.67
-5.67
1.33
0.67
2.0
2.67
-1.33
-3.0
1.0
-0.67
-2.0
-1.33
1.0
-3.0
2.0
-2.67
3.33
1.0
-1.0
0.67
0.0
-2.33
4.67
1.67
0.67
0.0
2.0
2.67
-4.33
1.0
-0.33
-1.0
5.33
-1.33
1.67
1.0
4.0
0.33
0.67
-0.33
2.67
2.33
5.0
1.67
-1.67
0.67
-1.0
5.0
-1.33
-1.33
-2.33
-3.0
4.0
0.67
-1.33
-2.67
-0.67
1.67
-0.67
-2.0
0.0
0.67
-3.67
-2.67
4.0
-1.0
-1.67
3.0
4.0
-4.0
-4.67
2.0
1.67
-4.0
-2.0
4.67
-1.33
-3.33
0.67
-5.67
1.0
7.33
-1.33
-2.67
-3.0
-2.67
0.67
0.0
-0.67
-4.0
-1.67
-3.67
-4.67
1.67
2.33
-4.0
1.0
-0.33
1.0
-3.0
-2.33
1.0
-1.33
-3.0
-3.67
-6.0
4.33
-5.0
-4.33
4.0
1.0
-0.67
-2.33
-0.67
-6.33
-3.0
-7.33
-2.0
-6.67
0.0
-4.33
-0.67
-3.33
1.0
-8.67
-1.33
-5.33
-2.67
-4.0
-1.33
-0.33
-2.33
-6.67
-3.0
-3.0
-1.0
-4.0
-4.67
-6.67
-0.67
-5.33
-5.67
-4.33
0.0
-4.67
-2.67
-11.67
-0.67
-8.33
-9.67
-6.33
-5.33
-5.67
-4.0
-8.0
-1.67
7.0
-0.33
-3.0
3.0
-0.33
-6.0
-2.67
2.33
-5.67
-5.33
-4.33
-4.67
-3.67
-1.0
-4.33
-1.67
-3.67
-11.0
5.67
-4.33
3.67
-1.67
-9.0
-0.33
2.33
-8.33
-1.33
2.33
2.67
0.33
6.0
-4.33
1.33
-1.67
3.0
6.33
3.67
0.67
1.67
3.0
-0.33
2.33
-4.33
-5.33
-0.67
-4.0
-7.33
2.67
-5.33
-1.67
1.33
0.67
6.67
7.0
-4.67
-2.33
-6.33
-2.67
5.0
5.33
0.0
-1.33
5.0
0.0
0.0
-1.33
-1.0
9.0
3.0
14.33
23.67
15.33
40.33
20.67
44.33
20.33
12.0
19.67
1.67
8.67
12.0
6.33
5.0
7.0
7.33
-5.0
-2.0
0.0
6.67
0.67
5.67
-9.0
3.0
12.33
6.0
17.67
12.0
11.0
29.33
28.0
19.0
26.0
16.33
27.0
25.33
28.0
14.33
16.0
10.67
14.67
0.67
5.33
1.33
8.67
25.67
11.0
14.67
19.0
13.0
23.67
13.33
13.67
15.0
11.0
14.0
12.0
13.33
6.67
16.67
14.33
14.33
18.67
19.67
6.0
29.67
24.0
37.0
50.0
51.0
73.33
71.0
71.67
78.67
61.67
76.0
49.67
29.67
23.67
24.67
40.33
18.0
49.0
35.33
28.67
6.67
18.33
23.0
11.33
9.0
15.0
20.67
14.0
5.33
4.33
16.0
9.67
17.67
13.67
11.33
18.33
13.33
15.0
5.67
12.0
20.0
18.33
28.0
12.0
7.33
19.67
19.67
11.0
16.0
25.0
30.0
15.0
13.0
13.33
4.0
4.0
15.67
-4.0
15.67
11.33
25.33
43.33
48.33
57.67
94.67
125.33
149.0
179.67
223.0
237.33
249.0
242.67
234.67
178.33
109.67
107.33
69.67
54.67
37.67
36.33
21.33
31.0
37.33
29.67
38.33
32.33
29.0
45.33
41.67
51.67
37.33
55.33
51.0
44.67
39.67
50.67
40.67
44.0
40.0
42.67
43.0
39.67
49.67
37.67
31.33
33.0
23.0
18.67
10.67
12.0
14.33
6.67
13.33
4.67
14.0
1.67
7.33
5.33
17.0
-1.67
18.0
21.67
12.0
11.0
12.0
17.67
33.0
7.0
29.33
24.33
26.33
22.67
33.0
33.0
14.67
22.0
23.0
33.67
20.0
12.33
17.0
33.0
11.33
8.0
25.0
19.33
10.67
16.33
10.0
10.67
11.33
34.67
18.67
24.33
25.33
17.0
19.0
18.67
15.33
16.0
14.33
37.67
30.67
21.0
27.67
22.33
3.33
6.0
4.67
15.0
14.67
5.0
2.67
7.0
6.33
3.33
7.67
0.33
8.33
16.0
-0.67
10.67
5.67
18.67
-1.33
5.67
4.67
-3.33
4.33
8.33
1.33
4.67
6.0
14.0
-2.33
13.67
1.0
14.33
1.67
-9.33
0.0
7.0
11.0
19.33
21.67
10.0
15.33
10.67
11.67
4.0
16.67
9.67
9.67
-2.0
5.33
0.33
-8.33
16.0
-0.67
4.0
11.33
12.67
2.67
6.0
5.0
23.0
12.33
6.33
13.33
4.67
11.0
3.33
-0.67
-1.33
10.33
27.33
-8.33
5.67
5.67
15.0
0.0
12.67
11.67
7.67
1.67
2.0
15.0
11.33
5.0
-0.67
-0.67
11.33
16.33
10.67
5.33
13.67
6.0
12.0
9.0
10.67
17.33
14.33
6.0
6.33
6.0
22.67
7.33
1.67
1.0
4.33
6.0
9.0
12.0
3.33
16.33
2.0
14.33
11.67
10.0
15.0
13.33
6.0
18.67
-0.33
4.67
8.0
1.0
13.0
5.0
11.33
13.0
-6.67
14.67
10.33
-1.67
3.0
4.67
9.67
0.0
-1.33
-7.0
7.0
-2.67
2.33
9.33
12.33
3.67
-5.33
-12.33
-3.67
-1.33
2.67
1.33
-2.0
3.0
3.67
-10.33
9.33
6.67
-0.33
-6.33
3.0
7.0
-5.0
13.0
-5.67
1.33
4.33
-10.33
1.67
-7.33
2.33
3.67
4.67
3.67
-4.33
0.33
-2.0
2.67
10.0
11.33
-3.0
8.0
15.0
1.0
4.67
-5.0
3.33
11.67
6.0
-4.67
-1.33
20.67
4.33
14.67
-2.33
0.33
-3.67
-1.67
-0.33
12.67
5.33
-4.33
6.0
9.0
-2.67
-1.33
-5.33
2.67
-1.67
1.0
-0.67
-0.33
-3.67
-2.33
-4.33
9.0
11.0
5.33
-1.67
-5.0
-2.33
1.33
-1.67
0.33
10.33
-4.67
3.0
3.33
6.33
-3.33
8.67
-1.33
-6.33
1.67
-2.33
-0.33
12.33
9.33
0.67
3.0
-3.0
-1.67
8.33
3.0
4.67
6.33
8.67
5.0
0.0
1.33
0.67
5.67
-3.33
4.67
-0.33
1.0
4.0
-1.33
3.33
0.67
-1.67
-1.0
7.33
-3.67
5.33
5.67
-2.33
-3.0
7.33
-2.0
6.0
-0.33
1.0
6.0
3.67
-2.33
-2.0
-5.33
0.0
-1.67
5.0
7.0
3.0
0.0
4.33
1.67
0.33
1.67
7.33
-2.0
2.67
5.67
-3.0
2.33
0.0
9.33
4.67
-0.33
-0.33
10.0
1.0
4.33
8.33
0.0
2.0
-1.0
-3.67
8.0
-2.0
-7.67
-1.0
1.67
3.67
-1.33
8.67
5.0
2.33
-4.33
1.67
7.67
0.67
-2.33
3.33
7.0
-2.33
1.0
-1.33
1.67
5.67
0.0
1.67
-0.33
1.33
1.0
-5.0
3.33