File: EDX Back Ups and Old Files/Spectra copy 3.3.23/Samples/Low pH SF 25C 6d/11.0.txt
0.0
-1.33
71.0
18.33
-54.67
-59.0
31.67
65.0
41.33
-4.0
2.33
-23.33
6.0
0.33
-9.67
-0.67
4.33
-1.0
-0.67
-1.0
1.33
-0.33
-0.33
1.0
0.0
1.0
0.0
0.0
0.0
1.33
-0.33
0.0
1.0
0.0
-0.33
-0.33
0.0
-0.33
0.33
0.0
0.0
-1.33
0.33
-0.67
0.67
-0.33
0.67
0.33
1.0
0.67
-1.33
0.67
0.33
0.67
2.0
0.0
2.33
1.67
2.0
-1.0
2.67
2.67
-3.33
-1.0
1.33
-1.67
4.0
1.33
-1.67
0.33
8.0
-3.0
2.67
-1.33
-0.33
-1.0
-3.67
2.67
8.0
2.33
3.67
4.33
6.67
5.67
-0.67
2.33
-3.0
4.0
-0.33
11.67
2.67
-2.33
0.67
5.67
6.33
2.33
3.0
1.67
5.67
7.33
11.0
-3.67
0.33
2.67
2.0
0.0
4.0
7.0
0.0
2.67
-4.0
3.33
3.67
6.0
3.33
5.33
3.33
2.0
6.0
2.33
1.0
2.67
-1.0
3.33
-2.0
9.67
8.67
-1.33
6.33
3.33
1.33
5.0
2.0
-0.33
5.33
7.67
1.33
0.0
0.33
4.0
-3.33
4.67
1.33
3.0
1.67
7.0
-3.67
2.67
6.67
4.0
13.33
0.33
1.0
4.33
3.67
2.67
0.33
4.0
4.0
-3.67
-2.33
1.33
2.33
0.67
0.33
-2.0
9.67
2.0
2.0
-3.33
2.33
3.67
-1.33
2.33
0.67
2.0
2.33
0.33
9.67
2.33
-1.33
0.67
-0.67
-1.0
-1.0
1.33
0.67
3.67
3.0
5.0
1.0
-1.67
-4.67
1.67
5.33
-2.33
-2.0
8.67
4.67
3.67
-1.33
1.33
-0.67
1.0
-2.33
1.33
2.67
-1.33
0.67
-1.33
-1.33
5.0
4.33
-0.67
1.33
0.33
-1.33
0.67
3.0
1.0
7.67
-2.67
0.33
6.0
4.67
-5.67
0.33
0.33
-0.33
4.33
5.0
0.33
3.0
-4.0
-0.33
5.33
-3.33
-1.0
-0.33
-2.67
3.33
-0.33
7.0
-3.33
6.67
-2.0
6.0
0.33
6.0
0.67
-1.0
2.0
-1.0
-0.67
0.33
3.0
-2.0
-0.33
5.0
-1.33
2.67
-0.33
-0.33
4.0
-1.0
-1.33
-0.33
-3.0
0.67
-1.0
-0.67
2.67
1.67
3.0
-2.0
5.33
-1.33
-2.33
0.67
-1.67
1.0
-1.33
0.33
2.67
1.0
0.0
-0.33
-4.33
-1.33
-1.0
-1.0
-2.33
-0.33
-1.67
3.33
-0.33
2.33
6.0
5.0
-2.33
-0.67
-1.67
3.0
1.0
2.33
5.0
2.0
0.0
-0.67
1.0
2.67
-2.0
1.0
-3.33
6.67
-4.33
-0.33
-2.67
1.0
3.33
-1.33
-4.67
1.0
-4.67
-4.33
-1.0
0.33
-2.0
-3.67
-3.67
2.33
-1.33
-1.67
-4.0
3.0
-0.33
-3.0
1.0
1.67
-3.0
0.67
-3.0
-4.67
-4.0
5.33
0.0
-5.33
-4.0
1.0
1.33
-4.33
-1.67
-2.33
-3.0
-0.33
-2.0
0.33
-2.0
1.67
-0.67
-1.33
3.0
-0.67
0.67
0.67
-3.67
-8.0
-1.33
-1.33
-5.33
-3.67
-3.0
-2.0
-7.0
-5.0
0.33
-7.67
1.33
-4.33
3.33
-4.33
-1.0
-1.67
0.33
-0.67
6.33
-2.33
-7.67
-4.33
-3.33
-2.67
0.0
-3.0
0.33
-7.0
-5.33
1.0
4.0
-5.33
-8.0
3.33
-2.67
-3.67
-2.33
-0.33
0.33
1.33
-4.0
1.67
-5.67
-4.67
-2.0
-2.33
-5.33
-10.33
-3.67
-4.0
-5.33
-1.67
-8.33
-4.33
-2.67
0.67
2.33
2.0
1.67
2.33
3.33
4.0
7.33
3.67
6.67
2.67
2.0
0.67
6.33
0.67
1.67
-3.67
-1.0
4.67
0.67
4.67
-2.67
5.33
4.67
9.67
8.0
-2.67
7.67
4.67
-0.67
0.0
7.33
4.0
-3.33
-3.0
2.0
-11.0
-4.33
3.0
11.0
8.0
13.33
20.67
27.33
51.33
44.67
36.33
54.33
65.0
44.67
25.67
29.67
41.0
19.33
19.0
5.0
7.33
5.0
2.0
3.0
-4.33
8.67
7.67
7.0
11.0
5.33
5.0
6.67
12.0
8.0
16.33
21.0
1.0
19.0
16.33
9.0
7.33
9.0
8.33
14.0
6.67
10.67
-0.33
6.33
7.33
2.67
5.67
11.0
12.67
4.0
8.0
7.67
16.33
24.67
29.0
23.0
25.0
37.0
34.33
32.67
34.67
46.33
44.33
45.67
51.67
30.0
46.67
30.0
40.0
25.0
33.0
40.33
36.0
48.67
51.67
49.67
38.0
34.67
26.67
24.67
27.67
24.33
26.0
33.0
24.33
30.67
37.67
19.33
22.0
22.33
9.0
16.0
7.67
6.0
12.33
3.33
7.0
6.67
13.67
1.67
8.33
13.33
16.33
5.0
8.67
7.0
19.0
15.33
17.0
25.0
12.33
29.67
52.67
38.0
56.0
49.0
34.0
39.0
52.0
23.33
22.0
12.0
8.67
16.0
14.67
30.33
35.33
57.33
78.33
91.67
159.67
201.33
200.0
162.67
224.0
235.33
239.0
210.67
184.67
153.33
130.67
118.33
71.67
82.67
67.67
45.33
51.33
34.0
38.33
29.67
43.33
42.33
34.0
47.33
54.67
44.67
53.33
64.33
69.0
81.67
80.67
61.67
64.67
62.0
65.0
43.67
64.0
35.67
38.67
38.67
44.33
49.0
28.0
33.67
16.67
16.0
18.33
11.67
8.33
21.67
13.0
0.67
8.33
11.33
18.0
12.33
7.0
15.67
11.0
10.0
6.0
25.67
27.0
21.0
16.33
36.33
22.33
18.67
23.0
41.0
15.67
38.0
26.0
33.67
25.0
39.33
54.0
42.0
44.33
49.0
38.0
36.33
40.67
33.33
22.0
24.67
14.33
16.67
27.67
9.33
15.33
14.0
25.0
20.67
11.33
18.0
9.33
3.67
11.67
25.0
11.67
19.33
6.33
15.0
10.67
9.0
6.67
18.0
7.67
18.0
12.33
6.33
-4.33
7.33
7.33
3.0
4.33
4.67
10.67
17.67
4.67
-5.33
2.67
-1.33
5.33
6.33
8.33
5.67
-3.0
9.0
11.67
14.67
6.0
7.33
3.67
-0.33
17.0
8.0
6.0
5.33
16.67
-3.0
13.33
0.67
18.67
18.0
6.67
3.67
2.67
2.0
2.33
-4.67
5.67
4.0
5.33
2.0
12.33
10.67
18.67
3.0
-4.0
1.0
2.33
10.33
4.33
14.67
5.0
1.33
-4.67
13.67
9.33
10.33
11.67
6.67
11.67
5.0
-1.0
7.67
20.67
3.67
3.67
12.0
13.0
8.33
9.0
7.33
8.33
12.33
13.33
23.67
5.33
4.67
-1.0
3.0
5.0
10.67
21.33
6.33
3.0
1.33
6.0
12.67
3.33
-4.33
9.0
2.33
-1.0
0.0
10.0
10.33
11.33
12.0
12.33
-0.33
22.0
11.0
23.33
18.0
15.67
22.67
12.67
17.0
19.0
1.0
7.0
8.33
0.0
0.33
2.67
8.33
16.33
5.0
-11.33
9.67
-7.0
6.67
-5.0
2.0
7.33
2.33
9.33
16.33
11.67
8.67
6.67
3.33
1.67
9.67
-1.67
-2.0
-3.0
1.67
-9.33
4.33
14.67
2.67
-1.33
15.0
8.0
-3.0
7.0
-4.67
-1.67
-2.67
8.67
12.67
0.67
1.33
2.67
-1.33
4.67
-2.33
1.33
-3.0
0.67
4.0
3.33
1.0
-5.0
13.0
1.0
-1.33
4.0
5.33
-6.33
-16.0
-9.67
3.67
2.67
8.33
11.67
-4.33
-0.67
2.33
-0.67
12.67
-7.33
0.33
2.67
-1.0
6.0
-2.67
-6.33
1.67
8.67
2.33
5.0
6.33
-1.33
1.33
-1.33
-6.33
9.0
-2.0
1.33
5.33
1.0
-1.33
7.33
0.33
4.33
6.33
2.33
5.0
2.33
-4.67
3.67
-4.33
1.67
-6.33
3.67
-1.33
-2.33
7.33
3.33
-0.33
-1.0
2.0
11.33
-1.67
-3.0
3.67
5.33
11.67
1.0
0.0
6.33
-3.33
6.67
3.67
3.67
6.67
1.0
6.0
0.67
5.33
5.67
0.33
3.0
7.33
-2.67
-0.67
2.67
-1.33
-4.0
0.33
-4.0
7.0
9.67
3.0
3.0
3.67
-0.33
-7.0
-1.33
2.0
0.33
4.0
-3.0
8.0
7.0
1.33
3.67
8.33
0.67
3.33
4.0
3.67
5.67
-3.0
-0.67
-5.0
-4.67
3.67
1.67
0.67
1.0
1.0
-2.67
10.33
1.0
3.0
3.0
3.33
8.0
-2.0
-3.67
-5.0
13.67
1.67
-1.33
-0.33
-1.0
2.33
-4.33
7.67
1.67
2.67
0.67
2.33
-1.0
3.67
5.0
-5.33
-0.33
5.67
-4.0
0.67
3.67
-2.67
3.0
-1.0
1.33