File: EDX Back Ups and Old Files/Spectra copy 3.3.23/Samples/Low pH SF 25C 6d/11.25.txt
0.0
41.67
-22.0
30.33
-39.67
-32.0
61.67
-44.0
-13.67
-65.0
12.33
-2.33
-23.0
15.33
-12.67
8.33
8.33
-2.0
2.33
-1.0
1.33
0.67
-0.33
0.0
0.0
2.0
0.0
1.0
1.0
-0.67
-0.33
0.0
2.0
-1.0
0.67
-0.33
0.0
0.67
-0.67
1.0
2.0
-0.33
-0.67
1.33
-0.33
-1.33
0.67
-0.67
1.0
1.67
-2.33
2.67
-1.67
-1.33
0.0
1.0
0.33
1.67
4.0
-3.0
2.67
4.67
3.67
-6.0
1.33
-2.67
2.0
4.33
-0.67
2.33
3.0
1.0
6.67
2.67
-2.33
6.0
0.33
-3.33
-7.0
0.33
4.67
-0.67
-0.33
9.67
4.33
10.33
0.0
-1.0
3.67
3.67
-2.33
-1.33
6.67
0.67
5.33
0.33
4.0
2.67
7.67
-0.67
0.0
3.33
1.33
3.67
-2.0
-4.0
9.0
1.0
9.0
4.67
-1.0
1.33
11.67
2.0
0.33
1.33
5.33
2.0
7.0
3.33
4.0
-0.33
12.0
3.33
6.0
1.67
6.67
5.67
1.33
-2.67
3.33
0.0
2.0
2.67
7.33
0.67
-3.67
-3.0
6.33
3.0
-0.33
3.67
5.33
4.0
3.67
-2.0
-4.67
0.67
-4.33
8.0
4.33
1.33
6.0
6.33
4.67
2.67
-2.67
-2.0
3.0
-0.67
-4.33
6.33
2.33
3.67
3.33
-7.0
2.67
0.0
3.0
-0.33
1.33
-0.33
-1.33
1.33
9.67
3.0
1.33
-2.67
3.67
-0.67
-4.33
-3.33
1.33
0.0
6.0
-1.67
1.67
0.67
2.0
1.0
1.0
4.33
-2.67
-5.33
2.33
-5.33
0.0
4.67
3.67
-1.33
-4.33
3.33
-4.67
-6.0
1.67
-1.67
-0.33
2.67
6.67
-2.33
5.67
4.0
0.33
-0.67
2.33
2.33
1.67
0.67
-3.0
3.0
3.67
2.33
-2.67
-5.0
2.67
1.33
1.33
-0.67
4.67
-2.67
-1.0
3.33
-4.0
-1.0
-1.33
-0.67
-3.33
-1.0
3.67
-3.67
1.33
-2.33
3.0
-2.33
1.67
-1.0
1.0
4.33
-1.0
3.67
1.0
1.0
9.0
-0.67
3.33
4.0
1.0
0.67
3.0
0.67
4.67
-3.33
-3.33
-4.0
0.0
-0.33
-3.33
-1.0
-1.33
-4.0
1.33
-0.33
0.67
3.0
3.0
-0.67
5.67
-0.33
-4.33
0.33
-2.0
3.67
-1.67
2.67
2.0
0.0
3.67
-0.33
-1.33
-3.0
0.0
0.67
0.67
3.33
4.33
0.67
1.33
3.0
3.0
2.67
3.33
3.33
1.0
0.0
3.33
4.0
5.0
-6.0
2.33
1.0
0.67
-4.0
2.0
0.67
-1.33
-4.33
2.67
-2.67
0.0
3.33
0.67
0.33
-1.0
-0.67
-3.33
-2.0
-0.67
-3.0
-3.67
-4.67
-6.67
-2.33
-0.67
0.0
3.0
-7.33
-2.0
-5.0
-2.33
-4.0
-2.33
0.0
-2.67
4.0
-3.67
-3.0
-2.33
-1.0
-4.0
0.33
2.67
-5.67
-2.33
0.0
-6.33
-2.0
-5.67
1.0
-2.33
0.33
-6.33
0.0
0.33
2.67
-4.33
-3.67
-5.0
1.67
-0.33
6.67
-1.67
0.0
0.0
-1.0
-8.0
-2.67
-6.67
-2.67
-6.33
-0.67
3.67
5.0
-5.67
0.33
-3.67
-0.67
-5.33
-2.67
-5.33
-4.33
-6.67
0.0
-2.0
-6.67
-6.0
2.67
0.0
6.0
-5.33
2.0
7.33
0.33
-2.67
-4.33
2.67
-2.67
-3.67
2.0
-2.33
-1.67
-3.67
-8.0
-3.33
-0.33
2.67
0.33
5.0
5.67
-5.67
-5.33
-4.33
1.33
2.67
-3.67
-4.0
4.67
-4.67
0.33
0.0
-3.67
7.67
5.67
-4.33
-1.0
-3.33
10.33
-0.33
5.67
-3.67
1.0
0.67
5.67
-0.33
7.33
3.33
3.67
2.67
7.0
-2.67
-1.33
7.67
-6.67
-2.0
4.33
-2.0
-4.33
8.0
-1.0
-4.0
-2.33
4.0
0.0
10.0
8.33
11.67
25.33
20.33
20.67
33.33
31.33
24.0
23.67
17.67
13.67
11.0
9.33
7.0
2.0
12.33
-5.0
1.0
3.0
-1.33
14.67
-7.33
2.0
8.0
1.33
9.0
8.67
9.0
9.0
20.33
15.0
16.0
16.0
11.33
13.0
17.33
23.0
4.33
12.0
1.67
1.67
-1.33
1.33
7.33
-0.33
0.67
5.0
11.67
11.0
0.0
15.67
14.33
28.67
29.0
32.0
28.0
54.0
62.33
43.67
45.67
68.33
50.33
51.67
64.67
44.0
32.67
40.0
47.0
34.0
46.0
45.33
44.0
48.67
53.67
55.67
40.0
48.67
46.67
24.67
31.67
39.33
33.0
23.0
25.33
25.67
13.67
20.33
18.0
9.33
10.0
11.0
13.67
7.0
17.33
11.33
9.0
5.67
13.67
20.67
15.33
26.33
11.33
14.0
11.67
12.0
17.0
11.33
14.0
12.0
6.33
18.67
30.67
23.0
13.0
24.0
43.0
32.0
19.0
27.33
22.0
22.0
12.67
20.0
27.67
40.33
64.33
71.33
113.33
127.67
218.67
212.33
239.0
257.67
259.0
210.33
170.0
167.67
152.67
117.33
108.67
95.33
81.67
83.67
50.67
45.33
45.33
44.0
40.33
21.67
20.33
13.33
42.0
39.33
45.67
62.67
55.33
59.33
61.0
64.67
73.67
56.67
57.67
75.0
46.0
46.67
40.0
44.67
29.67
27.67
26.33
23.0
28.0
19.67
2.67
13.0
9.33
12.67
5.33
2.67
11.0
12.67
7.33
12.33
17.0
3.33
23.0
9.67
7.0
13.0
4.0
21.67
26.0
15.0
32.33
41.33
33.33
30.67
35.0
27.0
44.67
39.0
36.0
36.67
33.0
33.33
58.0
44.0
42.33
48.0
34.0
49.33
42.67
26.33
23.0
21.67
15.33
19.67
30.67
9.33
13.33
7.0
20.0
19.67
20.33
31.0
24.33
20.67
27.67
10.0
15.67
9.33
6.33
8.0
15.67
9.0
11.67
5.0
1.67
19.0
10.33
3.33
-5.33
4.33
6.33
14.0
5.33
7.67
9.67
14.67
-1.33
2.67
15.67
13.67
-0.67
12.33
6.33
6.67
7.0
7.0
5.67
19.67
-4.0
17.33
13.67
15.67
6.0
11.0
19.0
16.33
21.67
5.0
9.33
12.67
8.67
-1.0
4.67
-5.33
4.67
-4.0
4.33
9.33
4.67
-1.0
0.33
3.0
5.33
-4.33
7.67
19.0
2.0
8.0
3.33
9.33
11.33
14.67
12.0
-2.67
17.33
5.67
11.33
14.33
-7.33
16.67
9.67
1.0
9.0
15.67
6.67
-4.33
0.67
12.0
19.0
1.33
6.0
15.33
-7.67
-11.67
16.33
5.67
3.33
5.67
12.0
23.0
17.0
7.67
0.33
25.33
28.0
7.33
5.0
7.67
8.33
10.67
5.0
11.33
7.0
13.0
13.0
20.33
17.33
4.0
-0.67
20.67
10.0
8.0
10.33
13.0
14.67
10.67
7.67
8.0
15.0
-5.0
0.0
-0.67
10.0
0.33
15.67
-7.67
15.33
-2.0
10.67
6.67
5.0
-3.33
0.0
7.0
8.33
14.33
-0.67
9.33
15.67
-1.33
2.67
-1.67
2.67
-3.33
-2.67
-1.0
-3.0
-6.33
-0.33
3.33
4.67
1.67
9.67
7.0
3.0
-4.0
6.0
11.33
-0.67
9.33
-0.33
8.67
7.67
10.33
2.67
-0.33
-2.33
1.67
2.33
3.0
1.67
5.0
16.33
11.0
6.0
8.0
4.0
2.67
0.0
-10.67
-2.33
-8.0
8.33
15.67
14.67
-0.67
-4.33
-3.33
4.33
7.33
-3.67
11.67
-7.33
-1.67
-4.33
0.0
6.0
-1.67
-5.33
-2.33
1.67
0.33
-3.0
4.33
13.67
1.33
0.67
-5.33
3.0
0.0
-0.67
-3.67
4.0
-1.33
5.33
-1.67
6.33
1.33
0.33
5.0
0.33
-5.67
9.67
-1.33
4.67
4.67
1.67
-2.33
0.67
4.33
0.33
10.67
7.0
-1.0
6.33
-2.67
2.0
-3.33
6.33
-1.33
1.0
4.0
5.33
-2.33
-2.33
4.67
-1.33
2.67
0.0
4.0
-3.33
1.33
3.67
-0.67
8.0
7.33
-6.67
0.33
7.67
-4.33
-7.0
-0.67
5.0
-3.0
3.67
5.0
-1.0
6.67
3.67
-1.0
-0.33
6.0
4.33
2.0
-5.0
4.0
7.0
6.33
0.67
-3.67
-0.33
1.33
-7.0
4.67
0.67
2.0
0.33
-2.0
0.33
-0.33
3.67
1.67
2.0
2.0
-3.67
0.33
8.0
2.0
1.0
-6.67
7.0
3.0
1.33
-5.0
1.67
5.67
1.67
4.67
2.0
8.33
0.67
1.67
-0.33
5.67
-0.33
8.33
4.0
-2.33
0.0
-2.33
5.67
3.67
1.0
1.67
0.67
2.33
0.0
0.0
-0.67