File: EDX Back Ups and Old Files/Spectra copy 3.3.23/Samples/Low pH SF 25C 6d/11.5.txt
0.0
23.67
50.0
-54.67
-23.67
-40.0
-83.33
18.0
1.33
-54.0
-7.67
-36.33
-14.0
8.33
5.33
9.33
-0.67
-3.0
2.33
-2.0
-0.67
-0.33
-0.33
0.0
1.0
1.0
0.0
0.0
0.0
-0.67
-0.33
0.0
0.0
0.0
0.67
-0.33
0.0
-0.33
-0.67
0.0
1.0
-1.33
-0.67
1.33
-0.33
-1.33
-0.33
-0.67
2.0
0.67
-0.33
0.67
-1.67
-0.33
-2.0
0.0
0.33
-0.33
0.0
-2.0
0.67
0.67
-2.33
-3.0
-0.67
2.33
5.0
3.33
4.33
0.33
1.0
-2.0
3.67
1.67
5.67
3.0
-2.67
1.67
-2.0
1.33
1.67
0.33
6.67
4.67
2.33
-0.67
4.0
2.0
1.67
6.67
-1.33
1.67
-2.33
1.67
1.33
6.33
3.0
-0.33
3.67
7.33
9.0
3.33
9.33
-3.33
-1.0
-5.0
2.0
7.0
2.0
-2.33
0.0
1.33
8.67
3.0
-0.67
-0.67
3.33
-1.0
10.0
4.33
2.0
0.67
3.0
9.33
1.0
3.67
4.67
1.67
7.33
1.33
0.33
-1.0
-3.0
-3.33
-2.67
6.67
3.33
-7.0
7.33
-3.0
4.67
5.67
8.33
3.0
1.67
7.0
0.33
0.67
5.67
1.0
0.33
3.33
-2.0
2.33
0.67
-0.33
2.33
-1.0
3.0
-5.67
-7.33
5.33
-2.67
6.67
-2.67
-4.0
7.67
3.0
4.0
-0.33
3.33
1.67
1.67
1.33
4.67
7.0
6.33
1.33
-0.33
3.33
0.67
-4.33
-0.67
3.0
4.0
0.33
2.67
7.67
-4.0
8.0
-5.0
-1.67
1.33
4.67
1.33
-1.33
-1.0
-1.33
6.67
-2.33
-1.33
1.33
-3.67
0.0
-5.33
-3.67
3.67
-0.33
-4.33
3.67
-0.33
3.0
0.33
-2.67
7.33
-2.67
-1.33
-1.33
1.0
1.0
3.67
4.33
-2.67
-2.0
1.67
-1.67
8.33
4.33
6.67
3.33
5.0
1.33
-1.0
2.0
0.67
-2.67
1.67
1.0
-0.33
-0.67
2.33
-0.33
2.0
0.67
2.67
-5.0
-1.0
1.33
3.0
-2.33
7.0
6.0
0.0
-2.67
0.33
4.0
3.0
7.67
-2.0
-2.33
4.67
-2.33
-1.33
-3.0
5.0
-0.33
-4.33
2.0
-4.33
-2.0
-2.67
3.67
1.67
2.0
2.0
-1.67
0.67
-1.33
-2.33
3.33
5.0
-1.33
1.33
-0.33
-4.0
-2.0
2.67
-5.33
1.67
2.0
3.0
-4.33
-0.33
2.33
-2.67
0.67
3.33
-3.0
-1.0
0.67
0.33
1.33
1.0
2.0
6.33
1.0
3.0
-4.0
-1.67
0.0
-0.33
-5.0
0.0
4.67
-2.33
-1.33
3.67
0.33
2.0
2.33
-3.33
-1.67
-5.0
0.33
-0.33
-4.0
1.33
-3.0
-2.67
-2.67
-2.67
-3.33
-1.67
-1.0
-2.0
-3.33
-2.0
-3.0
-0.33
-2.0
-1.33
1.0
0.33
-4.0
-2.67
3.0
-0.33
-1.0
-4.0
3.33
-4.33
-0.67
-0.33
-1.0
-4.33
0.0
-4.67
6.0
-3.33
-3.67
-4.33
1.0
1.33
-2.33
-1.33
0.33
-5.0
-0.33
-2.33
-6.33
-7.67
-5.0
-5.0
-7.0
-7.0
-6.67
-6.67
3.33
-0.33
-3.67
1.67
1.0
-4.67
-2.67
-0.67
-0.67
-2.33
-7.67
-6.33
-8.33
0.33
0.0
-7.0
-2.67
-2.0
-0.33
-2.0
3.0
-6.33
-5.0
-4.67
-3.67
-7.67
-1.33
4.67
-5.67
-1.67
-6.0
-2.33
3.33
-0.67
-9.0
-1.33
-4.33
-3.33
-3.67
-9.0
-1.33
3.33
-6.33
-8.33
0.33
5.67
-4.67
6.0
-2.33
-7.67
-2.67
2.0
1.33
1.67
3.67
-0.33
-6.0
-5.33
-1.67
3.67
5.67
-1.67
5.0
1.67
-2.33
2.67
-7.67
4.33
-0.33
-1.33
5.0
2.33
6.67
-0.33
-9.67
-10.0
-6.67
-4.0
1.67
12.0
2.0
-2.0
-6.33
7.0
6.0
3.0
16.33
21.67
48.33
59.33
70.67
72.33
90.33
67.0
56.67
38.67
42.67
30.0
14.33
7.0
1.0
6.33
0.0
-6.0
3.0
5.67
2.67
3.67
6.0
5.0
8.33
2.0
2.67
3.0
8.0
14.33
16.0
1.0
10.0
20.33
10.0
15.33
20.0
2.33
4.0
4.67
-0.33
0.67
1.33
3.33
8.67
7.67
13.0
6.67
19.0
6.0
19.67
1.33
35.67
33.0
42.0
62.0
43.0
52.33
66.67
56.67
77.33
79.33
93.67
72.67
68.0
48.67
50.0
61.0
54.0
44.0
71.33
86.0
64.67
64.67
57.67
55.0
66.67
54.67
30.67
56.67
38.33
43.0
34.0
37.33
42.67
33.67
35.33
26.0
13.33
16.0
12.0
11.67
5.0
12.33
1.33
12.0
6.67
8.67
10.67
14.33
7.33
17.33
2.0
2.67
3.0
14.0
27.33
18.0
13.0
13.33
20.67
30.67
13.0
5.0
19.0
18.0
18.0
11.0
12.33
24.0
12.0
14.67
9.0
13.67
30.33
55.33
86.33
129.33
164.67
216.67
246.33
277.0
247.67
205.0
162.33
119.0
88.67
68.67
57.33
62.67
58.33
50.67
36.67
43.67
52.33
31.33
38.0
17.33
21.67
42.33
29.33
31.0
40.33
31.67
38.67
35.33
50.33
40.0
41.67
49.67
46.67
35.67
41.0
46.0
37.67
40.0
44.67
41.67
50.67
18.33
26.0
27.0
26.67
9.67
12.0
8.33
6.67
10.33
17.67
3.0
-2.33
5.33
4.33
14.0
6.33
28.0
25.67
16.0
6.0
8.0
27.67
16.0
8.0
27.33
36.33
23.33
22.67
24.0
25.0
24.67
25.0
22.0
34.67
24.0
20.33
35.0
31.0
21.33
39.0
24.0
15.33
22.67
9.33
16.0
16.67
17.33
27.67
16.67
24.33
16.33
18.0
1.0
24.67
13.33
2.0
10.33
-0.33
14.67
7.0
16.67
6.33
18.33
12.0
11.67
-1.0
2.67
0.0
12.67
16.0
-6.67
-1.67
-1.33
-0.67
0.33
9.0
12.33
10.67
5.67
7.67
6.67
3.67
6.67
6.67
13.33
8.33
7.33
13.67
8.0
6.0
-11.33
13.67
10.0
15.33
-3.33
3.67
-1.0
2.0
15.0
-2.67
-3.33
8.0
12.33
23.67
9.67
5.0
12.67
3.67
3.67
-4.0
-6.67
2.33
-1.33
2.0
-0.67
2.0
6.33
3.67
15.67
15.0
1.0
14.0
7.33
7.33
6.33
7.67
14.0
7.33
1.33
-1.33
7.33
13.33
-0.33
15.67
8.67
12.0
12.0
5.67
3.67
7.67
3.67
4.0
6.0
12.33
11.0
6.33
7.33
7.33
14.33
17.67
-2.67
1.67
13.0
8.0
15.0
8.67
10.33
16.33
6.0
7.33
2.0
10.67
12.33
4.67
5.0
8.33
9.0
11.0
8.0
-0.67
6.33
17.0
8.33
13.67
4.0
1.0
1.33
11.0
10.67
7.67
1.67
8.0
1.0
8.0
1.0
2.33
-2.0
16.33
20.67
14.33
9.33
-3.0
-2.33
7.67
-3.0
5.67
-8.0
6.0
1.33
-2.67
4.33
25.33
12.67
-4.33
6.67
3.33
1.67
0.67
1.33
1.0
-3.0
5.67
-4.33
2.33
-0.33
-1.33
-2.33
1.0
-3.0
-1.0
12.0
5.33
6.33
5.33
7.67
10.67
0.67
-0.67
-1.33
2.67
-0.33
7.67
-5.67
11.0
-5.33
13.0
-6.67
0.0
-1.0
4.0
2.0
4.67
-4.0
-1.67
10.67
3.0
1.33
1.67
16.67
-0.67
9.67
-9.33
2.33
3.33
9.33
0.67
-2.33
1.33
-6.33
-2.0
0.0
2.33
3.67
3.67
2.67
-0.67
-4.0
-2.67
12.67
6.33
2.67
-3.33
3.0
6.0
4.33
0.33
1.0
3.67
5.33
-4.67
6.33
4.33
6.33
0.0
10.33
-2.67
-0.33
5.67
3.67
-3.33
1.67
-5.33
-0.33
3.33
6.33
-0.33
3.0
4.0
5.33
-5.67
-2.0
1.67
4.33
-0.33
1.0
-5.0
6.33
-4.33
5.67
10.67
-3.33
9.67
2.0
6.0
-0.33
4.33
2.67
0.33
5.0
5.33
6.33
3.33
3.67
-2.33
-3.0
1.33
0.0
-1.0
2.67
11.0
0.0
5.67
1.67
-5.0
2.67
6.0
-3.67
0.0
-2.0
0.0
-1.0
0.33
2.67
-3.67
5.67
7.33
-1.0
4.67
2.67
2.0
-1.67
2.0
0.33
-0.33
8.67
0.67
0.0
4.0
-1.67
4.33
1.0
-1.0
-5.0
-0.67
3.0
2.0
2.33
-1.0
2.67
1.67
-0.33
0.67
-3.0
-4.67
-6.33
4.67
-4.33
1.67
2.67
0.33
2.0
1.67
8.0
-3.33
-0.33
2.67
-1.0
1.67
-1.33
1.33
1.0
-1.0
3.33