File: EDX Back Ups and Old Files/Spectra copy 3.3.23/Samples/Low pH SF 25C 6d/6.0.txt
0.0
-9.33
-36.0
-8.67
-37.67
-31.0
18.67
61.0
42.33
-16.0
15.33
6.67
-18.0
11.33
-11.67
-4.67
-1.67
2.0
-0.67
3.0
-0.67
0.67
-0.33
0.0
0.0
1.0
1.0
0.0
0.0
-0.67
-0.33
0.0
1.0
1.0
0.67
0.67
0.0
-0.33
-0.67
0.0
0.0
-1.33
-0.67
-0.67
-0.33
-1.33
-0.33
-0.67
3.0
0.67
-0.33
1.67
3.33
-1.33
-1.0
5.0
0.33
2.67
0.0
1.0
-2.33
2.67
5.67
-1.0
4.33
2.33
1.0
2.33
3.33
4.33
4.0
5.0
2.67
2.67
-0.33
-4.0
2.33
5.67
-2.0
8.33
3.67
5.33
4.67
8.67
7.33
3.33
3.0
-2.0
5.67
6.67
0.67
0.67
-0.33
-3.33
9.33
1.33
2.0
-0.33
11.67
2.33
7.0
11.33
3.33
5.67
8.0
-3.0
-2.0
2.0
3.0
-2.33
-1.0
1.33
4.67
6.0
-2.67
3.33
8.33
5.0
2.0
8.33
4.0
0.67
10.0
2.33
3.0
8.67
0.67
-1.33
2.33
7.33
-0.67
6.0
-4.0
5.67
2.33
0.67
-6.67
-8.0
10.33
-5.0
3.67
-1.33
0.33
-4.0
7.67
8.0
1.33
0.67
3.67
-3.0
9.33
5.33
6.0
2.33
4.67
2.67
4.33
1.0
6.0
-1.67
0.67
5.33
6.33
-0.33
1.33
-2.0
3.67
1.0
1.0
0.67
2.33
7.67
0.67
2.33
4.67
10.0
3.33
3.33
2.67
-2.67
1.67
-0.33
1.33
8.0
-1.0
1.33
-1.33
-0.33
8.0
4.0
-4.0
-1.67
-3.67
5.67
2.33
3.67
1.0
5.67
1.67
4.67
5.67
1.33
6.33
-6.0
0.67
5.33
0.67
-0.33
4.67
1.67
1.67
0.0
4.33
4.33
6.33
0.33
3.67
5.67
-5.0
2.0
2.67
10.33
0.33
5.0
5.67
1.33
1.33
-0.67
1.67
3.33
7.0
4.33
2.0
0.0
2.67
0.33
-1.33
2.0
4.67
0.33
1.33
-3.33
6.0
-0.33
5.67
-3.0
-1.0
2.33
5.0
1.67
1.0
10.0
-2.0
-0.67
-1.67
5.0
-2.0
0.67
-2.0
-0.33
3.67
-3.33
-0.33
-1.0
3.0
-0.33
-0.33
2.0
2.67
0.0
0.33
2.67
0.67
5.0
5.0
3.33
4.67
-4.33
6.67
1.33
4.0
-2.33
-0.67
7.67
-2.0
0.0
4.67
0.67
-0.33
-3.0
2.0
0.67
2.67
5.33
2.33
-0.33
2.33
1.0
6.0
2.67
-0.67
1.33
2.0
6.0
2.33
1.0
3.0
-5.0
0.33
1.0
4.67
-3.0
0.0
5.67
2.67
-4.33
1.67
-3.67
1.0
-0.67
3.67
-4.67
6.0
1.33
2.67
1.0
-1.67
3.0
0.33
-1.67
-2.67
-1.33
-2.67
1.0
2.0
-2.33
-6.0
-2.0
3.67
-5.0
-2.33
2.0
-4.67
-6.0
-4.67
4.0
0.67
2.0
-2.0
-1.67
0.67
-0.67
-5.33
-2.0
-6.33
0.0
-2.67
4.0
1.67
-3.67
-7.33
-3.0
-1.67
-3.33
-2.33
-3.67
-5.0
-1.33
0.67
-5.33
-11.67
-1.0
-6.0
-1.0
-7.0
-6.67
-12.67
-6.67
-0.33
-6.67
1.67
-4.0
-4.67
3.33
-9.67
0.33
-4.33
-3.67
-3.33
-3.33
-2.67
-3.0
-4.0
-1.67
-6.0
-1.33
-6.0
-5.0
-7.33
-7.0
-2.67
-2.67
-0.67
-6.33
-4.33
-5.67
-3.67
-6.0
-7.33
-3.67
-4.67
-3.0
-5.33
-9.33
0.67
-0.67
-3.0
0.67
-5.67
-7.33
-7.33
-5.67
2.67
-8.67
-8.0
2.67
-1.67
2.33
-5.0
1.33
-3.33
0.67
5.67
0.0
3.67
-0.67
-2.33
-6.33
2.33
2.0
1.67
-4.33
-2.33
2.33
-5.67
-1.33
-5.33
-1.0
-8.67
-1.33
1.67
-2.67
-2.0
0.33
-3.0
-7.33
0.0
1.0
-9.0
-4.33
-1.0
2.0
3.0
-0.67
2.67
14.33
0.33
0.67
0.33
5.33
13.0
3.67
8.67
12.67
13.0
8.33
11.0
-2.0
4.33
-7.0
1.0
0.0
0.67
5.67
6.67
2.0
-1.0
3.33
-3.0
-1.33
7.0
2.0
18.33
20.0
16.0
40.0
33.33
28.0
9.33
22.0
1.33
5.0
2.67
3.67
-2.33
7.33
0.33
5.67
13.67
13.0
4.67
16.0
-3.0
1.67
7.33
-1.33
2.0
11.0
1.0
13.0
5.33
5.67
3.67
7.33
5.33
8.67
23.67
9.0
6.67
21.0
8.0
16.0
10.0
15.33
17.0
26.67
13.67
22.67
21.0
12.67
4.67
7.67
4.67
14.33
8.0
13.0
31.33
19.67
10.67
20.33
22.0
15.33
8.0
14.0
5.67
1.0
12.33
4.33
10.0
2.67
-2.33
11.67
4.33
6.33
7.33
3.0
1.67
7.0
16.0
6.33
13.0
15.0
7.33
26.67
27.67
13.0
9.0
22.0
9.0
15.0
11.0
15.33
7.0
21.0
11.67
14.0
12.67
15.33
17.33
31.33
23.33
31.67
46.67
38.33
45.0
70.67
80.0
96.33
71.0
69.67
56.67
51.33
43.67
51.33
20.67
18.67
22.67
13.33
11.33
18.0
20.33
-1.33
24.33
14.33
16.0
3.33
15.67
28.67
20.33
29.33
31.0
29.67
37.67
31.67
27.67
40.0
43.0
29.67
36.0
23.67
17.67
10.67
15.33
10.0
6.0
4.67
14.67
19.0
14.33
22.67
10.33
13.67
6.0
6.67
10.33
6.33
10.0
5.33
3.0
4.67
4.0
9.0
3.0
28.67
23.0
11.0
19.33
11.33
18.33
13.67
17.0
32.0
20.67
21.0
19.0
15.67
25.0
37.33
16.0
44.0
30.33
31.0
30.0
38.33
38.67
16.33
26.0
19.67
13.33
25.67
30.67
4.33
18.33
14.0
18.0
23.67
17.33
22.0
25.33
9.67
10.67
13.0
6.67
4.33
11.33
-2.0
0.67
18.0
11.67
3.0
13.67
12.0
3.33
5.33
10.67
14.33
13.33
8.0
-0.67
11.67
5.67
7.67
1.67
0.67
1.67
0.67
9.33
-4.67
12.33
7.67
5.0
18.0
-0.33
19.67
12.0
13.33
8.67
4.67
16.0
19.0
28.0
14.33
7.67
15.0
19.33
5.67
12.67
5.0
18.67
2.67
20.67
3.0
7.33
13.33
-7.33
10.0
12.33
5.0
2.33
4.67
17.67
5.0
5.0
16.0
-1.67
20.33
10.33
3.67
19.0
15.33
2.33
27.67
10.33
14.33
-6.33
7.67
9.67
11.0
13.0
1.67
-0.33
8.67
-2.33
-7.0
17.0
17.33
5.0
3.33
9.33
6.33
14.33
6.67
11.33
4.67
15.0
16.0
14.0
10.67
3.33
3.33
9.0
8.33
11.0
5.67
13.33
3.67
7.0
8.33
25.0
-4.0
11.0
13.33
13.33
1.0
10.33
1.67
15.0
10.0
8.33
10.0
11.67
2.67
-1.33
12.0
-4.0
-4.0
11.0
-3.67
13.0
6.33
13.67
4.33
16.33
-2.0
1.67
12.67
3.0
4.67
4.0
3.0
8.33
8.33
12.33
11.33
21.67
2.67
3.67
13.33
9.67
9.67
-3.67
3.0
-1.0
5.67
-3.33
18.33
7.67
8.67
10.67
13.0
0.0
16.0
11.0
17.33
12.33
0.33
10.67
-0.33
11.67
12.33
4.67
-4.33
4.67
-5.33
10.33
1.0
-10.33
16.0
17.33
-8.0
10.0
0.0
5.0
14.67
4.0
-1.67
2.67
1.0
6.33
6.67
12.67
3.33
9.67
-0.33
11.33
-2.67
-6.67
2.67
-0.33
-3.67
-8.33
1.0
4.0
4.33
4.67
-3.33
6.67
4.33
11.0
6.33
2.67
4.33
-5.33
-5.33
0.0
8.0
2.33
-1.67
0.0
3.67
3.33
-4.67
-2.67
4.33
0.33
4.0
0.33
-6.67
5.67
11.67
4.67
9.67
-0.33
-2.33
-5.33
7.33
4.33
-1.33
9.0
-2.0
8.33
-4.67
3.0
2.67
12.33
-2.33
4.0
7.0
8.33
5.67
0.67
10.67
4.67
7.67
7.0
3.0
4.67
-5.67
7.67
11.33
7.0
4.33
2.33
1.33
8.67
-1.33
-2.0
2.33
4.0
6.0
9.67
9.0
1.0
7.67
0.67
0.0
-3.33
6.0
3.33
2.0
-1.0
2.0
7.0
1.33
3.67
-0.67
-3.33
3.33
0.0
6.67
9.67
2.0
-1.67
-1.0
-0.67
0.67
-1.33
2.67
-2.0
3.0
3.33
6.33
7.0
5.0
6.0
2.33
6.0
4.0
-4.67
5.0
3.67
0.67
1.67
7.67
-1.0
0.33
-5.33
2.67
1.67
5.67
3.67
2.33
1.0
10.67
1.0
0.67
-2.33
7.67
10.0
1.67
2.67
0.33
1.0
4.0
0.33