File: EDX Back Ups and Old Files/Spectra copy 3.3.23/Samples/Low pH SF 25C 6d/6.5.txt
0.0
-21.33
22.0
61.33
94.33
57.0
16.67
2.0
63.33
-12.0
-8.67
-5.33
6.0
1.33
2.33
3.33
-0.67
2.0
-2.67
0.0
-0.67
-0.33
0.67
0.0
0.0
1.0
2.0
0.0
0.0
-0.67
0.67
0.0
1.0
-1.0
-0.33
1.67
0.0
-0.33
-0.67
0.0
2.0
-1.33
2.33
0.33
0.67
-1.33
1.67
-0.67
1.0
2.67
-2.33
0.67
0.33
1.67
0.0
3.0
2.33
3.67
2.0
0.0
2.67
0.67
0.67
-5.0
6.33
-0.67
1.0
4.33
1.33
-1.67
7.0
-1.0
6.67
0.67
5.67
-3.0
-3.67
0.67
6.0
-2.67
5.67
7.33
6.67
7.67
-0.67
2.33
-5.0
2.0
2.67
-0.33
1.67
-5.33
1.67
7.67
9.33
-0.67
-2.0
-2.33
8.67
8.33
5.0
-0.67
3.33
4.67
-1.0
-4.0
7.0
1.0
5.0
3.67
-5.0
-1.67
2.67
0.0
-1.67
3.33
-1.67
14.0
4.0
3.33
-3.0
3.67
5.0
-2.67
3.0
12.67
5.67
4.67
7.33
4.33
1.33
5.0
-5.0
-0.33
3.33
0.67
5.33
-4.0
4.33
0.0
7.67
-1.33
6.33
-1.0
1.67
3.0
1.33
2.67
-2.33
3.0
4.33
4.33
3.0
3.33
0.67
3.67
4.33
-1.0
5.0
-1.67
3.67
3.33
6.33
10.67
6.33
3.0
4.67
2.0
6.0
-3.33
9.33
3.67
1.67
2.33
15.67
5.0
6.33
-0.67
4.67
-4.67
4.67
2.67
2.33
9.0
11.0
5.33
2.67
3.67
2.0
0.0
-2.0
0.33
-4.67
5.67
2.33
-1.33
6.0
1.67
2.67
1.67
0.67
1.33
6.33
-2.0
1.67
-3.67
3.67
-0.33
-0.33
3.67
6.67
9.0
2.33
-0.67
10.33
-0.67
6.67
6.67
2.0
-3.0
2.67
3.33
3.33
1.0
3.67
-0.67
2.33
3.33
1.67
-2.67
-2.0
2.33
4.0
2.0
-0.33
5.33
-3.33
0.0
4.67
-2.67
4.33
4.67
4.0
5.67
-1.33
3.0
0.0
3.33
0.0
-1.33
6.0
2.0
-2.0
3.33
-1.67
1.0
4.0
4.67
7.0
-0.33
3.67
2.67
-2.33
4.0
5.0
-4.33
-1.33
6.0
-1.33
1.0
2.33
2.67
2.67
3.0
1.0
4.33
6.67
1.67
4.67
4.33
2.0
4.67
2.33
2.67
-1.0
3.0
5.67
-0.33
2.67
2.0
0.0
-2.33
-2.33
1.33
-2.67
3.67
4.33
2.0
2.0
-0.33
2.33
-0.67
3.0
2.0
4.33
2.0
5.0
-1.0
2.33
-2.0
-0.33
-2.0
2.0
0.67
-5.33
1.67
4.67
-2.67
9.0
-1.67
-1.33
-4.67
-3.0
0.33
-4.33
0.0
1.33
0.0
-0.67
-3.67
-1.67
-1.33
1.33
1.0
3.0
6.67
-1.0
-2.0
-1.33
-4.0
-1.33
2.0
-2.67
-6.0
0.33
-1.0
3.67
1.0
-4.0
4.33
-2.33
-3.67
-6.33
-3.0
-5.33
-3.0
-4.67
-2.0
-2.33
-5.67
-3.33
-4.0
-6.67
-4.33
-3.33
-6.67
-1.0
-2.33
-1.33
-9.33
-0.67
-6.0
-7.0
-1.0
-12.0
-9.67
-7.67
-2.67
-6.33
-0.67
2.67
5.0
-0.67
5.33
-6.67
1.33
-2.33
-7.67
0.67
-4.33
-7.67
0.0
-4.0
1.33
0.0
-2.33
2.0
-3.0
2.67
-9.0
-6.67
-2.67
-1.67
-8.33
-1.33
-6.67
-4.67
1.0
-3.33
-2.67
-1.67
-11.0
-4.33
-3.33
-5.33
-5.67
-7.0
-5.33
-0.67
-6.33
-4.33
-4.67
4.67
3.33
-4.0
-2.33
-1.67
-1.67
-2.0
2.33
2.67
2.67
3.67
-1.0
0.67
-2.67
-0.33
2.67
-2.67
-5.0
1.67
-4.33
1.67
-3.67
-10.67
-0.33
1.67
6.0
5.33
-4.33
5.67
-1.67
-3.0
2.33
-7.0
1.67
5.0
-2.0
-4.0
-3.33
-5.0
2.0
5.0
1.33
-2.33
3.33
1.33
4.67
17.33
6.33
10.0
20.67
4.67
7.67
-4.0
4.33
3.0
4.0
5.33
-6.0
-2.0
1.0
-4.33
5.67
1.67
-2.0
0.0
-0.67
-5.0
0.67
8.0
7.0
12.33
11.0
7.0
9.0
8.33
8.0
2.33
16.0
5.33
-2.0
3.67
-2.33
-4.33
6.33
2.33
1.67
10.67
8.0
-2.33
4.0
1.0
14.67
5.33
10.67
5.0
5.0
5.0
14.0
11.33
14.67
11.67
10.33
11.33
10.67
7.67
9.0
3.67
12.0
12.0
5.0
13.0
9.33
7.0
7.67
10.67
15.67
9.0
1.67
8.67
24.67
9.67
6.33
1.0
9.0
12.33
19.67
21.67
17.33
11.0
7.33
3.0
4.0
9.67
8.0
11.33
0.33
10.0
8.67
7.67
10.67
7.33
0.33
5.33
1.0
2.67
9.0
9.0
9.33
16.0
14.0
8.33
15.67
22.67
0.0
13.0
10.0
8.0
10.0
12.0
3.33
2.0
16.0
8.67
0.0
22.67
18.33
12.33
20.33
36.33
30.67
43.67
36.33
54.0
38.67
73.0
86.33
72.0
52.67
38.67
43.33
40.67
42.33
34.67
24.67
17.67
9.33
7.33
21.0
16.33
6.67
22.33
30.33
35.0
37.33
35.67
40.67
41.33
44.33
45.0
38.67
24.67
38.67
40.67
38.0
38.0
27.67
43.0
38.67
34.67
35.67
37.33
31.0
10.0
15.67
5.67
2.0
16.33
17.67
3.33
2.67
0.0
-2.33
2.33
7.33
9.0
8.33
15.0
13.67
9.0
10.0
-5.0
12.67
21.0
11.0
29.33
14.33
19.33
19.67
20.0
21.0
8.67
23.0
18.0
17.67
9.0
28.33
16.0
38.0
10.33
-4.0
11.0
21.33
8.67
15.33
23.0
12.67
8.33
7.67
10.67
9.33
15.33
6.0
20.0
18.67
11.33
17.0
17.33
16.67
13.67
16.0
15.67
17.33
6.33
1.0
10.67
5.0
13.67
3.0
0.67
20.0
7.33
-3.67
0.67
3.33
7.33
10.0
-9.67
8.67
1.67
5.67
2.67
1.67
7.67
3.67
-7.67
21.33
17.33
22.67
9.0
7.0
-0.33
13.67
14.0
18.33
-4.33
0.67
8.0
17.0
13.0
3.33
7.67
13.0
4.33
4.67
9.67
0.0
12.67
0.67
13.67
-3.0
12.33
2.33
7.67
14.0
4.33
-8.0
12.33
7.67
18.67
3.0
4.0
9.0
12.33
10.33
9.33
7.67
9.0
9.33
6.33
2.67
6.33
-2.67
10.67
14.67
6.67
-1.0
6.0
7.67
7.67
8.67
6.67
12.0
10.0
16.33
7.0
11.33
10.33
8.33
9.33
7.67
2.33
10.67
25.0
-2.0
1.0
1.67
0.33
13.33
10.0
19.33
11.0
17.67
-3.67
5.67
1.0
6.33
2.0
15.0
9.0
14.33
11.33
5.0
10.33
3.67
6.0
19.0
2.33
13.0
13.67
11.67
10.67
19.0
7.0
6.0
10.0
-2.67
1.0
10.33
19.67
11.33
34.33
-2.0
0.67
7.67
3.0
13.67
0.0
2.0
9.33
8.33
-0.67
6.33
-4.33
-3.33
6.67
12.33
7.67
8.67
13.33
-1.0
4.0
-2.33
2.67
8.33
4.67
-1.33
-2.33
5.0
13.0
11.0
9.0
-4.67
-1.67
7.33
12.67
3.67
-0.33
-1.67
5.67
-4.33
-0.33
3.67
1.33
-2.0
-6.33
7.0
-6.67
3.0
9.0
18.0
3.0
14.67
-1.0
4.33
6.67
-6.0
1.33
5.67
12.67
3.33
9.67
-0.33
3.33
-0.67
-0.67
3.67
2.67
3.33
-6.33
-1.0
7.0
1.33
5.67
3.67
1.67
3.33
6.0
8.33
-2.33
0.33
11.67
7.67
7.0
-2.0
1.33
6.33
4.0
5.67
-0.67
4.33
12.33
3.33
2.33
6.0
9.33
-0.67
2.67
-6.33
-1.33
1.67
-0.33
3.67
-8.33
4.33
8.33
8.67
4.0
-5.0
14.33
-1.67
9.0
1.67
2.33
3.67
7.0
0.0
8.33
4.67
2.67
6.67
6.67
10.67
2.0
0.0
-5.33
1.33
-2.33
-0.67
5.0
5.33
-3.67
8.33
7.67
-2.33
0.0
-4.67
-2.0
-1.0
12.67
8.0
1.0
1.67
-0.33
1.0
5.67
6.0
-2.67
3.0
1.0
3.0
7.0
5.33
-2.33
3.33
0.67
2.33
4.0
2.67
1.67
-3.0
-5.67
1.0
-1.67
-3.33
3.67
2.67
-3.0
4.0
3.33
-2.67
4.0
9.0
1.0
-1.67
8.0
3.0
-3.67
2.0
8.67
3.67
-3.33
-0.33
-3.0
-3.67
-4.33
7.67
1.67
0.67
4.67
0.33
4.0
-6.33
1.0
0.67
4.67
5.67
0.0
2.67
6.67
2.33
5.0
1.0
3.33