File: EDX Back Ups and Old Files/Spectra copy 3.3.23/Samples/Low pH SF 25C 6d/7.75.txt
0.0
21.67
67.0
87.33
-17.67
69.0
109.67
0.0
-26.67
-26.0
11.33
2.67
15.0
2.33
-4.67
-6.67
-1.67
-2.0
-2.67
1.0
0.33
-0.33
-0.33
1.0
1.0
0.0
2.0
0.0
2.0
-0.67
0.67
0.0
0.0
0.0
0.67
0.67
3.0
-0.33
0.33
1.0
0.0
0.67
0.33
0.33
-0.33
-0.33
-0.33
-0.67
0.0
0.67
-2.33
-0.33
2.33
-2.33
-1.0
-1.0
3.33
2.67
2.0
1.0
4.67
0.67
0.67
-3.0
0.33
-2.67
3.0
8.33
2.33
1.33
0.0
-5.0
7.67
0.67
10.67
4.0
1.33
-1.33
-7.0
-5.67
6.67
-0.67
0.67
3.67
4.33
8.33
-1.0
3.0
0.67
8.67
-0.33
-0.33
4.67
3.67
3.33
-0.67
4.0
0.67
4.67
6.33
9.0
4.33
-1.67
6.67
-1.0
-1.0
1.0
13.0
0.0
1.67
0.0
2.33
7.67
0.0
4.33
4.33
0.33
1.0
4.0
4.33
3.0
-0.33
4.0
-1.67
6.0
-0.33
7.67
9.67
9.33
11.33
8.33
7.0
-4.0
2.67
7.33
5.67
4.33
-2.0
8.33
-2.0
1.67
-4.33
4.33
1.0
4.67
3.0
5.33
1.67
0.67
1.0
1.33
1.33
2.0
6.33
4.67
6.67
-0.67
9.0
7.0
2.33
0.67
7.33
10.33
5.67
1.33
1.0
2.67
-1.0
4.0
0.67
9.33
6.67
1.67
3.33
4.67
6.0
4.33
-0.67
4.67
-1.67
2.67
-2.33
2.33
-2.0
9.0
-0.67
-0.33
8.67
5.0
1.0
-2.0
4.33
1.33
-0.33
6.33
-3.33
2.0
2.67
2.67
1.67
-1.33
4.33
2.33
-3.0
-0.33
3.33
-0.33
4.67
1.67
3.67
6.67
-2.0
5.33
-2.67
7.33
3.33
0.67
8.67
0.0
1.0
0.67
0.33
3.33
-3.0
-1.33
3.33
4.33
8.33
5.67
-0.67
3.0
-2.67
4.0
3.0
2.67
-1.67
-2.33
1.0
1.67
-2.67
-3.67
-0.33
0.0
2.67
2.67
-3.0
5.0
1.33
1.0
9.67
1.0
2.0
0.0
1.33
-2.67
5.0
-1.0
2.67
3.0
-0.33
2.67
-1.33
-2.33
-4.0
3.0
-0.33
-3.33
0.0
-0.33
-1.0
-1.67
6.67
1.67
3.0
0.0
5.33
7.67
-2.33
1.67
0.33
1.0
2.67
3.33
-1.33
-4.0
-2.0
-0.33
-4.33
-1.33
0.0
1.0
-1.33
1.67
6.33
1.33
4.67
0.33
-3.0
3.0
-1.33
0.33
-0.67
1.0
1.0
0.33
1.0
-1.0
1.0
-3.67
0.0
6.67
-1.0
1.0
-4.33
-4.33
2.67
0.67
-1.67
-1.0
-1.67
-0.33
-0.67
-5.0
-2.67
5.67
1.0
1.33
-2.0
-2.67
-3.67
-0.67
-2.33
2.33
-1.0
-1.0
0.67
-3.0
-5.0
-1.33
-5.0
0.67
-3.0
3.33
-3.0
-4.67
-1.0
-2.33
-1.0
-3.0
-0.67
4.67
-3.67
-4.33
-2.0
-0.33
-4.0
-6.67
-1.0
0.67
-0.67
-6.33
1.0
-7.67
-6.33
-5.33
-4.67
-3.0
-3.33
-2.33
-1.33
-3.67
4.0
-6.0
-8.0
-5.0
-9.67
-3.67
-3.67
-3.33
-0.67
-0.33
1.0
-4.67
-2.67
-7.67
1.33
-9.33
-3.67
-3.33
-5.33
-3.67
6.0
-10.0
0.33
5.0
-3.33
0.0
1.0
-3.33
-4.0
-0.67
-6.67
-5.67
2.67
-6.33
2.33
3.33
-3.0
-0.33
-1.67
-0.67
-5.0
0.67
-6.33
1.67
-3.67
-2.0
-8.33
-3.67
-3.33
-2.33
-2.67
2.67
1.33
-4.0
2.67
-2.67
1.33
-6.0
-7.67
1.67
1.67
-3.33
-5.0
-9.33
-2.67
-5.33
-5.33
-4.67
-1.0
-5.33
-0.33
-6.33
-5.67
1.33
1.67
-0.33
-2.0
0.33
1.67
0.67
-7.67
-1.0
2.33
1.0
-1.33
1.0
-1.0
-13.0
7.67
2.0
-6.0
1.0
6.33
3.67
9.33
17.33
16.67
30.33
32.33
21.0
13.67
21.67
16.67
7.0
6.33
-3.0
4.0
0.33
-4.0
6.0
-1.0
-4.33
1.67
-4.33
2.0
-4.0
13.33
5.0
-2.33
7.0
-1.0
6.33
17.0
15.0
22.0
11.33
9.0
-1.67
7.0
-0.67
1.0
1.67
-11.33
-1.33
0.33
3.33
4.67
4.67
18.0
18.67
10.0
6.0
6.67
-3.67
0.67
-3.0
8.0
11.0
10.0
10.33
5.67
2.67
11.33
10.33
15.67
10.67
11.0
22.67
28.0
30.0
31.0
30.0
23.33
20.0
7.67
6.67
12.67
5.0
17.67
4.67
14.67
15.67
24.33
8.0
13.0
21.33
18.67
15.67
19.33
15.0
8.33
9.0
6.0
13.67
9.0
13.33
10.33
8.0
6.67
4.67
14.67
5.33
6.33
8.33
12.0
4.67
12.0
15.0
4.33
8.0
13.0
14.33
33.67
25.67
11.0
9.0
15.0
18.0
9.0
16.0
3.33
17.0
4.0
11.67
21.0
20.67
26.33
39.33
52.33
63.33
105.67
118.67
173.33
195.0
278.67
348.0
361.33
398.0
381.67
339.67
233.33
176.67
140.33
91.67
70.67
35.67
35.33
35.33
18.0
28.33
26.67
13.33
13.33
22.0
18.33
22.67
14.67
35.33
23.33
28.0
22.67
46.67
30.67
41.67
36.0
36.0
42.67
32.0
46.67
32.67
32.67
20.33
30.0
21.0
15.67
5.67
21.0
-1.67
5.67
3.33
7.67
10.0
2.67
8.33
11.33
7.0
9.33
22.0
14.67
10.0
4.0
4.0
10.67
10.0
7.0
18.33
25.33
18.33
21.67
18.0
12.0
17.67
23.0
10.0
29.67
16.0
31.33
21.0
17.0
31.33
8.0
10.0
13.33
13.67
11.33
22.0
12.67
9.33
20.67
22.67
14.33
26.33
22.0
28.0
30.67
33.33
44.0
35.33
31.67
19.67
32.0
11.67
18.33
18.33
13.0
17.67
3.0
12.67
6.0
11.67
19.0
10.33
-3.67
12.67
-5.67
-1.67
21.0
8.33
14.67
0.67
17.67
8.67
0.67
17.67
4.67
8.33
19.33
18.33
7.67
0.0
12.0
2.67
4.67
8.0
5.33
-3.33
13.67
10.0
9.0
15.0
6.33
7.67
15.0
4.33
17.67
11.67
6.0
12.67
1.67
2.67
8.0
0.33
-0.67
7.67
4.0
4.33
-1.0
6.33
18.67
2.67
6.0
-2.0
15.0
4.33
14.33
7.33
4.67
5.0
2.33
-2.67
0.67
16.33
6.33
-6.33
6.67
5.67
13.0
-1.0
5.67
7.67
11.67
5.67
14.0
10.0
6.33
-4.0
15.33
2.33
1.33
-0.67
0.67
10.33
7.67
15.0
-4.0
8.0
20.67
4.33
19.33
11.0
19.33
-4.0
-0.33
13.33
21.67
11.0
2.33
11.0
4.0
0.0
13.33
19.33
6.0
7.33
16.67
9.0
13.0
5.33
25.0
15.67
18.67
11.67
22.0
25.0
13.0
10.0
13.33
11.0
7.33
6.67
-2.67
17.33
11.0
-3.33
2.67
13.0
3.67
-2.0
-5.0
16.33
3.33
8.33
6.33
12.67
-2.33
7.67
-3.67
5.67
0.67
0.33
-1.0
-2.0
1.67
1.67
11.33
9.67
-0.33
-4.33
18.0
4.0
7.0
7.0
-0.67
4.33
7.33
-2.33
16.67
-5.33
1.33
-2.33
2.67
-0.33
-5.33
-2.67
-2.0
-7.33
6.0
-0.67
0.0
5.0
4.0
-2.0
3.67
-7.0
2.33
12.67
5.0
-1.67
-9.33
7.67
-3.67
3.67
-2.33
0.33
-0.67
-6.67
8.67
-10.33
-2.67
-6.33
2.0
10.0
5.33
-5.33
2.67
-2.33
7.33
3.0
3.33
-3.33
4.33
-5.33
-6.33
2.0
5.0
2.33
1.33
8.0
2.67
5.33
-5.67
-3.67
7.33
3.33
-3.0
1.33
-4.67
-2.33
3.67
8.67
-0.33
4.67
-3.33
-5.33
2.33
-0.67
2.67
5.0
3.0
-0.67
-3.67
3.0
-2.33
7.33
10.67
6.0
-1.0
6.33
3.67
3.67
7.67
-0.33
2.67
1.0
7.0
-0.33
-0.67
-8.33
-2.67
2.0
4.33
0.33
6.33
2.67
-4.33
0.0
-0.67
-7.0
3.0
-2.33
6.0
3.0
7.67
10.67
4.0
1.67
7.0
-2.67
6.0
-3.0
1.0
4.0
9.33
2.67
-1.67
4.67
7.33
0.0
8.67
3.67
-2.0
3.33
1.0
3.33
2.67
-1.33
1.67
0.0
4.0
-2.67
6.33
2.0
4.0
1.0
6.33
7.0
4.0
-1.67
6.0
8.67
-2.33
6.67
4.67
-2.0
3.33
1.67
7.67
1.67
0.67
-0.33
3.33
5.0
-3.33
4.0
-0.33
-1.33
1.67
3.0
10.67
0.67
-1.67
0.0
2.0
1.33