File: EDX Back Ups and Old Files/Spectra copy 3.3.23/Samples/Low pH SF 25C 6d/9.0.txt
0.0
-56.33
56.0
46.33
20.33
-36.0
61.67
-29.0
30.33
-6.0
26.33
-13.33
9.0
1.33
8.33
5.33
2.33
-4.0
-3.67
-1.0
0.33
0.67
-0.33
0.0
0.0
0.0
1.0
0.0
2.0
0.33
-0.33
0.0
0.0
0.0
-0.33
-0.33
0.0
0.67
-0.67
0.0
0.0
-1.33
-0.67
-0.67
-0.33
-1.33
0.67
1.33
2.0
0.67
-1.33
-0.33
-1.67
-2.33
-1.0
2.0
0.33
3.67
0.0
-1.0
-1.33
-0.33
-1.33
-2.0
6.33
3.33
-1.0
2.33
-0.67
-1.67
5.0
-3.0
4.67
-5.33
0.67
-4.0
8.33
4.67
0.0
9.33
7.67
3.33
2.67
4.67
8.33
2.33
3.0
-2.0
5.67
1.67
4.67
1.67
-0.33
1.67
6.33
1.33
4.0
0.67
8.67
1.33
6.0
3.33
0.33
0.67
2.0
-1.0
6.0
3.0
4.0
2.67
-3.0
4.33
-0.33
2.0
-5.67
-0.67
-1.67
-1.0
8.0
3.33
4.0
-2.33
5.0
3.33
1.0
10.67
4.67
5.67
5.33
-0.67
3.33
2.0
2.0
-1.33
5.33
4.67
0.33
2.0
5.33
7.0
3.67
6.67
7.33
5.0
3.67
4.0
2.33
1.67
0.67
-5.0
-2.67
4.33
11.0
-2.67
3.67
7.67
-1.67
1.0
8.0
-0.67
1.67
4.33
4.33
6.67
-1.67
1.0
5.67
-6.0
3.0
0.67
3.33
2.67
-4.33
3.33
-1.33
4.0
3.33
-5.67
3.67
-4.67
0.67
0.67
0.33
2.0
5.0
0.33
3.67
0.67
8.0
6.0
2.0
2.33
-0.67
6.67
8.33
-0.33
-4.0
3.67
2.67
1.67
-0.33
5.33
3.33
-4.0
0.67
-2.67
2.67
-2.33
5.67
3.67
7.67
0.0
-0.67
-3.67
0.33
1.33
-2.33
2.67
0.0
-3.0
1.67
-2.67
3.33
-1.0
2.67
-1.67
7.33
1.33
3.67
2.33
1.0
-0.67
1.0
2.0
0.67
4.33
3.67
-3.0
1.67
0.33
-1.67
0.67
0.0
-1.33
-1.33
-5.0
-3.0
5.33
-1.0
-0.33
9.0
8.0
-1.0
1.33
-0.67
1.0
0.0
-0.33
-1.0
2.67
7.67
2.67
-1.33
1.0
2.0
-1.33
-0.33
0.0
-2.33
-3.0
0.33
-0.33
0.67
3.0
3.0
0.33
2.67
-3.33
2.67
-0.67
4.0
1.67
-3.67
1.67
-1.0
1.0
-1.33
2.67
-0.33
2.0
-4.0
5.67
2.67
-1.67
0.33
-1.33
2.33
-1.0
1.0
-0.33
-0.67
5.33
1.0
-2.0
0.33
-1.0
5.0
0.0
-0.67
1.0
-2.33
-3.0
0.0
1.67
0.67
-0.33
1.67
-1.67
0.0
0.33
-1.33
-6.67
2.0
-3.67
-1.33
-2.0
-2.67
0.0
-2.67
-3.67
-5.67
-4.33
0.33
-1.0
1.0
-4.33
-3.0
3.0
-1.33
-3.0
-2.33
3.0
-3.67
0.0
-1.67
4.0
-3.33
-2.0
-1.0
-0.67
0.67
0.33
-1.33
-1.0
-6.33
1.0
-5.67
-4.0
-5.33
-4.67
-6.33
-3.0
-5.67
-3.33
-0.33
-4.67
1.0
1.67
-1.33
-7.33
-4.67
-2.0
-1.0
-4.0
-8.0
-1.67
-3.67
0.33
-2.33
-0.67
-0.33
6.0
-6.67
-2.67
-10.67
4.33
0.67
-2.67
-7.33
-5.33
-1.67
4.0
-1.0
-2.67
-3.0
-0.33
-3.0
-1.0
1.67
-6.0
0.33
-3.67
-3.67
-6.33
-9.33
-0.67
-2.67
-3.0
0.67
-6.67
-3.67
-9.0
-5.33
-6.33
0.67
-2.67
-1.0
-6.33
-0.67
-10.33
-0.33
-7.67
-1.33
-2.67
4.0
-0.33
-9.67
-7.67
-7.0
-2.67
-2.33
1.67
0.67
-2.0
-1.33
-2.67
4.67
-1.33
-0.67
-2.0
-6.33
-5.33
-9.33
2.33
-5.67
10.67
-4.33
5.0
6.33
3.67
-3.33
-6.67
-4.0
-2.67
-3.0
-9.33
0.0
6.0
-4.0
-2.33
-1.0
-1.0
-1.0
3.33
6.67
18.33
11.33
21.67
15.33
58.33
43.0
47.67
48.67
36.67
20.0
10.33
9.0
6.0
7.33
-3.0
4.0
2.0
-0.33
7.67
1.67
-3.0
8.0
3.33
5.0
2.67
16.0
3.0
28.33
31.0
26.0
50.0
46.33
37.0
48.33
45.0
17.33
22.0
10.67
8.67
4.67
8.33
1.33
-3.33
11.67
-1.0
7.67
3.0
6.0
13.67
23.33
8.67
16.0
20.0
19.0
19.0
11.33
9.67
12.67
12.33
22.33
25.67
24.67
23.0
30.67
14.0
6.0
24.0
20.0
30.33
16.0
25.67
13.67
14.67
13.0
12.67
10.67
8.67
12.67
18.33
8.0
13.0
18.33
15.67
20.67
9.33
16.0
12.33
7.0
16.0
3.67
12.0
16.33
1.33
15.0
4.67
16.67
2.67
5.33
7.33
7.33
6.0
5.67
6.0
8.0
11.33
7.0
12.0
-4.67
30.67
20.67
9.0
10.0
14.0
15.0
25.0
13.0
13.33
5.0
8.0
10.67
-3.0
15.67
12.33
21.33
26.33
28.33
33.67
38.67
80.33
86.0
123.67
155.0
238.33
283.0
282.67
276.67
295.33
238.67
196.33
158.67
110.67
52.67
40.33
31.33
25.0
29.33
16.67
20.33
21.33
14.0
26.33
20.67
34.67
21.33
42.33
45.0
37.67
36.67
35.67
29.67
34.0
17.0
13.67
28.0
20.67
21.67
10.67
11.33
18.0
9.0
12.67
14.67
10.0
13.33
9.67
9.33
8.67
12.0
-9.33
17.33
2.33
21.0
12.33
7.0
16.67
7.0
8.0
5.0
11.67
11.0
24.0
20.33
25.33
26.33
38.67
26.0
30.0
28.67
11.0
37.0
18.67
27.0
28.33
19.0
10.0
10.33
24.0
19.0
16.33
12.67
5.33
11.0
6.67
11.33
15.67
17.67
34.33
15.33
10.0
18.0
22.67
11.33
11.0
10.33
14.67
7.67
14.0
6.67
5.33
11.33
14.0
18.67
6.0
17.67
14.0
-5.33
11.0
-8.67
13.33
-13.33
7.33
8.33
11.0
7.33
3.67
10.67
14.67
11.67
2.67
12.67
3.67
9.33
11.33
17.33
10.67
3.0
17.0
1.67
11.67
4.0
5.33
5.67
3.67
9.0
8.0
20.0
14.33
12.67
10.0
5.33
7.67
12.67
8.0
9.67
2.67
8.67
2.0
3.33
9.33
4.67
15.0
4.33
9.0
8.33
14.67
12.67
11.0
11.0
19.0
6.33
5.33
14.33
-3.33
4.0
4.33
-2.67
8.67
0.33
14.33
2.67
15.67
6.67
12.0
1.0
6.67
3.67
14.67
10.67
8.0
13.0
15.33
12.0
7.33
3.33
9.33
7.33
0.67
11.33
2.67
4.0
-7.0
3.0
6.67
-2.67
13.33
1.0
14.33
-3.0
17.67
-8.67
-1.33
4.0
6.33
2.0
15.0
4.0
17.33
17.33
15.0
18.33
3.67
4.0
14.0
0.33
17.0
10.67
5.67
-12.33
8.0
4.0
0.0
5.0
3.33
11.0
-1.67
5.67
3.33
5.33
0.0
3.67
14.67
10.0
0.67
1.0
3.0
4.33
12.33
11.33
4.33
6.67
-1.33
1.67
-0.67
8.67
-4.33
-7.67
5.0
6.0
-3.33
-12.33
10.33
1.67
-5.33
-2.33
1.0
-5.0
-1.0
12.0
11.33
4.33
3.33
12.67
5.67
6.67
-1.67
4.67
4.67
6.67
-7.33
1.33
2.0
-12.33
4.0
-5.67
2.0
10.0
9.0
7.0
4.67
11.0
7.33
11.67
-1.0
-4.67
7.67
12.67
-3.67
7.67
-1.33
7.33
3.33
-1.67
8.67
-4.33
-6.67
2.67
4.0
7.0
1.33
0.67
-4.33
-2.33
-1.67
0.0
-6.67
-0.33
-6.67
-3.33
-6.33
1.0
-2.0
-0.67
0.33
0.0
-2.33
2.33
-2.67
5.33
-0.67
4.33
0.0
2.33
1.33
7.67
4.67
5.67
-1.33
0.67
6.67
3.67
-2.67
14.33
5.67
3.0
-2.0
2.33
-2.67
2.0
2.67
0.33
1.67
2.0
5.0
1.33
6.67
13.67
12.67
1.67
4.67
3.0
9.0
-1.33
2.33
1.67
6.33
2.0
-0.67
-6.67
2.33
3.67
1.67
1.0
4.33
4.0
-2.0
2.67
8.0
5.0
8.67
-2.33
0.0
-2.33
-1.0
0.33
-1.0
1.0
2.0
4.0
0.33
-0.33
2.33
1.67
-0.67
-2.0
3.67
3.67
2.0
-1.67
6.0
8.33
8.67
-2.33
11.67
3.0
10.0
-0.67
0.33
9.0
8.0
-6.0
9.33
7.0
-4.0
-0.67
-2.0
8.67
-0.33
-3.33
9.67
-2.0
2.33
-3.33
5.67
-1.33
5.67
-3.33
-0.67
1.0
-3.33
0.0
-2.33
2.67
2.67
5.0
4.67
-3.33
4.33
5.0
3.0
4.33