File: EDX Back Ups and Old Files/Spectra copy 3.3.23/Samples/Low pH SF 60C 2d/10.0.txt
0.0
84.67
7.0
-44.67
1.67
-12.33
-56.67
41.33
8.33
-13.0
4.33
7.67
2.67
17.0
18.33
-8.0
5.0
-1.67
1.0
-0.33
-1.33
0.0
-0.33
-0.33
-1.33
0.67
1.0
0.0
-0.67
-0.67
-0.33
0.0
1.0
0.0
-0.33
-0.67
0.67
1.0
0.0
0.67
1.67
1.67
-0.33
0.33
-0.33
-1.33
1.0
-0.33
-0.67
0.33
-2.33
0.33
-0.67
-1.0
0.33
-0.33
0.33
-4.33
0.33
0.33
2.33
-2.0
1.67
-2.0
-1.33
0.67
1.33
5.33
-2.33
2.67
0.67
0.33
-1.33
-2.33
12.0
-5.0
0.33
-5.33
2.0
3.0
-1.33
2.33
0.33
-1.33
-3.67
-3.67
10.67
-1.67
5.33
2.33
2.33
2.0
3.33
3.67
4.67
1.67
-3.33
5.0
2.0
1.33
8.67
3.0
3.0
1.33
-5.33
-0.33
6.67
6.67
7.67
-2.0
-3.33
-1.33
7.0
2.0
4.67
4.0
-3.33
6.33
3.67
-8.67
6.0
4.0
7.33
6.67
2.0
10.33
4.67
-4.67
-2.67
0.67
4.33
-4.67
-1.33
3.33
-3.0
5.67
0.67
2.33
-2.67
-0.33
0.67
6.0
5.0
0.0
-2.33
6.0
-7.0
-5.67
5.67
-2.67
4.33
8.0
9.67
9.0
0.67
-1.0
1.0
11.0
2.33
-0.67
-4.0
3.33
2.33
0.0
-0.67
2.67
0.67
6.0
-3.0
3.33
-2.33
-0.33
8.0
-0.33
-1.33
-2.67
0.67
7.33
2.0
-2.0
-5.67
-0.67
-1.0
-3.0
-2.33
-1.33
6.0
-1.67
0.0
-1.0
0.67
-4.67
0.33
1.67
4.67
2.33
3.0
4.33
0.67
0.67
4.0
0.33
-1.67
-0.67
4.33
4.0
-0.33
1.33
4.0
-4.0
-1.67
5.0
3.0
4.33
-3.0
-3.0
0.0
-2.33
2.67
-2.67
-3.33
2.67
-1.67
1.33
3.67
-1.67
-3.0
11.0
0.0
-2.67
3.33
0.33
-0.33
9.0
-3.0
-2.67
1.33
0.67
1.33
1.67
1.33
1.67
-2.33
-2.33
-0.33
1.33
3.67
-2.33
0.33
3.33
2.33
-1.0
2.33
1.0
-1.67
3.0
3.33
2.33
-3.67
0.33
4.0
3.33
7.0
3.33
3.0
5.33
1.33
1.67
-1.0
-1.0
0.0
2.67
-3.33
-2.33
4.67
3.0
1.67
-7.67
2.67
-3.0
-1.33
-3.0
-3.0
0.33
4.33
4.33
3.67
0.33
-6.33
1.33
4.0
-3.0
0.0
2.0
1.33
4.0
2.67
2.33
-1.67
-4.0
2.33
3.33
-1.67
4.0
1.67
0.67
2.33
-0.67
-1.67
-1.0
0.0
-0.67
1.0
-2.33
-3.67
-3.33
-2.0
4.33
-2.0
0.0
3.0
-1.33
0.33
-1.67
1.33
1.33
-4.0
4.0
-0.67
-6.67
0.33
0.33
0.33
-3.33
0.67
-4.67
-1.0
-2.0
0.0
0.33
-5.0
1.67
8.33
1.67
-0.33
-4.67
-4.0
-2.33
-3.0
-5.33
-2.33
-4.67
1.67
-5.67
-4.0
-2.0
-2.67
-3.0
0.0
-1.67
-0.33
-2.0
-3.0
-6.0
-0.33
6.0
-5.67
4.33
-1.33
-5.67
-2.0
-10.33
-4.0
8.0
-3.33
-7.33
-6.0
-3.33
-6.33
-1.0
3.67
-0.67
-0.67
-3.33
-5.67
-4.67
-0.67
-6.33
-1.0
-8.33
1.33
-6.0
-6.0
-1.33
-2.0
-3.0
-8.33
-5.0
0.0
-1.33
-1.0
-6.0
6.33
4.33
-2.0
-8.67
-1.33
1.33
-4.67
4.0
-4.33
-0.33
-11.33
-4.67
-1.33
-10.33
-4.33
-7.0
-3.33
-0.67
-4.33
-6.67
-11.0
-2.0
-4.0
2.0
5.0
-5.67
7.33
2.67
-7.67
-5.67
-1.0
-1.67
-5.33
-0.67
1.33
-3.67
10.0
-6.67
4.67
4.33
-0.33
5.0
-10.0
-9.0
-2.67
-4.33
-4.67
5.67
-3.67
9.0
3.33
-3.67
3.33
2.67
-1.33
2.0
-3.33
-3.67
10.67
20.67
22.67
26.67
28.67
34.0
26.0
33.0
23.33
22.0
29.33
29.33
10.0
4.33
6.67
6.67
4.67
-2.0
8.0
-2.67
7.33
-5.33
6.33
9.33
6.0
3.0
7.33
14.67
10.0
16.67
22.67
38.67
23.0
20.33
18.0
16.33
28.33
19.67
11.67
14.67
11.67
1.33
4.0
10.33
8.67
4.0
12.0
8.67
9.33
6.33
8.67
8.33
6.0
21.33
-2.67
1.67
5.67
-4.67
23.67
4.67
4.67
20.33
17.33
22.67
15.33
20.67
26.33
27.33
36.67
49.0
43.0
70.33
33.33
50.67
35.67
36.0
23.67
14.0
21.0
18.33
8.33
19.0
25.33
20.33
20.0
23.0
28.67
18.0
40.33
34.0
37.67
25.33
26.67
5.0
8.33
12.33
13.67
11.0
6.67
14.0
4.67
11.0
11.0
4.67
12.67
8.67
9.67
10.0
2.0
15.0
12.67
16.67
26.33
10.67
13.33
19.67
7.0
11.67
8.67
10.33
21.0
16.0
14.0
-1.33
11.33
5.0
5.67
9.0
20.67
22.33
12.67
25.0
37.67
39.0
45.33
54.0
72.0
76.0
83.67
66.0
79.0
58.33
48.67
36.33
33.67
27.0
23.33
24.33
18.67
14.33
15.0
13.67
21.0
26.0
26.33
36.0
28.0
38.67
48.67
48.33
75.33
70.0
72.67
82.67
76.67
69.0
96.0
79.33
75.67
70.67
45.0
36.67
32.33
34.0
28.67
24.33
27.33
14.33
10.67
12.33
-1.0
11.33
7.67
8.33
7.67
1.33
5.0
4.67
9.33
13.67
6.67
11.0
23.0
20.33
30.67
12.0
20.67
30.33
25.33
32.0
33.33
26.33
29.33
29.67
28.33
24.0
13.0
27.33
31.33
44.33
25.33
20.33
27.67
24.0
25.0
19.0
23.67
30.33
29.33
24.0
18.67
26.67
22.67
17.0
12.0
19.0
17.33
13.67
3.0
18.0
8.33
17.67
8.33
8.67
14.0
17.67
-2.67
19.67
12.67
14.0
8.0
9.33
10.0
10.67
-4.67
13.33
10.67
19.0
6.67
10.33
12.33
10.0
20.33
10.67
1.33
11.67
23.33
2.0
9.67
11.0
12.0
0.33
22.0
2.33
20.0
2.33
15.67
7.67
1.33
-6.33
-1.0
25.67
20.67
0.67
20.0
1.67
3.33
8.67
4.33
7.67
-0.33
15.0
3.33
13.33
8.0
-0.33
3.67
2.0
6.0
14.0
-7.0
2.0
8.0
16.33
7.67
-0.67
2.67
8.0
-3.0
3.67
-0.67
-1.67
1.0
-7.33
12.67
2.33
8.33
7.67
1.67
15.33
21.0
-3.0
4.33
11.33
18.33
17.33
5.67
15.67
16.33
11.33
16.0
9.67
25.0
-5.0
27.67
6.0
21.0
9.67
14.33
12.67
22.0
7.0
20.33
34.0
5.33
24.33
0.33
9.67
9.67
5.67
-1.33
9.67
10.0
15.33
23.33
8.0
-10.0
15.67
3.33
-5.33
10.67
1.33
0.33
13.0
16.33
11.33
4.67
7.33
4.67
-1.33
-5.67
7.33
-2.67
7.0
12.0
0.0
4.33
6.67
4.33
14.33
8.0
-2.0
-4.67
1.0
4.33
5.33
0.33
3.0
3.0
3.67
2.0
1.0
2.33
4.67
6.67
0.67
-3.0
7.33
0.67
2.67
-5.0
-2.33
3.33
5.67
-4.67
2.0
-9.33
5.0
-7.67
3.67
7.0
-1.0
-0.33
6.67
5.67
-1.33
-9.67
1.0
1.0
-1.33
12.0
1.33
3.67
4.67
2.0
2.0
17.33
3.0
-4.33
2.33
-2.33
2.67
-1.0
10.33
0.67
0.0
1.67
-4.33
10.0
-1.0
8.33
9.67
3.0
9.33
4.67
4.0
-10.0
6.33
0.33
3.33
1.33
3.67
11.67
-1.67
-1.0
8.0
4.33
7.0
9.33
-6.67
5.0
6.67
-4.0
1.0
5.67
0.67
-4.33
3.67
-1.67
0.0
0.67
-2.33
4.33
0.33
5.33
-2.67
-2.0
4.0
-1.33
-1.67
-0.33
9.33
6.0
12.0
4.0
2.0
1.0
-2.0
0.67
1.67
7.33
1.67
1.67
3.0
3.33
2.33
0.67
-1.67
4.0
5.33
6.33
-3.33
0.0
4.67
-2.33
3.67
1.67
-0.67
-0.33
10.67
-3.67
5.33
-1.67
-0.33
18.0
4.67
1.0
7.0
1.67
2.0
4.67
0.0
0.0
-3.0
3.0
5.0
-0.67
6.33
-3.67
-3.67
-5.33
5.0
-3.67
2.33
-0.67
2.0
2.67
-3.0
7.33
0.0
3.33
3.67
4.33
0.33
3.0
0.33
-1.0
-3.33
-3.67
5.33
0.33
-1.0
-1.0
12.0
8.33
2.0
0.33
-1.0
-0.33
-0.67
2.0
8.33
-1.33
3.0
4.0
2.33
2.33
-5.67
-2.33
6.67
7.33
0.0
7.67
0.67
0.33