File: EDX Back Ups and Old Files/Spectra copy 3.3.23/Samples/Low pH SF 60C 2d/10.25.txt
0.0
55.67
13.0
14.33
13.67
17.67
44.33
31.33
22.33
-21.0
-27.67
14.67
12.67
19.0
7.33
-4.0
-3.0
1.33
5.0
2.67
-0.33
-1.0
0.67
-0.33
0.67
-0.33
0.0
1.0
-0.67
-0.67
0.67
1.0
0.0
0.0
-0.33
-0.67
0.67
1.0
1.0
-0.33
-0.33
-0.33
-0.33
-0.67
0.67
-0.33
1.0
-0.33
-0.67
-1.67
-2.33
-1.67
0.33
0.0
-0.67
0.67
4.33
-1.33
-1.67
-2.67
4.33
1.0
-2.33
-1.0
-2.33
-3.33
0.33
2.33
4.67
0.67
-0.33
-1.67
-2.33
4.67
-2.0
-4.0
5.33
-1.33
0.0
3.0
0.67
7.33
0.33
2.67
0.33
3.33
4.67
3.33
2.33
7.33
-3.67
1.0
4.33
6.67
8.67
1.67
-1.33
2.0
3.0
3.33
-1.33
9.0
5.0
5.33
-4.33
0.67
1.67
0.67
-1.33
7.0
1.67
-3.33
3.0
4.0
0.67
6.0
6.67
5.33
-0.33
4.33
11.0
5.0
3.33
1.67
2.0
6.33
5.67
-4.67
-0.67
0.67
3.33
-0.67
-0.33
0.33
3.0
-2.33
2.67
6.33
1.33
6.67
2.67
1.0
1.0
0.0
-3.33
2.0
3.0
0.33
-1.33
-1.67
8.33
2.0
6.67
1.0
2.67
0.0
-1.0
6.0
3.33
2.33
-1.0
2.33
-4.67
0.0
10.33
-1.33
11.67
5.0
-3.0
5.33
-2.33
-0.33
7.0
-1.33
5.67
-2.67
-5.33
-5.67
7.0
4.0
7.33
2.33
-1.0
-5.0
2.67
0.67
10.0
2.33
2.0
6.0
3.67
-0.67
-0.67
-2.33
2.67
-2.67
0.0
3.33
-2.33
8.67
-3.0
-4.67
-2.67
2.33
-2.67
2.0
6.67
0.33
2.0
1.0
-3.67
2.0
-1.0
10.33
-4.0
1.0
0.0
-0.33
5.67
-4.67
4.67
1.67
0.33
5.33
3.67
-0.67
0.0
2.0
-5.0
2.33
2.33
3.33
3.67
2.0
0.0
-0.67
1.33
4.67
4.33
0.67
2.33
1.67
0.67
-2.33
2.67
0.33
0.67
-6.33
5.33
1.33
-1.67
2.0
-3.67
1.0
0.33
0.0
2.33
2.33
-2.67
-0.67
1.0
1.33
2.0
-1.67
4.0
-1.67
-3.67
-0.33
1.0
2.0
1.0
4.67
-0.33
2.67
-0.33
2.0
2.67
-5.67
1.67
-3.0
0.67
-1.0
-1.0
5.33
-0.67
-2.67
4.67
8.33
-1.33
4.33
3.0
-1.0
-2.0
0.0
3.33
2.0
-2.33
4.33
-3.67
-2.0
1.33
2.33
-2.67
2.0
4.67
2.67
5.33
4.33
-1.67
0.0
2.0
4.33
2.0
-3.33
-0.67
-0.33
0.0
5.33
-1.0
5.0
-2.0
-2.33
-2.67
0.33
1.33
-0.67
-3.0
-1.0
1.33
-4.67
0.33
2.33
-1.67
-3.33
2.67
-1.67
-1.0
0.0
-2.0
-0.67
1.0
-2.33
-4.67
-4.33
-2.33
-2.67
-2.0
2.67
-5.0
-8.33
-5.33
-2.67
-3.33
5.33
-3.0
0.0
-6.67
-2.0
3.0
-4.67
-1.33
-5.0
-5.0
-1.0
-4.33
1.0
-0.67
4.33
-3.33
1.33
-1.0
-11.33
-1.0
-2.0
2.67
-6.33
-4.0
-2.33
-1.33
8.0
-6.33
-1.67
-1.67
-0.33
0.33
1.33
1.33
-10.33
-3.0
-4.33
-1.67
-5.0
-1.0
-5.33
1.0
-4.0
-3.33
-8.0
-1.0
1.67
-1.0
-2.0
-0.67
-3.67
0.0
-2.67
-1.33
1.33
-2.67
-2.0
-1.33
1.67
-5.33
-0.67
2.67
-5.33
2.67
-2.0
-2.33
0.33
-0.33
-2.67
-8.0
-7.0
-4.0
7.0
-4.0
-0.67
-2.67
0.67
0.33
-1.67
4.0
-0.67
0.67
-6.67
-2.67
-1.67
3.0
-3.67
9.67
-0.67
-0.33
-2.0
-2.0
5.0
-1.67
5.67
-1.67
1.67
3.33
3.0
-1.67
1.33
-3.67
-0.33
2.67
10.0
-0.33
-2.67
-2.33
5.67
17.67
5.67
5.67
14.0
19.0
9.0
33.33
24.0
38.33
25.33
33.0
40.33
18.67
16.67
22.67
5.0
14.0
-4.67
9.33
4.67
-0.67
7.33
8.0
6.0
6.33
8.67
16.0
29.67
21.67
34.67
30.0
30.33
29.0
19.33
22.33
37.67
13.67
17.67
20.67
13.33
7.0
4.33
0.67
-8.0
11.0
8.67
16.33
13.33
0.67
8.33
9.0
12.33
6.33
13.67
8.67
5.33
12.67
9.67
4.67
18.33
11.33
15.67
15.33
19.67
24.33
31.33
20.67
29.0
40.0
39.33
32.33
36.67
43.67
32.0
29.67
22.0
26.0
22.33
8.33
24.0
24.33
19.33
23.0
23.0
9.67
21.0
13.33
12.0
19.67
9.33
15.67
11.0
6.33
12.33
6.67
6.0
7.67
5.0
4.67
8.0
16.0
2.67
3.67
8.67
14.67
9.0
10.0
13.0
9.67
15.67
11.33
16.67
18.33
12.67
18.0
11.67
10.67
20.33
13.0
7.0
10.0
4.67
-2.67
13.0
7.67
9.0
21.67
31.33
48.67
48.0
66.67
102.0
94.33
134.0
148.0
140.0
123.67
99.0
95.0
87.33
60.67
43.33
35.67
23.0
25.33
15.33
17.67
32.33
26.0
33.67
36.0
46.0
37.33
55.0
41.0
73.67
62.67
71.33
75.33
68.0
100.67
72.67
91.67
66.0
59.0
71.33
60.67
67.67
41.0
48.67
25.33
33.0
32.67
23.33
13.33
13.33
19.67
16.33
3.0
14.33
18.67
12.33
14.67
0.33
8.0
12.67
10.33
6.67
16.67
24.0
27.0
16.33
17.67
25.0
24.67
16.33
16.33
29.0
31.33
14.33
39.33
37.67
24.33
15.0
18.0
31.33
23.33
30.33
25.33
25.33
42.67
20.0
13.0
17.0
23.67
31.33
23.33
14.0
22.67
18.67
16.67
3.0
21.0
20.0
17.33
28.67
12.0
22.0
19.33
33.67
23.33
14.67
6.0
11.67
4.33
3.67
6.67
10.0
15.0
13.33
14.0
18.67
2.33
1.33
11.67
10.0
12.67
2.33
14.33
9.0
16.33
12.67
-5.67
12.67
2.33
-1.0
11.67
4.0
3.0
8.33
23.0
12.33
21.0
16.33
2.67
13.67
9.33
16.67
11.0
18.67
1.67
-3.33
8.0
-2.33
5.33
10.67
2.33
7.67
7.67
-2.0
15.33
-6.67
-4.0
8.67
12.67
5.0
10.0
-1.0
-2.0
6.0
4.0
0.33
6.67
12.33
15.67
8.0
9.0
1.67
1.33
16.33
13.0
23.67
14.67
24.33
12.33
6.67
2.67
-1.67
5.0
14.0
5.33
10.33
1.33
13.33
-1.33
18.67
4.33
9.33
33.0
17.67
8.0
12.0
12.67
13.0
15.0
-0.33
13.33
27.67
15.0
7.0
18.33
11.0
17.33
11.33
-3.67
18.67
12.67
11.67
18.67
21.67
12.0
9.33
15.33
8.0
8.0
7.67
13.33
10.67
6.67
1.33
1.33
10.0
13.33
-2.67
10.67
0.33
13.67
-1.33
-0.67
11.33
-4.67
10.0
1.0
-6.0
-0.67
-2.33
-0.67
17.33
17.0
-2.0
-12.67
2.0
6.33
-2.67
-0.67
6.0
1.0
-3.33
-5.0
3.0
5.33
12.67
6.67
-0.33
7.0
8.33
15.67
2.67
1.0
2.67
1.33
1.67
-5.67
-2.0
-3.33
0.0
3.33
3.67
10.0
-5.0
9.67
0.67
-2.33
4.67
-16.67
-5.0
0.0
3.67
-4.0
2.33
2.67
2.67
-3.0
7.0
8.33
10.0
3.67
8.33
6.67
9.67
1.0
-0.67
2.67
-1.0
-2.33
-0.33
6.0
0.0
5.33
2.67
5.0
2.33
12.67
2.0
-4.0
11.33
1.33
2.33
0.33
8.67
-0.33
-3.67
-2.0
7.0
-4.67
2.0
6.33
-8.67
5.0
-5.33
-3.0
12.0
0.67
8.67
0.67
-5.33
-4.67
-2.0
-1.33
6.67
11.33
9.33
-5.67
-3.67
-9.0
13.0
6.67
-0.67
10.67
-1.67
2.0
12.0
4.0
2.0
2.0
-1.0
-5.33
3.67
1.33
3.67
4.67
6.0
-4.67
2.33
12.67
-1.67
7.0
2.33
8.33
7.67
-3.0
9.67
-3.33
4.67
4.67
3.33
1.67
-6.33
-2.67
4.33
-1.67
-1.33
-7.0
3.67
-1.0
7.0
-1.33
2.0
1.67
2.0
5.0
11.0
5.0
1.0
-2.67
4.33
0.33
-1.67
-3.33
3.0
-5.67
1.33
7.33
0.0
2.67
1.0
-0.67
1.0
1.33
9.67
0.33
1.33
7.0
1.33
2.0
-2.33
0.33
0.33
-1.67
-1.0
-2.0
2.0
2.33
0.0
1.33
5.0
1.67
9.33
1.0
4.33
-2.33
-1.0
0.0
3.33
7.33
-1.67
-2.33
0.67
-1.67
2.0
0.67
3.67
3.33