File: EDX Back Ups and Old Files/Spectra copy 3.3.23/Samples/Low pH SF 60C 2d/11.0.txt
0.0
125.67
9.0
-111.67
45.67
-36.33
-13.67
-72.67
-40.67
-29.0
-37.67
-15.33
-16.33
-12.0
2.33
-3.0
-4.0
6.33
3.0
-0.33
-0.33
-1.0
-0.33
0.67
-0.33
-0.33
0.0
0.0
-0.67
-0.67
-0.33
0.0
0.0
1.0
-0.33
-0.67
-0.33
0.0
0.0
0.67
-0.33
-0.33
-0.33
-0.67
-0.33
-1.33
1.0
-0.33
0.33
-0.67
-1.33
-2.67
2.33
-1.0
-0.67
-1.33
-0.67
-4.33
-1.67
0.33
0.33
-1.0
2.67
-2.0
3.67
-1.33
0.33
5.33
2.67
3.67
3.67
-0.67
1.67
4.67
2.0
-4.0
7.33
-0.33
-2.0
-4.0
1.67
-0.67
1.33
3.67
0.33
4.33
1.67
-1.67
-7.67
4.33
-2.67
-6.0
1.33
2.67
5.67
-0.33
-3.33
3.0
7.0
1.33
0.67
6.0
2.0
4.33
0.67
-2.33
6.67
0.67
-2.33
0.0
7.67
-0.33
6.0
8.0
7.67
6.0
0.67
1.33
2.67
4.33
3.0
-2.0
4.33
3.67
5.0
4.33
0.67
2.33
13.33
7.67
-0.67
-1.67
3.67
-3.67
-5.0
-4.33
1.67
-2.67
0.33
3.67
2.67
2.0
3.0
-5.0
-0.33
3.0
-3.0
-4.67
-3.33
0.33
4.33
-1.0
-0.33
6.0
1.67
-5.0
4.0
0.0
0.33
5.33
5.0
0.33
-1.67
-2.0
3.33
-3.33
-0.33
5.0
-1.0
1.33
3.67
-0.33
2.0
1.67
5.67
-0.67
-3.33
0.33
0.0
1.0
-0.67
-2.67
6.0
-6.0
6.67
0.67
0.0
-2.67
1.0
4.0
-2.33
-2.67
2.33
-4.33
-1.33
7.33
5.0
-2.67
-0.33
-0.33
0.0
1.33
-5.67
2.33
-0.67
2.0
-2.33
3.33
5.0
-2.0
-0.67
1.0
-4.0
5.33
-3.0
-3.0
-2.0
-2.33
9.67
-1.67
-1.33
-0.33
-1.67
-0.67
-2.33
-0.67
-1.0
8.0
-3.0
-2.67
1.33
4.33
-0.33
3.0
-2.0
-4.67
3.33
3.67
10.33
4.67
-3.67
-1.33
-0.33
-1.33
2.67
4.33
2.67
0.67
8.33
8.33
2.33
1.0
-2.67
4.0
-0.67
3.0
1.33
-0.67
1.33
3.33
1.0
-2.67
-2.0
2.33
5.0
4.33
-4.67
-2.33
3.0
2.0
-3.0
-1.33
-2.33
2.67
1.67
-2.0
1.67
-1.67
1.67
-4.0
1.67
1.0
-3.0
-1.67
-3.67
-1.67
2.67
-1.67
-2.33
-0.67
1.0
1.0
2.0
3.0
-0.67
-1.0
-1.33
0.33
-3.67
-4.0
1.33
1.33
-2.67
0.0
0.67
-0.33
0.33
0.33
-8.67
-6.0
6.0
2.33
5.0
-3.33
-1.67
-0.33
-2.0
-3.67
-2.0
1.0
3.0
-0.33
-2.67
3.33
-1.67
2.33
-2.0
-3.0
-5.67
-3.67
-3.67
3.33
-0.67
-4.33
0.67
-3.67
1.0
-2.0
3.0
-2.67
-3.0
-1.33
-1.67
-4.33
-2.33
-2.67
-4.0
-3.33
-6.0
-5.33
1.67
-2.67
-5.33
3.33
-5.0
2.0
-2.67
-2.0
1.0
2.33
0.67
-5.0
-1.0
-5.0
-0.33
-1.0
-1.67
1.33
-1.33
-8.67
-3.0
-12.33
-4.0
0.0
-4.33
4.67
-1.0
-2.33
-0.33
-3.0
2.67
-5.67
-4.67
3.67
-4.67
-8.67
-1.67
-7.33
-4.0
-1.33
-2.67
-1.0
-1.0
-3.33
-6.0
-8.0
-3.33
0.0
0.0
-2.33
-3.0
-1.0
7.33
3.33
3.0
-3.67
-6.33
9.33
1.33
1.0
-9.33
-1.33
-4.33
-1.67
-2.33
-4.33
-2.33
0.0
5.67
-5.67
-2.33
-2.67
-4.0
-3.0
-5.0
6.0
-3.0
1.33
-5.67
-6.33
-0.67
5.33
7.0
-2.67
2.67
-4.67
-13.67
-0.67
1.0
-0.67
5.67
-3.67
13.67
8.0
-6.0
-5.0
0.33
-6.33
1.33
-1.33
-4.67
3.0
8.33
-0.67
-2.67
0.67
-6.33
-3.0
0.67
11.33
4.67
9.67
9.67
38.67
34.67
53.0
69.0
57.0
60.33
42.0
50.33
25.33
26.0
17.33
12.67
30.67
1.67
-5.0
11.0
-2.67
4.33
1.67
1.33
8.33
2.0
9.0
16.33
5.67
22.0
22.67
33.67
55.67
71.0
69.33
77.0
59.33
62.33
43.67
23.67
20.67
28.67
20.33
4.0
8.33
12.67
-1.0
11.0
13.67
12.33
12.33
5.67
9.33
7.0
8.33
16.33
-5.33
10.67
9.33
5.67
18.67
13.67
18.33
23.33
25.67
26.33
23.67
44.33
63.33
83.67
90.0
93.0
89.33
71.33
66.67
76.67
50.0
49.67
23.0
35.0
22.33
14.33
29.0
20.33
14.33
47.0
49.0
29.67
22.0
20.33
20.0
9.67
16.33
10.67
17.0
9.33
6.33
9.67
1.0
2.67
14.0
6.67
10.0
5.0
16.67
7.67
10.67
21.67
30.0
22.0
30.0
20.67
38.67
12.33
35.67
27.33
22.67
21.0
27.67
25.67
21.33
4.0
18.0
4.0
7.67
3.33
17.0
17.67
22.0
20.67
56.33
70.67
95.0
94.67
135.0
145.33
161.0
226.0
191.0
195.67
158.0
198.0
124.33
114.67
74.33
69.67
51.0
37.33
28.33
22.67
43.33
29.0
34.67
43.0
64.0
86.33
88.0
85.0
97.67
83.67
72.33
55.33
40.0
52.67
68.67
64.67
35.0
61.0
34.33
45.67
43.67
32.0
33.67
18.33
21.0
18.67
11.33
6.33
11.33
12.67
9.33
7.0
4.33
0.67
5.33
3.67
-2.67
-1.0
13.67
15.33
7.67
13.67
13.0
24.0
13.33
7.67
19.0
8.67
13.33
23.33
26.0
35.33
30.33
27.33
35.67
36.33
38.0
30.0
28.33
21.33
31.33
25.33
17.33
24.67
5.0
18.0
3.0
15.67
9.33
9.33
15.0
22.67
22.67
30.67
26.0
23.0
31.0
32.33
16.67
15.0
12.0
1.33
11.67
12.33
11.67
5.0
7.67
7.33
14.67
8.67
8.0
12.0
-3.67
12.0
7.67
-4.67
18.33
7.67
12.0
3.67
13.33
18.33
-1.0
-0.67
2.67
5.33
15.67
15.33
-1.0
5.67
3.0
14.0
1.33
12.0
18.33
12.0
-0.67
1.67
15.67
1.33
-1.33
12.0
15.67
12.67
3.67
16.0
-0.33
2.33
-2.33
0.33
5.67
2.67
-6.0
3.33
1.33
12.0
-8.33
6.67
2.0
4.0
11.0
18.0
8.0
2.0
6.33
2.67
-6.67
3.67
11.0
5.0
14.67
4.33
6.33
6.0
6.67
20.67
1.33
9.33
1.67
2.67
8.33
5.0
11.0
18.33
4.33
17.33
5.33
5.67
3.67
18.33
4.33
25.0
1.67
11.0
13.0
3.67
10.0
9.0
8.67
11.33
21.67
20.0
5.0
-7.67
12.0
3.33
6.33
1.33
5.67
18.67
11.67
8.67
5.67
0.0
6.33
3.33
4.0
-3.0
3.67
1.33
13.67
10.67
15.33
9.33
15.0
26.33
16.33
8.67
1.33
8.67
0.67
-6.67
1.33
7.33
5.0
20.0
5.0
12.33
4.67
-7.67
9.33
5.0
-5.0
-5.67
5.0
7.33
5.33
10.33
20.0
4.0
1.67
-17.0
1.0
7.33
10.67
5.67
1.67
6.0
5.33
-2.33
0.67
2.0
-3.33
-1.67
1.67
6.33
1.0
4.67
9.0
-2.67
-7.33
-6.0
5.0
1.67
8.67
3.67
-1.33
-13.67
-3.0
7.0
1.67
10.0
4.33
9.67
2.67
-2.0
-2.0
13.33
8.0
5.67
2.33
8.67
6.67
4.0
3.33
2.67
-3.0
5.67
-4.33
6.0
2.0
-2.67
3.67
4.0
5.33
1.67
7.0
0.0
10.33
-7.67
0.33
0.33
2.67
2.67
2.33
-5.0
7.0
2.33
-2.0
4.33
-2.67
9.0
-2.33
-4.0
-5.0
0.67
5.67
4.67
0.67
5.33
4.0
2.67
14.67
2.33
2.33
1.33
2.33
-3.0
3.0
-5.33
-0.67
-0.33
2.33
8.0
8.0
11.0
0.0
4.0
1.0
4.67
1.67
7.33
7.67
3.67
2.0
-3.67
2.33
4.67
3.33
2.0
3.33
-2.67
5.67
1.0
1.67
-0.33
-1.33
-0.33
1.33
-0.33
-4.33
-2.67
7.33
1.33
3.67
3.0
3.67
-7.0
3.0
3.67
2.0
0.67
5.0
3.0
-5.0
4.0
-3.0
0.33
6.33
9.33
1.33
-2.33
0.0
-6.67
-2.67
5.33
4.0
0.67
3.0
4.33
-1.0
-6.67
1.67
-6.67
-3.67
-5.0
3.33
0.0
1.67
0.33
4.33
1.33
6.0
9.0
3.0
1.33
3.0
6.33
5.0
3.67
1.33
-5.0
3.33
2.67
0.0
-2.0
8.33
0.33
3.33
0.67
3.67
4.33
1.0
-3.33
-2.33
0.33