File: EDX Back Ups and Old Files/Spectra copy 3.3.23/Samples/Low pH SF 60C 2d/6.0.txt
0.0
76.67
79.0
46.33
182.67
46.67
60.33
31.33
-2.67
-15.0
-4.67
-11.33
-9.33
-12.0
3.33
-3.0
1.0
1.33
1.0
1.67
-1.33
-1.0
0.67
0.67
-1.33
-0.33
0.0
0.0
-0.67
0.33
-0.33
0.0
1.0
2.0
-0.33
0.33
-0.33
0.0
0.0
0.67
1.67
-0.33
1.67
-0.67
-0.33
0.67
1.0
-0.33
-0.67
1.33
-0.33
-0.67
1.33
0.0
-0.67
0.67
0.33
-2.33
0.33
-0.67
-1.67
-2.0
-1.33
2.0
1.67
-2.33
2.33
8.33
3.67
3.67
0.67
-1.67
7.67
4.67
1.0
2.0
0.33
-0.33
1.0
3.0
-6.33
-0.67
-1.67
7.67
1.33
4.33
7.67
0.33
-0.67
2.33
6.33
5.0
3.33
11.67
10.67
5.67
-0.33
5.0
8.0
-2.67
9.67
5.0
7.0
5.33
3.67
4.67
0.67
0.67
1.67
0.0
5.67
1.67
3.0
4.0
4.67
4.0
-3.33
5.33
6.67
-1.67
3.0
4.0
8.33
5.67
3.0
10.33
4.67
1.33
-0.67
-1.33
2.33
-6.67
3.67
4.33
1.0
-0.33
1.67
8.33
8.33
1.67
-1.33
2.0
6.0
0.0
-1.33
1.0
5.0
-3.67
0.67
2.33
4.33
2.0
2.67
3.0
5.67
7.0
6.0
3.0
4.33
16.33
4.0
8.33
0.33
-1.0
5.33
2.67
-1.33
2.0
7.0
1.33
3.67
2.67
4.0
4.67
-0.33
-1.67
5.67
5.33
5.0
6.0
0.33
2.33
-2.0
0.0
7.67
8.67
-2.0
3.33
2.0
6.0
1.67
-4.67
7.33
-5.33
6.67
3.33
11.0
3.33
-0.33
-1.33
4.0
-1.67
1.33
4.33
7.33
3.0
0.67
-0.67
6.0
4.0
-2.67
4.0
-1.0
2.33
-1.0
2.0
-2.0
8.67
6.67
2.33
-2.33
5.67
6.33
1.33
-1.33
4.33
-2.0
5.0
5.0
-1.67
2.33
1.33
1.67
5.0
-2.0
-2.67
-2.67
1.67
5.33
-0.33
7.33
4.67
-1.33
-2.33
2.67
-0.67
0.67
0.67
0.33
0.33
4.33
-3.0
0.33
2.0
0.33
-1.0
-0.67
1.33
-3.67
-1.67
2.0
2.33
6.0
5.33
1.0
2.33
2.33
-1.33
5.0
3.0
-1.0
0.67
2.67
8.67
0.67
8.0
2.67
-2.67
10.67
-3.0
-2.33
1.0
1.0
1.33
3.33
-0.67
5.67
-3.67
-2.33
2.33
0.0
0.0
3.0
2.0
3.33
4.0
-0.33
2.33
2.33
3.0
0.33
4.33
-0.67
1.0
-1.33
-5.33
3.33
5.33
-0.67
-2.0
0.0
-1.67
-2.0
-0.33
0.33
-1.33
1.0
1.33
-2.0
4.0
2.0
0.67
-4.67
4.33
-3.67
3.33
0.0
2.0
-4.67
-5.67
-4.67
4.33
2.33
-3.33
2.67
0.33
-1.0
-2.0
1.0
-0.67
0.0
-0.33
0.33
-3.33
-4.33
-5.67
-6.0
-8.33
-5.0
-0.33
-3.33
-3.67
-6.33
1.33
-11.0
0.0
-0.67
-2.0
5.0
2.33
-3.33
-2.0
-1.0
2.0
0.67
-3.0
-4.67
-3.67
-1.33
-8.67
0.0
-7.33
-5.0
-3.0
-1.33
-2.33
-3.0
0.67
-4.33
-2.0
-4.33
-0.67
-0.67
1.67
0.33
-7.67
2.33
0.67
4.0
-7.33
-6.67
-7.0
-3.0
-3.33
-1.0
-5.0
-9.33
-3.0
-7.0
-1.33
0.0
-5.0
-0.67
-3.67
-1.0
-2.67
-1.33
-7.67
-2.67
1.0
-2.33
-8.33
-4.33
-6.67
-9.33
-4.33
-0.33
-9.0
-5.33
1.33
-6.33
-2.67
-6.0
-6.0
-1.0
-3.0
-3.0
-5.67
-4.67
2.67
9.33
-1.67
-6.0
-9.67
-0.33
5.33
-8.67
-4.67
-5.0
-5.67
0.67
-2.67
-4.33
-2.0
-6.0
-8.0
5.33
1.67
-2.67
-4.33
-7.67
-1.0
-1.67
-0.67
-6.67
5.67
-0.33
-3.0
-4.33
1.33
-0.33
6.67
10.67
2.67
6.67
10.0
24.0
15.0
34.33
15.0
19.33
23.33
8.0
9.33
13.67
3.67
1.67
-2.0
1.0
3.33
-1.67
-7.33
-2.67
6.33
-6.0
13.0
0.33
6.67
13.0
4.67
-3.33
7.67
1.0
20.33
12.0
8.33
19.33
24.67
15.67
19.67
18.67
7.33
-3.0
10.33
8.67
1.0
-1.0
13.67
2.33
10.33
10.67
0.33
9.0
14.33
3.33
2.67
-1.33
7.33
12.67
6.67
-5.33
8.33
3.33
9.67
1.33
7.67
18.33
17.33
10.67
9.0
25.0
14.33
4.33
14.67
13.67
12.0
18.67
10.0
25.0
9.33
8.33
29.0
26.33
17.33
22.0
27.0
24.67
15.0
18.33
10.0
6.67
10.33
5.67
10.0
9.33
-0.67
0.67
3.0
-0.33
7.0
3.67
7.0
5.0
11.67
4.67
16.67
15.67
14.0
9.0
21.0
8.67
14.67
9.33
11.67
9.33
5.67
18.0
6.67
6.67
21.33
13.0
11.0
7.0
-3.33
3.33
14.0
11.67
1.0
6.67
28.33
17.67
16.0
21.67
39.0
26.33
39.0
50.0
50.0
44.67
66.0
44.0
49.33
35.67
44.33
31.67
14.0
31.33
36.33
26.67
16.33
21.0
25.67
21.0
24.0
34.33
28.0
30.0
38.67
21.67
43.33
60.33
50.0
52.67
43.67
44.67
22.0
33.0
30.33
25.67
27.67
30.0
14.67
16.33
13.0
24.67
16.33
16.33
10.33
12.67
15.33
1.0
14.33
1.67
18.33
14.67
15.33
15.0
2.67
2.33
-0.33
4.67
12.0
17.0
5.33
10.67
13.0
17.67
2.33
5.33
5.0
16.33
15.33
15.33
33.67
20.33
16.0
22.0
18.33
7.33
26.33
13.33
19.33
12.67
16.0
19.0
8.0
19.67
14.33
16.33
17.0
22.67
25.67
18.67
21.0
8.0
22.0
16.33
26.67
14.0
4.0
-1.67
30.67
12.33
1.67
11.0
14.67
7.33
-0.33
12.67
10.0
7.0
-6.67
-2.0
9.67
2.33
13.33
6.67
8.0
2.67
0.33
17.33
8.0
-4.67
18.67
10.33
5.67
5.33
1.0
5.67
5.0
4.0
8.33
11.0
22.33
15.0
27.33
10.67
1.67
0.33
7.67
6.0
6.67
7.67
6.67
6.0
7.67
9.33
13.67
1.33
6.67
3.67
4.0
2.33
5.33
13.0
2.67
2.67
2.0
1.0
7.0
11.0
-7.0
-1.0
7.33
-6.33
3.33
11.67
13.0
2.0
2.67
11.33
-1.67
5.0
-0.33
6.67
10.33
2.33
10.67
13.67
10.33
4.0
8.0
17.33
7.33
9.33
10.33
8.67
13.67
5.33
20.33
19.0
19.67
22.0
12.0
6.67
8.0
18.0
14.67
15.33
24.67
16.0
4.0
-3.67
19.0
5.33
15.33
4.33
2.67
14.67
11.67
15.67
28.67
4.0
7.33
14.33
14.0
0.0
-3.33
1.33
0.67
-1.33
-2.67
4.33
13.0
-0.67
16.33
-2.33
22.33
1.67
8.67
-3.67
0.33
5.33
19.0
10.0
12.0
-5.67
-7.33
-3.67
-2.67
3.0
-4.0
-6.67
5.0
-1.67
-6.67
2.33
13.0
2.0
-11.33
-9.0
7.0
2.33
5.67
0.67
-3.33
0.0
13.33
5.67
13.67
4.0
-2.33
13.33
-3.33
3.33
11.0
11.67
0.0
1.33
-1.33
6.0
-9.0
5.67
5.67
2.67
-5.33
-6.67
1.0
0.0
1.67
6.0
-1.67
12.67
-3.33
4.0
7.0
8.33
0.0
11.67
8.33
4.67
1.67
-4.0
-0.67
8.67
12.0
-0.33
3.67
5.0
2.0
-0.67
1.67
4.0
4.33
-2.33
2.0
-1.0
2.33
5.33
3.33
11.33
-1.33
9.67
0.33
8.0
2.0
-2.67
6.0
8.33
2.33
3.0
6.67
-4.0
6.0
5.67
-0.33
-2.33
-0.33
-4.67
-4.0
-2.33
13.67
3.33
16.33
-3.67
-5.67
4.0
12.0
-3.33
8.33
-1.33
2.33
7.0
6.0
5.0
4.0
-2.0
-2.0
-1.33
6.67
2.33
3.67
-2.33
2.0
-3.67
4.33
4.67
-1.67
7.0
-0.67
4.33
0.67
-1.0
3.67
5.67
4.67
3.67
3.33
4.67
-1.33
0.33
8.33
-2.67
0.67
3.0
5.67
10.0
7.0
6.67
7.0
2.67
5.0
2.0
4.0
4.0
2.0
1.33
7.33
7.33
1.33
-0.33
1.0
2.33
1.33
3.33
0.0
7.67
9.0
6.33
5.0
3.33
14.67
-2.67
6.33
3.0
4.33
5.0
-0.33
-0.67
8.33
7.33
1.0
10.0
-2.0
5.33
-1.0
4.33
0.0
6.67
13.33
2.0
10.33
-1.33
-2.0
-1.0
1.33
2.33
1.33
4.67
-0.33
4.33
4.0
5.67
-2.33
5.33