File: EDX Back Ups and Old Files/Spectra copy 3.3.23/Samples/Low pH SF 60C 2d/7.0.txt
0.0
147.67
68.0
85.33
94.67
76.67
38.33
10.33
-35.67
4.0
-12.67
13.67
-12.33
18.0
6.33
-2.0
0.0
-0.67
1.0
0.67
-0.33
-1.0
-0.33
0.67
-1.33
-0.33
0.0
0.0
-0.67
-0.67
-0.33
1.0
0.0
1.0
0.67
0.33
-0.33
1.0
0.0
1.67
-0.33
0.67
-0.33
-0.67
-0.33
-0.33
0.0
0.67
2.33
-0.67
-0.33
-1.67
0.33
-1.0
-0.67
-0.33
-0.67
-3.33
2.33
0.33
-0.67
-2.0
-2.33
0.0
0.67
2.67
7.33
8.33
-2.33
-0.33
-3.33
1.33
-0.33
0.67
1.0
-1.0
-0.67
-4.33
2.0
4.0
2.67
6.33
0.33
1.67
3.33
7.33
6.67
-4.67
0.33
-1.67
2.33
2.0
2.33
6.67
4.67
4.67
5.67
1.0
2.0
1.33
2.67
4.0
-1.0
5.33
1.67
1.67
3.67
3.67
6.67
1.0
-0.33
9.67
6.0
2.0
5.67
7.0
5.67
6.33
-5.33
-3.67
4.0
5.0
4.33
4.67
2.0
6.33
-0.33
2.33
0.33
4.67
1.33
-3.67
0.67
6.33
-1.0
-3.33
1.67
6.33
0.33
4.67
-2.33
0.0
9.0
2.0
4.67
-2.0
-1.0
-5.67
1.67
-1.67
2.33
-3.0
7.67
-5.0
-2.33
-7.0
-4.0
0.0
1.33
3.33
-6.0
4.33
5.33
4.0
1.33
3.67
6.67
-3.0
3.0
-2.67
6.67
-1.33
14.0
8.67
2.67
5.33
-5.33
-0.67
3.0
9.0
2.33
-1.67
-3.0
-4.0
-0.33
2.67
3.0
1.33
-1.0
1.0
5.67
0.33
1.33
-1.33
-2.33
1.33
3.0
0.33
2.67
2.67
0.0
3.33
-2.67
4.33
1.33
-1.0
-1.33
6.33
3.0
-2.0
-1.67
0.0
-3.0
1.33
3.0
0.0
3.0
2.67
2.67
5.33
-3.33
3.67
3.33
4.33
-2.33
4.33
3.0
4.0
-2.0
-4.67
-0.67
-1.67
3.67
7.0
3.0
-0.67
4.33
2.67
4.33
1.67
1.33
2.67
1.67
1.67
6.67
4.33
2.67
-1.33
1.33
3.33
2.33
-2.0
-2.67
1.0
3.33
2.0
-2.67
0.33
2.33
3.33
0.0
4.33
1.0
-0.67
-2.0
0.33
-0.67
-0.33
2.0
0.0
2.0
-0.33
-0.33
1.67
3.67
0.0
7.67
-4.67
3.67
2.0
7.67
0.0
-2.0
0.33
-1.67
2.33
0.67
1.33
-4.33
3.33
2.0
2.0
4.0
0.0
2.33
-1.0
1.67
-0.67
1.33
-1.0
3.33
4.33
-3.67
7.0
1.67
-1.33
1.33
2.33
-3.67
-4.0
2.0
1.33
1.0
-3.33
-1.67
3.67
-2.0
3.33
-3.0
4.0
-1.0
-1.33
1.33
-0.67
-1.67
-0.67
-3.0
1.0
-5.67
-2.67
1.33
-0.67
2.33
1.67
0.67
-7.67
-1.0
-4.0
3.0
-5.67
3.0
-0.33
3.33
-3.33
1.67
4.33
-2.0
-2.33
-1.0
-3.33
-2.33
-8.67
-4.33
-1.67
-8.0
-1.0
-4.67
1.0
0.0
1.33
4.67
-7.0
-6.0
-4.0
-2.33
-2.0
-0.67
-1.67
-2.33
-8.67
-3.0
-10.33
-3.0
-3.0
-6.33
-7.33
-1.0
-6.33
-4.33
-2.0
1.67
-3.67
-0.67
0.67
-4.67
-10.67
0.33
-5.33
-1.0
-0.33
-6.67
-3.0
-6.0
-6.33
0.0
-1.0
-3.33
-4.0
-5.0
3.67
-6.0
-3.0
-3.67
2.33
0.0
-5.67
-1.33
1.33
0.33
-2.0
2.67
2.67
-2.33
-6.67
-5.33
1.67
2.67
-10.0
-1.33
-3.67
-1.33
-7.67
-7.0
-3.0
-2.0
-7.0
1.0
-7.67
-3.67
-3.33
-2.67
3.33
2.0
7.33
-2.33
-2.67
-12.67
-9.67
-2.0
-1.67
-2.33
-5.67
-11.33
3.0
-1.0
-2.0
-2.67
-5.33
-1.67
-1.33
5.33
0.0
3.33
-3.67
-4.67
1.67
1.67
-9.0
-1.33
8.33
-1.33
4.67
4.67
3.67
14.67
14.0
16.0
46.0
48.33
56.0
55.33
67.33
45.0
57.33
50.67
35.67
8.67
25.0
9.0
3.33
7.33
-3.33
0.33
5.33
1.0
7.0
1.33
5.67
14.0
8.67
10.67
26.67
31.0
41.33
23.0
25.33
26.33
16.67
13.67
5.67
3.67
-5.67
1.0
2.33
11.67
-2.0
13.0
7.67
5.33
4.33
1.67
11.33
7.0
2.33
6.33
-7.33
-5.33
-1.67
6.67
8.67
1.67
18.33
2.33
13.67
6.33
-4.33
16.33
14.33
8.67
16.0
29.0
13.33
-0.67
15.67
12.67
26.0
21.67
23.0
19.0
24.33
10.33
31.0
25.33
30.33
20.0
27.0
9.67
19.0
10.33
-1.0
8.67
7.33
8.67
7.0
6.33
10.33
5.67
4.0
1.67
8.0
14.67
2.0
2.0
-2.33
11.67
2.67
3.67
8.0
1.0
9.0
3.67
8.67
17.33
14.67
14.33
9.67
31.0
6.67
8.67
18.33
2.0
11.0
4.0
1.67
-0.67
18.0
3.67
13.0
11.67
21.33
40.67
20.0
44.67
54.0
55.33
52.0
80.0
68.0
67.67
78.0
77.0
58.33
63.67
62.33
41.67
31.0
29.33
15.33
26.67
21.33
17.0
20.67
31.0
30.0
27.33
22.0
39.0
23.67
30.67
49.33
39.33
54.0
53.67
57.67
57.67
36.0
50.0
49.33
46.67
45.67
41.0
31.67
31.33
18.0
11.67
8.33
16.33
16.33
18.67
23.33
4.0
9.33
12.67
9.33
17.67
5.33
6.0
-1.33
-8.67
26.67
8.67
7.0
13.0
5.33
25.67
6.0
13.67
17.33
7.33
8.0
22.33
8.33
0.33
19.67
15.33
22.0
9.0
13.33
8.33
25.33
15.33
11.33
13.67
25.0
16.0
22.0
10.67
17.33
2.33
12.0
17.67
13.67
9.67
16.0
10.0
32.0
19.33
13.67
25.0
16.0
23.33
13.67
19.33
26.67
8.0
9.67
12.33
3.67
14.67
5.0
17.0
19.33
15.0
0.67
4.33
7.33
1.67
8.0
6.67
10.33
5.33
4.0
20.33
11.67
15.33
3.67
18.33
5.0
4.67
10.0
4.0
-0.67
4.0
3.33
12.0
16.33
1.67
9.67
-1.67
-2.33
-1.0
14.67
2.67
-1.33
-8.0
0.67
7.33
2.67
2.33
3.67
-1.33
-1.0
9.33
5.33
1.0
13.67
4.67
1.0
22.0
3.0
2.0
0.0
6.0
0.33
-3.33
-1.67
3.67
4.0
-2.0
4.67
2.33
-2.67
8.0
7.67
13.67
9.33
-0.67
5.67
15.67
8.33
14.0
17.0
12.33
16.33
7.33
-0.67
-2.33
7.67
-4.67
6.33
13.0
-0.33
4.0
0.0
14.67
0.0
12.0
3.67
13.33
19.67
9.0
13.0
5.33
26.0
2.33
-1.67
15.33
0.67
9.67
3.67
2.67
11.67
5.0
4.33
9.33
3.0
14.0
2.67
3.33
0.67
13.67
-4.67
3.33
-1.0
17.33
5.33
-3.33
16.33
-3.33
-2.33
7.33
16.33
0.33
5.0
10.0
3.0
-9.67
-8.33
1.33
30.33
8.0
-1.0
-7.67
9.0
8.33
0.33
0.33
-4.0
5.0
-3.33
4.0
-2.0
2.33
12.67
12.67
1.67
5.0
16.33
-0.33
5.67
6.0
-2.33
8.33
7.67
1.33
-5.0
-1.33
13.0
6.33
3.67
3.0
-2.0
5.67
7.67
16.67
11.67
0.33
-3.0
-4.0
2.67
2.0
12.33
13.67
9.67
-3.0
1.0
13.33
9.0
4.67
2.33
-3.33
12.67
-3.0
5.33
12.67
1.0
-6.33
-1.33
-3.0
-4.0
-2.67
1.67
3.0
8.33
-2.33
0.0
-2.0
6.33
4.33
-0.67
12.33
6.67
-3.33
3.33
-4.0
13.0
-0.67
3.0
7.33
-2.67
5.0
0.67
-1.0
3.0
3.67
6.67
3.67
3.67
-0.67
6.0
-2.33
8.67
1.33
1.33
1.33
-1.67
-2.0
8.0
-3.33
3.33
3.67
2.33
-3.0
3.0
4.0
-2.0
3.0
1.0
3.67
9.67
3.33
3.67
10.67
7.0
7.33
3.33
15.67
-4.67
7.0
8.33
1.33
0.67
-3.0
0.67
2.67
1.67
0.67
8.33
2.67
3.67
-1.67
-1.67
1.33
2.67
2.0
6.67
-2.0
6.0
4.67
7.0
-0.33
0.0
4.0
1.0
3.0
4.0
8.33
5.33
0.33
1.33
-4.33
3.0
11.33
8.33
4.33
8.0
0.67
0.0
7.33
2.0
5.33
6.67
1.33
5.33
4.0
10.33
-5.0
1.67
6.33
8.33
4.33
5.0
3.0
7.0
4.33
6.0
1.33
1.0
0.67
14.33
1.0
6.33
0.67
-6.0
5.0
-0.67
0.33
1.33
3.67
2.67
0.33
1.0
6.67
-1.33
-2.67