File: EDX Back Ups and Old Files/Spectra copy 3.3.23/Samples/Low pH SF 60C 2d/8.5.txt
0.0
143.67
46.0
27.33
72.67
21.67
97.33
22.33
10.33
-1.0
11.33
2.67
2.67
9.0
7.33
-5.0
-3.0
0.33
1.0
0.67
0.67
-1.0
-0.33
-0.33
-0.33
-0.33
0.0
1.0
1.33
0.33
-0.33
2.0
1.0
2.0
-0.33
-0.67
-0.33
0.0
1.0
-0.33
-0.33
0.67
-0.33
0.33
-0.33
-1.33
3.0
0.67
0.33
-0.67
-0.33
-1.67
-0.67
-2.0
1.33
-1.33
1.33
-0.33
-0.67
-0.67
1.33
-1.0
-2.33
-1.0
-3.33
-1.33
-2.67
1.33
-1.33
0.67
1.67
3.33
-3.33
1.67
5.0
-4.0
-1.67
-4.33
10.0
2.0
0.67
3.33
-2.67
3.67
8.33
-0.67
2.67
0.33
3.33
5.33
-0.67
1.0
1.33
2.67
10.67
0.67
0.67
8.0
3.0
7.33
-4.33
6.0
-1.0
2.33
-0.33
1.67
3.67
-0.33
5.67
3.0
3.67
4.67
3.0
8.0
-0.33
4.0
-1.33
3.33
0.67
0.33
8.0
0.0
4.33
-1.33
-5.0
16.33
2.67
-5.67
0.33
-1.33
4.33
-1.67
3.67
0.33
-1.0
0.67
2.67
-0.67
3.33
2.67
0.67
-2.0
4.0
5.0
0.67
1.0
1.0
0.33
-0.33
1.33
-2.67
-2.0
6.67
2.0
1.67
0.0
1.0
1.0
-2.67
6.33
1.0
5.33
-0.67
0.0
2.33
-0.33
2.67
1.0
9.0
0.33
2.67
3.67
8.0
1.67
0.67
-2.67
3.67
0.33
6.0
-3.0
2.33
1.33
1.0
-2.0
1.67
-0.33
-5.0
-2.67
2.0
0.0
8.67
-5.67
3.33
-2.33
-0.33
1.33
1.0
5.33
2.67
2.67
3.0
-2.67
0.33
7.33
2.33
-1.0
6.67
1.33
4.0
2.0
-0.67
4.0
-1.0
5.33
-2.0
-3.0
3.0
4.67
7.67
-0.67
-0.33
2.67
1.33
7.33
0.67
3.33
-4.0
3.0
7.0
-3.67
-1.67
-4.67
3.67
3.0
4.0
-0.67
4.33
2.67
3.33
-3.33
3.33
0.67
1.67
4.67
-1.33
-3.67
4.67
-2.33
-0.67
5.33
3.33
-1.0
-1.67
6.0
1.33
3.0
1.33
0.33
-0.67
-1.67
3.0
-0.67
1.0
3.33
1.0
2.33
1.33
-1.33
-2.0
0.0
0.0
0.67
-0.33
2.67
2.67
5.0
3.67
-4.67
5.67
2.0
-3.33
2.0
5.0
0.33
0.33
-2.67
0.67
-0.67
-5.33
2.33
5.0
-4.0
-1.0
7.0
1.33
3.0
2.67
4.33
1.33
-3.0
-0.67
-0.67
-4.67
2.0
6.67
-1.33
-0.67
-0.67
-2.67
4.0
-2.0
6.33
3.0
-4.33
-1.67
0.67
0.0
-2.67
-2.0
-1.0
1.0
-2.33
-2.67
2.33
-0.67
-2.67
-4.0
0.0
-3.67
-2.67
0.33
4.33
3.33
-0.33
6.67
-4.67
1.0
2.0
2.0
-2.67
-2.0
-3.33
-0.67
-4.33
0.67
-0.67
-4.0
-2.33
3.0
-1.33
-5.33
-2.67
-7.33
-2.67
-4.0
-2.0
1.33
-1.0
2.0
0.33
-1.33
-7.0
-5.0
-3.0
2.67
5.0
-4.67
-3.67
-4.33
-4.67
-5.0
-8.33
-4.0
0.0
-4.33
-5.33
-4.0
-3.33
-0.33
-6.0
-2.33
-1.67
-3.67
-3.33
2.33
-5.67
-5.67
-4.33
-3.0
-10.33
-4.67
-4.0
-5.0
-1.33
-1.0
-4.0
-8.33
-1.0
7.0
4.67
-7.0
-9.0
-1.67
-3.67
-5.0
-2.67
0.67
-1.67
0.33
0.0
5.67
2.67
-7.33
-6.67
-4.33
-11.33
-2.33
-2.0
-7.33
-4.67
2.67
-9.67
-7.0
-6.0
-17.0
1.0
2.0
-3.67
-5.67
-4.33
0.33
1.33
1.0
0.33
-11.33
0.33
-4.67
-7.67
3.0
-3.67
8.67
-1.67
-12.33
-1.0
-6.0
-7.0
-0.67
3.67
-5.67
-3.33
1.33
6.0
4.33
-8.67
-0.67
1.67
3.67
-9.0
-4.33
5.33
-3.33
10.67
7.67
6.67
17.67
28.0
36.0
40.0
65.33
92.0
97.33
110.33
80.0
85.33
71.67
28.67
15.67
1.0
9.0
3.33
2.33
7.67
4.33
12.33
-4.0
9.0
6.33
17.67
18.0
33.67
30.67
53.67
53.0
57.33
50.0
31.33
38.33
23.67
35.67
24.67
23.67
15.33
9.0
-0.67
11.67
-1.0
6.0
3.67
-2.67
7.33
5.67
1.33
9.0
12.33
1.33
1.67
11.67
4.33
9.67
1.67
-1.33
20.33
3.33
18.67
6.33
9.67
28.33
25.33
26.67
18.0
30.0
23.33
20.33
23.67
29.67
30.0
9.67
18.0
15.0
28.33
25.33
25.0
24.33
18.33
22.0
31.0
18.67
11.0
13.33
4.0
15.67
12.33
5.67
14.0
14.33
-1.67
7.67
14.0
5.67
7.0
8.67
11.0
6.0
1.67
4.67
9.67
6.67
8.0
3.0
14.0
11.67
9.67
20.33
7.67
11.33
7.67
18.0
8.67
5.67
25.33
9.0
8.0
14.0
-1.33
0.33
13.0
11.67
13.0
6.67
28.33
37.67
20.0
24.67
48.0
47.33
41.0
58.0
52.0
49.67
39.0
59.0
35.33
27.67
32.33
37.67
17.0
13.33
13.33
13.67
22.33
22.0
13.67
23.0
25.0
19.33
18.0
23.0
39.67
32.67
38.33
57.33
68.0
73.67
105.67
107.67
98.0
103.0
84.33
73.67
65.67
47.0
51.67
34.33
26.0
23.67
15.33
26.33
10.33
12.67
18.33
4.0
11.33
6.67
15.33
6.67
4.33
6.0
3.67
11.33
2.67
6.67
18.0
11.0
0.33
11.67
9.0
8.67
3.33
11.33
9.0
13.33
2.33
11.33
12.67
6.33
13.0
28.0
25.33
36.33
38.33
18.33
24.33
14.67
18.0
13.0
19.0
20.67
20.33
18.33
21.0
27.67
19.67
18.67
13.0
24.0
12.0
15.33
11.67
-2.0
5.0
12.33
10.67
20.33
9.67
-1.0
16.67
4.33
6.67
17.67
0.0
17.0
13.33
2.0
15.67
1.33
2.33
5.67
5.0
6.67
15.33
15.33
3.0
9.33
14.67
0.33
10.67
12.33
2.0
7.67
10.0
8.0
10.33
8.0
5.33
4.0
2.33
1.67
3.67
-3.67
5.67
11.0
7.67
16.67
5.67
2.0
-7.33
2.33
8.67
6.33
2.67
6.67
-1.0
4.33
4.33
2.0
4.67
19.67
5.0
-5.0
11.0
1.0
-11.0
12.0
16.33
-4.33
1.33
-7.33
3.0
9.0
5.67
10.33
10.33
4.0
1.67
20.67
15.33
0.33
1.67
6.67
3.33
0.0
-4.0
9.33
16.33
17.33
17.33
-3.33
8.67
6.33
27.33
21.0
15.67
16.0
20.0
24.67
15.0
23.0
14.67
29.33
7.67
22.0
10.0
17.33
15.0
16.33
-1.67
5.33
19.67
8.67
13.67
12.67
10.67
14.0
7.33
-1.67
14.0
12.0
4.67
3.33
16.67
-3.33
6.33
-8.67
16.0
0.33
7.33
3.67
4.33
18.67
-1.33
-2.67
-2.67
11.33
15.0
8.0
3.0
7.33
0.67
3.33
18.33
13.0
3.0
1.33
-4.0
0.33
4.33
6.33
-1.0
2.0
0.67
8.0
1.0
3.33
8.67
0.67
-5.33
6.0
3.33
10.67
4.67
6.0
-2.33
5.33
-2.33
-3.67
-10.0
-4.33
23.0
3.33
-6.33
3.0
6.0
-0.33
5.67
2.67
3.67
-10.67
1.0
1.0
5.67
3.0
0.33
-1.33
5.67
-2.0
-5.0
11.33
6.0
7.67
1.33
-3.33
0.67
-8.0
5.33
4.67
-5.0
-8.33
2.67
6.0
1.0
1.33
-3.33
5.0
-2.67
2.67
4.0
-3.0
15.33
-0.67
-3.67
0.33
5.67
2.67
-0.67
-1.0
-1.0
4.33
-1.0
7.33
-3.67
9.0
0.67
0.0
0.0
6.67
4.67
2.67
-5.33
1.33
8.0
-3.33
1.67
5.33
5.33
5.33
2.33
7.0
12.0
-1.33
2.33
5.67
7.33
8.0
6.0
1.0
7.0
-1.0
5.0
-1.33
0.67
0.33
6.67
7.67
6.0
-6.67
1.33
3.67
1.33
9.0
9.33
11.33
5.67
-3.0
4.67
-8.33
1.67
11.67
7.33
-3.33
1.67
7.33
-0.67
-0.67
2.67
3.0
5.67
0.0
4.0
3.67
6.0
3.67
4.0
5.0
-1.0
-3.0
0.0
-3.67
4.33
6.33
-5.67
-3.33
0.0
-0.67
-0.67
-1.67
-2.0
3.67
3.0
0.33
4.0
-1.67
2.67
-0.67
1.33
0.0
3.33
8.0
2.67
-2.67
5.33
7.33
-1.0
3.0
-3.0
-4.67
-1.0
-5.67
2.0
-1.33
2.33
0.0
-1.67
-2.33
3.0
1.0
2.33
0.33
3.33
-0.33
0.67
4.33
7.0
-2.33
-0.33
2.33