File: EDX Back Ups and Old Files/Spectra copy 3.3.23/Samples/Low pH SF 60C 2d/9.0.txt
0.0
66.67
72.0
54.33
86.67
70.67
26.33
53.33
14.33
-23.0
-54.67
-2.33
-17.33
2.0
-2.67
-7.0
-2.0
4.33
2.0
-0.33
1.67
0.0
0.67
-0.33
0.67
-0.33
1.0
0.0
-0.67
-0.67
-0.33
0.0
1.0
0.0
0.67
-0.67
-0.33
1.0
0.0
-0.33
-0.33
-0.33
-0.33
0.33
0.67
0.67
1.0
0.67
0.33
-0.67
-2.33
-1.67
0.33
0.0
3.33
3.67
-0.67
-1.33
-2.67
3.33
-0.67
1.0
-4.33
0.0
2.67
-4.33
4.33
-0.67
1.67
-1.33
-1.33
1.33
1.67
3.67
4.0
-6.0
8.33
-5.33
3.0
7.0
3.67
6.33
5.33
9.67
0.33
8.33
2.67
4.33
-2.67
5.33
5.33
1.0
-0.67
2.67
6.67
-1.33
-1.33
-1.0
5.0
2.33
11.67
3.0
4.0
3.33
0.67
1.67
3.67
-0.33
-1.33
1.0
9.67
-0.33
0.0
5.0
-0.33
8.0
0.67
-0.67
6.67
5.33
4.0
2.0
0.33
0.67
2.0
5.33
0.67
1.33
-1.67
-2.33
0.33
-1.67
1.67
-0.67
1.0
4.67
-1.33
1.33
7.33
7.67
-0.33
-1.0
4.0
2.0
3.67
2.0
3.0
-5.67
-1.33
7.33
5.33
1.0
3.67
2.0
7.67
-6.0
2.0
1.0
1.33
8.33
1.0
5.33
7.33
6.0
5.33
-1.33
5.67
2.0
1.0
5.33
2.67
-3.33
2.0
-0.33
0.67
-2.67
-5.33
-5.67
4.0
5.0
-3.67
-0.67
2.0
-2.0
1.67
-2.33
-3.0
2.33
0.0
5.0
5.67
-9.67
-2.67
1.67
-1.33
3.33
2.0
5.33
-2.33
0.67
4.0
-5.67
0.33
4.33
6.33
0.0
-0.33
1.33
1.0
-2.0
0.33
4.0
2.0
-0.67
-3.0
-4.0
-2.0
-2.33
13.67
0.33
-3.33
9.67
0.33
3.33
-0.33
4.33
-4.0
1.0
-2.0
-2.67
7.33
2.33
-0.33
7.0
2.0
-4.67
4.33
4.67
1.33
-1.33
3.33
11.67
0.67
2.67
-1.33
6.33
2.67
-2.33
-1.67
-0.67
3.33
-2.0
-0.67
-1.0
1.33
0.0
5.33
-1.67
-1.67
0.33
0.0
0.33
-3.0
-0.67
2.0
2.33
-3.67
-1.33
-1.0
4.0
-4.0
-0.33
-4.33
3.67
4.67
-2.0
-0.33
-0.67
3.67
-1.0
-2.33
0.0
1.0
-0.67
1.33
-1.67
-0.33
3.33
-3.33
2.33
0.0
3.0
0.0
4.0
6.33
5.0
-1.33
1.33
-4.67
-5.0
-3.67
2.33
-1.67
-1.0
3.67
1.67
-2.67
4.33
-5.67
-2.0
1.0
3.33
-3.0
3.67
2.33
0.67
-2.0
-2.67
-2.0
2.0
1.0
-2.33
-0.67
0.33
-1.67
-3.67
-3.0
-4.0
-1.67
-6.67
2.33
2.33
-0.67
-2.33
1.67
-4.67
-3.0
3.0
-2.0
-0.67
1.0
-0.33
-0.67
-0.33
-2.33
-5.67
4.0
-0.33
0.0
-1.33
-4.33
0.33
-2.33
0.33
-6.0
2.0
-6.67
-6.0
0.0
-1.67
-3.33
-8.0
-4.0
-7.0
-4.33
3.0
-4.67
0.33
-6.33
-0.67
-2.0
-11.33
-8.0
-1.0
-0.33
-6.33
-10.0
-3.33
-2.33
3.0
-3.33
-1.67
-2.67
0.67
1.33
-3.67
2.33
-4.33
2.0
-9.33
-1.67
-3.0
-4.0
-4.33
1.0
0.0
-6.33
-2.0
-2.0
-1.33
-8.0
-6.0
-7.67
-3.67
-2.0
0.33
-2.33
-6.67
-1.67
0.0
-5.33
-5.33
-6.33
2.33
0.67
-12.33
7.67
-2.0
1.67
2.33
0.67
-3.67
-1.0
-9.0
-8.0
0.0
-7.0
-1.67
9.33
9.67
-7.67
5.33
-3.0
-0.67
-4.33
2.33
-7.67
-1.67
2.0
-2.67
0.67
-2.67
0.67
-2.0
-1.0
-3.0
-2.67
13.67
-3.67
3.67
3.33
0.0
10.33
-7.67
-1.67
4.67
1.67
-2.0
-12.33
-0.67
13.67
1.67
7.67
17.67
8.67
21.0
23.0
60.0
68.33
93.0
131.33
145.33
141.0
121.33
82.67
62.67
26.67
14.0
16.0
-0.67
1.33
5.67
-5.67
-3.67
12.0
8.0
5.33
9.67
16.0
14.67
12.67
8.67
20.0
29.33
25.0
45.33
46.33
39.67
35.67
64.67
32.67
19.33
16.0
20.33
2.67
-1.0
2.0
14.67
23.33
11.33
5.67
-2.67
10.0
8.33
12.33
1.67
-1.33
6.33
9.67
14.67
12.67
9.33
8.33
16.67
15.33
14.67
19.33
26.33
31.67
29.0
30.0
26.33
27.33
40.67
24.67
23.0
41.67
12.0
15.0
23.33
14.33
11.0
18.33
9.33
20.0
18.0
8.67
11.0
12.33
9.0
18.67
1.33
18.67
12.0
11.33
14.33
9.67
0.0
2.67
-2.0
2.67
9.0
11.0
3.67
10.67
6.67
6.67
8.0
9.0
14.0
8.67
-0.33
3.33
14.67
12.33
4.67
20.0
10.67
9.67
9.33
9.0
12.0
9.0
-4.33
6.33
16.0
16.67
16.0
7.67
44.33
31.67
49.0
57.67
52.0
46.33
51.0
71.0
77.0
77.67
74.0
96.0
50.33
44.67
47.33
39.67
13.0
21.33
17.33
17.67
9.33
10.0
5.67
28.0
14.0
25.33
21.0
26.0
26.67
42.67
61.33
73.33
78.0
98.67
107.67
141.67
144.0
102.0
105.33
77.67
53.67
28.0
29.67
27.33
17.0
13.67
12.33
13.33
13.33
10.67
13.33
2.0
6.33
-1.33
18.33
15.67
15.33
4.0
3.67
2.33
11.67
-2.33
5.0
17.0
3.33
3.67
7.0
24.67
19.33
18.33
26.0
34.33
32.33
38.33
35.67
41.33
34.0
24.0
27.33
28.33
28.33
17.33
14.33
15.67
13.0
33.0
6.0
19.67
15.33
12.33
22.0
13.67
15.67
27.67
10.0
9.0
30.0
24.33
20.67
24.0
8.0
17.33
12.67
21.33
7.67
11.0
9.67
17.33
3.67
7.67
4.0
-2.0
-2.67
6.0
10.67
-0.67
3.33
3.67
6.0
4.67
12.33
14.33
-1.0
16.33
11.67
3.33
-0.33
9.33
-2.0
3.67
17.0
17.0
13.33
-2.0
13.33
10.0
25.33
13.67
8.67
2.33
5.67
6.0
1.67
10.67
-10.33
5.0
6.67
4.33
0.67
6.33
0.67
6.67
6.0
10.33
10.33
10.0
-3.33
-4.33
-1.0
7.0
10.0
6.0
-4.0
3.0
17.33
-4.33
-2.67
3.67
2.0
5.0
6.67
12.33
8.33
11.0
10.67
15.67
6.33
12.33
17.67
14.67
21.33
10.0
5.0
1.33
9.33
0.33
11.33
11.67
12.67
26.33
31.33
45.0
34.67
50.0
25.0
42.67
34.0
26.0
21.67
37.33
29.67
33.0
19.0
3.33
20.0
6.33
17.33
12.33
20.67
13.67
13.67
14.67
19.67
2.0
-0.67
-0.67
16.0
4.0
9.67
15.33
20.67
3.67
-3.67
1.33
26.0
16.33
5.33
7.67
2.33
9.67
-2.33
4.33
13.33
-6.67
9.0
-4.0
1.0
-2.67
-1.33
-0.67
12.33
17.0
-7.0
-8.67
1.0
3.33
-2.67
5.33
5.0
2.0
-11.33
7.0
4.0
1.33
2.67
6.67
1.67
-1.0
7.33
7.67
13.67
3.0
-0.33
3.33
2.67
10.33
-3.0
4.67
-1.0
0.33
0.67
10.0
7.0
2.67
-4.33
-2.33
-2.33
-2.67
5.0
-9.0
-0.33
5.0
3.33
5.67
5.67
0.0
5.0
8.33
7.0
2.67
5.33
7.67
0.67
-6.0
7.33
18.67
-4.0
1.67
-4.33
16.0
9.0
5.33
1.67
3.0
4.33
-6.33
0.0
-2.0
7.33
1.33
0.33
6.33
8.67
3.67
-2.67
-6.0
11.0
2.33
4.0
2.33
-1.67
4.0
-10.33
3.0
7.0
12.67
8.67
-1.33
-10.33
0.33
-5.0
3.67
-2.33
2.33
13.33
-3.67
5.33
-1.0
3.0
5.67
-3.67
3.67
9.33
-2.0
11.0
7.0
0.0
3.0
4.0
0.67
7.67
2.33
4.67
10.67
8.0
4.33
3.33
6.67
2.33
7.0
-0.67
-0.67
5.67
-4.0
6.67
-4.33
-1.33
7.67
8.33
-2.33
-2.33
2.33
-4.67
2.33
2.67
2.0
2.67
-4.0
8.0
3.67
3.0
2.67
-1.0
3.0
3.0
5.0
-1.0
-2.67
2.33
0.33
1.33
-3.33
-6.0
-8.67
-5.67
4.33
2.0
0.67
2.0
9.33
2.0
1.33
3.67
-2.67
-0.67
-3.0
-0.67
-2.0
1.67
7.33
4.33
12.33
3.0
5.0
-1.0
-1.67
-2.0
-4.67
-1.0
8.67
1.33
2.0
1.33
1.67
1.0
0.0
-1.67
0.33
3.33
-1.33
0.67
0.33
3.0
3.67
-0.33
-3.67