File: EDX Back Ups and Old Files/Spectra copy 3.3.23/Samples/Low pH SF 60C 2d/background.txt
0.0
1215.33
1621.0
1823.67
1796.33
1641.33
1404.67
1099.67
766.67
518.0
328.67
194.33
121.33
63.0
33.67
25.0
11.0
6.67
2.0
1.33
1.33
1.0
0.33
0.33
1.33
0.33
0.0
0.0
0.67
0.67
0.33
0.0
0.0
0.0
0.33
0.67
0.33
0.0
0.0
0.33
0.33
0.33
0.33
0.67
0.33
1.33
0.0
0.33
0.67
1.67
2.33
2.67
0.67
2.0
1.67
2.33
2.67
4.33
2.67
2.67
2.67
5.0
5.33
6.0
5.33
6.33
5.67
3.67
5.33
8.33
7.33
9.67
9.33
8.33
9.0
11.0
9.67
13.33
10.0
9.0
9.33
9.67
10.67
8.33
11.67
9.67
9.33
11.67
11.67
8.67
11.67
13.0
9.67
8.33
6.33
10.33
12.33
11.0
9.0
9.67
8.33
8.0
10.0
7.67
11.33
10.33
9.33
10.33
10.33
10.0
9.33
11.33
9.0
9.0
9.33
7.0
12.33
8.67
12.33
12.67
8.0
10.0
7.67
8.33
10.0
5.67
11.33
11.67
10.67
10.33
8.67
12.67
12.33
11.67
12.0
10.33
9.33
9.67
8.67
9.33
10.33
9.0
7.0
11.0
10.33
9.0
13.0
14.67
10.33
9.67
8.67
9.0
7.33
10.0
9.33
10.0
11.0
9.0
10.67
5.67
10.0
7.67
9.67
9.0
7.67
10.33
8.33
8.0
11.0
8.67
9.33
10.33
7.0
9.33
10.33
10.67
12.33
9.67
7.0
10.0
10.67
9.67
10.0
11.0
9.33
9.33
10.0
8.67
8.0
8.0
8.33
13.67
7.67
10.33
9.33
6.67
7.0
6.67
7.33
7.33
8.0
10.67
10.67
6.67
6.67
7.0
8.33
5.67
5.0
9.0
8.67
8.0
8.0
5.67
8.0
10.0
10.0
6.33
5.33
6.67
9.33
5.33
5.67
4.67
7.33
6.67
8.0
4.0
9.0
9.67
5.67
6.67
6.33
3.0
6.0
8.67
4.67
4.33
4.67
6.33
6.67
5.33
7.33
6.33
5.33
5.67
4.33
8.33
5.67
4.67
3.67
8.0
7.67
6.0
7.67
6.0
3.67
5.67
7.67
5.67
4.0
5.67
6.0
4.67
4.0
3.67
7.67
5.33
5.0
5.0
7.0
4.33
6.33
4.33
3.33
5.0
3.33
8.67
2.33
6.0
6.33
7.0
7.0
3.67
4.67
4.67
4.33
6.67
8.33
4.67
3.0
5.0
4.0
5.0
3.67
4.0
4.33
4.67
6.67
7.0
6.67
3.67
6.67
4.0
3.33
5.33
4.67
4.67
8.67
7.0
4.0
4.67
5.0
6.33
5.67
5.33
6.0
5.67
7.0
4.0
3.0
6.33
5.67
3.67
5.67
5.67
7.0
6.0
7.67
10.67
6.67
5.67
5.67
8.33
5.33
7.67
6.0
6.0
7.0
6.67
7.0
8.33
7.67
10.33
9.33
9.67
9.0
8.33
10.0
10.33
10.33
9.67
10.33
7.67
12.0
7.0
10.67
10.0
9.0
7.67
8.33
11.0
10.0
10.0
10.33
6.0
10.67
8.67
10.33
12.67
10.0
17.33
13.0
10.0
10.33
13.33
12.0
13.33
9.33
9.0
9.33
11.67
10.67
10.33
10.67
15.67
11.67
16.33
11.0
15.33
13.67
13.0
13.0
13.33
10.0
14.0
15.33
11.0
12.0
11.33
13.0
13.0
11.67
13.67
13.0
13.67
15.33
13.67
15.67
11.0
14.33
14.33
16.33
15.67
14.33
19.33
12.33
16.0
15.33
14.67
14.33
15.67
18.0
17.0
19.0
16.0
15.0
16.67
14.67
17.33
16.67
12.67
15.0
16.67
17.33
14.67
20.67
17.67
15.0
17.67
13.33
15.67
19.33
16.0
20.0
19.0
16.67
15.33
19.67
17.33
16.67
16.0
13.67
20.67
20.67
15.33
18.33
21.0
22.33
17.67
14.33
15.33
16.33
21.33
20.33
21.0
21.0
22.0
16.67
21.0
15.67
17.67
17.0
14.67
15.33
14.33
18.33
18.0
13.0
17.67
16.67
17.33
15.67
14.67
16.0
13.0
17.67
17.33
11.0
15.33
18.33
16.33
18.0
13.67
17.0
18.67
15.67
17.33
17.33
17.33
13.33
16.67
16.0
11.67
15.33
22.0
16.0
12.33
16.67
13.67
17.33
17.67
15.0
17.67
18.67
20.33
23.33
19.67
16.33
14.33
19.33
10.67
16.67
12.33
17.67
19.33
18.67
16.67
21.33
20.0
16.0
16.67
19.67
15.33
11.33
16.0
14.33
15.0
14.0
18.67
18.67
15.0
12.67
16.67
15.0
13.0
17.33
16.0
14.67
18.0
14.33
15.67
13.33
16.0
13.67
14.67
14.33
14.0
15.33
13.0
16.33
14.0
14.0
18.33
14.33
12.33
14.33
14.0
16.0
14.0
22.33
20.33
26.67
31.33
30.67
28.33
22.0
23.33
19.33
15.67
15.0
15.0
17.0
23.33
17.67
14.0
22.33
24.0
28.33
29.67
39.33
45.0
40.33
34.0
32.67
28.0
17.0
15.0
16.33
17.0
11.0
15.67
14.33
15.67
12.33
19.0
11.67
12.67
11.33
10.67
13.0
17.33
15.0
14.0
15.67
14.0
16.0
17.33
17.33
12.67
14.67
16.0
15.33
14.33
15.33
22.0
19.0
17.67
15.33
17.33
18.0
14.33
19.67
16.0
16.33
16.67
15.67
17.67
14.33
12.67
25.0
18.67
18.33
17.67
14.33
22.67
19.0
18.33
23.67
20.33
21.33
20.0
16.0
23.67
21.33
23.0
19.33
21.67
24.67
21.0
20.67
25.67
27.67
24.33
25.67
31.0
32.0
34.67
30.67
26.67
31.67
31.67
32.33
28.0
23.0
27.0
23.33
23.67
23.67
27.0
20.33
20.33
23.33
24.0
27.0
25.0
27.67
26.33
29.0
29.0
29.67
24.33
20.67
25.33
29.0
25.33
25.67
25.33
24.33
27.0
24.0
27.67
26.0
23.33
29.67
24.67
24.33
24.0
27.33
24.67
23.67
27.0
26.67
25.33
32.67
25.33
24.67
33.0
30.33
26.0
28.0
27.67
26.0
23.67
24.0
24.67
26.33
27.33
30.67
31.33
33.0
29.33
26.33
32.33
29.0
33.33
31.67
31.33
31.67
28.33
32.33
33.0
32.67
34.67
33.0
33.33
29.33
33.0
32.0
31.0
31.0
40.0
33.0
27.67
37.33
36.67
32.33
35.0
35.0
30.33
34.67
33.67
34.0
32.33
28.33
31.67
30.67
31.33
33.33
29.67
35.0
33.0
29.67
31.67
33.67
31.67
38.33
32.33
30.67
35.67
27.0
31.33
33.0
34.0
37.33
33.0
31.0
36.33
31.67
28.33
29.0
34.0
35.67
28.0
33.67
32.67
34.67
31.33
28.33
32.33
30.33
28.33
34.0
26.67
30.67
29.0
34.0
32.33
30.67
29.33
34.33
36.67
34.67
28.0
25.67
30.67
32.33
29.67
29.33
29.33
35.67
27.67
32.67
22.0
28.0
29.0
35.67
32.33
30.67
20.67
24.0
31.0
30.67
30.0
27.67
29.67
23.67
24.0
24.0
32.33
28.0
26.0
26.67
23.33
23.33
30.33
25.0
22.67
20.33
22.33
24.0
26.33
23.67
22.33
23.67
32.0
25.33
22.0
24.67
24.33
22.0
28.0
21.33
24.33
21.33
24.33
30.67
26.0
24.0
18.33
20.0
23.67
19.33
24.33
21.0
23.0
13.67
19.0
21.33
19.67
19.33
17.33
25.0
20.67
16.33
23.0
22.33
21.33
18.0
22.0
19.67
18.33
18.0
18.67
20.33
17.0
22.0
12.67
19.67
17.67
14.67
17.33
14.33
19.67
18.0
15.0
16.67
16.0
14.67
19.67
12.0
19.33
18.0
16.0
13.33
12.33
15.33
17.33
16.67
16.0
15.33
13.33
13.67
9.67
15.67
13.67
15.0
11.0
17.33
18.67
13.33
13.67
10.0
10.0
10.0
13.0
13.0
15.0
16.33
12.33
12.67
8.33
12.33
13.0
14.67
13.67
9.33
15.67
10.0
9.67
13.67
10.33
13.0
11.33
15.33
11.33
11.33
10.67
11.33
11.33
11.67
10.67
11.67
11.33
9.0
8.33
14.0
8.0
10.33
10.0
10.33
12.0
10.0
11.0
10.0
10.0
11.67
6.67
7.67
11.67
12.33
10.0
13.67
11.67
7.67
10.0
10.33
9.0
6.67
10.0
11.67
5.33
12.67
10.67
9.0
7.67
9.0
9.33
10.67
6.67
7.67
8.0
8.0
8.0
8.67
8.0
8.67
10.0
8.33
5.67
9.0
7.67
10.33
10.0
8.0
6.67
6.67
8.67
8.33
7.33
5.67
8.0
6.33
7.33
9.67